timestamp,x,y,z,yaw,yawspeed,vx,vy,vz,acc_x,acc_y,acc_z,jerk_x,jerk_y,jerk_z,thrust[0],thrust[1],thrust[2]
137148043,0.2990386,0.84293205,nan,3.0672948,0.0,0.007914819,-0.027086288,-0.15662637,0.0,0.0,0.0,0.0,0.0,0.0,-9.4717536e-05,-0.021677796,-0.5383825
137168051,0.2990386,0.84293205,nan,3.0672948,0.0,0.00838633,-0.02829771,-0.15662637,0.0,0.0,0.0,0.0,0.0,0.0,0.004047594,-0.020703198,-0.5410772
137268551,0.2990386,0.84293205,nan,3.0672948,0.0,0.012381296,-0.037694532,-0.15662637,0.0,0.0,0.0,0.0,0.0,0.0,0.010716334,-0.018833075,-0.5443478
137368625,0.2990386,0.84293205,nan,3.0672948,0.0,0.016931294,-0.051401038,-0.15662637,0.0,0.0,0.0,0.0,0.0,0.0,0.0017293808,-0.021587463,-0.5417917
137468810,0.2990386,0.84293205,nan,3.0672948,0.0,0.021455923,-0.06942821,-0.15662637,0.0,0.0,0.0,0.0,0.0,0.0,0.007600341,-0.029771479,-0.5426231
137568798,0.2990386,0.84293205,nan,3.0672948,0.0,0.025605729,-0.088753216,-0.15662637,0.0,0.0,0.0,0.0,0.0,0.0,0.0060405075,-0.026513424,-0.53797257
137668780,0.2990386,0.84293205,nan,3.0672948,0.0,0.029585151,-0.110062055,-0.15662637,0.0,0.0,0.0,0.0,0.0,0.0,0.0043233223,-0.035383336,-0.5425881
137768732,0.2990386,0.84293205,nan,3.0672948,0.0,0.032402243,-0.13068047,-0.15662637,0.0,0.0,0.0,0.0,0.0,0.0,0.008959082,-0.033452243,-0.5449075
137868808,0.2990386,0.84293205,nan,3.0672948,0.0,0.032802776,-0.15212347,-0.15662637,0.0,0.0,0.0,0.0,0.0,0.0,0.004968517,-0.028942173,-0.54313254
137968853,0.2990386,0.84293205,nan,3.0672948,0.0,0.030215409,-0.17032516,-0.15662637,0.0,0.0,0.0,0.0,0.0,0.0,0.004805388,-0.033609763,-0.539647
138069183,0.2990386,0.84293205,nan,3.0672948,0.0,0.025937151,-0.18356688,-0.15662637,0.0,0.0,0.0,0.0,0.0,0.0,-0.0017297489,-0.027687408,-0.5388213
138169376,nan,nan,nan,3.0672948,0.0,-0.014827337,-0.19919892,-0.15662637,0.0,0.0,0.0,0.0,0.0,0.0,-0.0031439206,-0.033111278,-0.54254544
138269323,nan,nan,nan,3.0672948,0.0,-0.036605436,-0.4917783,-0.15662637,0.0,0.0,0.0,0.0,0.0,0.0,-0.010906898,-0.05397397,-0.5456046
138389445,nan,nan,nan,3.0672948,0.0,-0.033984777,-0.4565709,-0.15662637,0.0,0.0,0.0,0.0,0.0,0.0,-0.002845033,-0.043628726,-0.5461713
138489478,nan,nan,nan,3.0672948,0.0,-0.030218463,-0.4059721,-0.15662637,0.0,0.0,0.0,0.0,0.0,0.0,-0.008026689,-0.033226896,-0.5429746
138589577,nan,nan,nan,3.0672948,0.0,-0.028356653,-0.38095945,-0.15662637,0.0,0.0,0.0,0.0,0.0,0.0,-0.0036770666,-0.028305862,-0.5442241
138689812,nan,nan,nan,3.0672948,0.0,-0.011402884,-0.15319285,-0.15662637,0.0,0.0,0.0,0.0,0.0,0.0,-0.00018092152,-0.013859729,-0.54159933
138789902,0.31406206,0.99590516,nan,3.0672948,0.0,0.00032607166,0.006638306,-0.15662637,0.0,0.0,0.0,0.0,0.0,0.0,1.203554e-05,0.0002718391,-0.5401758
138889986,0.31406206,0.99590516,nan,3.0672948,0.0,0.0030713363,0.022232613,-0.15662637,0.0,0.0,0.0,0.0,0.0,0.0,0.0063171806,-0.0025003674,-0.53850985
138990062,0.31406206,0.99590516,nan,3.0672948,0.0,0.0075239404,0.034604084,-0.15662637,0.0,0.0,0.0,0.0,0.0,0.0,0.00602902,-0.007422066,-0.5402938
139090201,nan,nan,nan,3.0672948,0.0,-0.005294109,-0.071124084,-0.15662637,0.0,0.0,0.0,0.0,0.0,0.0,0.002670878,-0.011529012,-0.5441842
139190250,nan,nan,nan,3.0672948,0.0,-0.012272934,-0.1648816,-0.15662637,0.0,0.0,0.0,0.0,0.0,0.0,0.0048646284,-0.026829299,-0.54658043
139290306,nan,nan,nan,3.0672948,0.0,-0.02448278,-0.32891563,-0.15662637,0.0,0.0,0.0,0.0,0.0,0.0,0.004006156,-0.040249355,-0.5464418
139390438,nan,nan,nan,3.0672948,0.0,-0.027076129,-0.36375618,-0.15662637,0.0,0.0,0.0,0.0,0.0,0.0,-0.005462377,-0.043214485,-0.5438179
139491721,nan,nan,nan,3.0672948,0.0,-0.047961853,-0.64434695,-0.15662637,0.0,0.0,0.0,0.0,0.0,0.0,-0.009089168,-0.06664643,-0.5448712
139611279,nan,nan,nan,3.0672948,0.0,-0.056767136,-0.7626421,-0.15662637,0.0,0.0,0.0,0.0,0.0,0.0,-0.00087121164,-0.07727009,-0.5503795
139711400,nan,nan,nan,3.0672948,0.0,-0.059002575,-0.7926743,-0.15662637,0.0,0.0,0.0,0.0,0.0,0.0,-0.0072610113,-0.07530466,-0.54930687
139810970,nan,nan,nan,3.0672948,0.0,-0.063066944,-0.84727734,-0.15662637,0.0,0.0,0.0,0.0,0.0,0.0,-0.0012938768,-0.08363072,-0.5492117
139910937,nan,nan,nan,3.0672948,0.0,-0.040559135,-0.5448946,-0.15662637,0.0,0.0,0.0,0.0,0.0,0.0,0.0009905972,-0.048856914,-0.5470474
140011079,nan,nan,nan,3.0672948,0.0,-0.023805214,-0.31981283,-0.15662637,0.0,0.0,0.0,0.0,0.0,0.0,-0.0003750382,-0.032573886,-0.54932
140111067,nan,nan,nan,3.0672948,0.0,-0.02413487,-0.32424164,-0.15662637,0.0,0.0,0.0,0.0,0.0,0.0,-0.000115078954,-0.030465685,-0.5491078
140211894,nan,nan,nan,3.0672948,0.0,-0.023724666,-0.31873068,-0.15662637,0.0,0.0,0.0,0.0,0.0,0.0,-0.004777609,-0.029816732,-0.54960424
140311279,nan,nan,nan,3.0672948,0.0,-0.017401017,-0.2337752,-0.15662637,0.0,0.0,0.0,0.0,0.0,0.0,-0.0027359487,-0.027914107,-0.54839194
140411788,nan,nan,nan,3.0672948,0.0,-0.016104557,-0.21635781,-0.15662637,0.0,0.0,0.0,0.0,0.0,0.0,0.00084746047,-0.034079984,-0.5528282
140511765,nan,nan,nan,3.0672948,0.0,-0.01609217,-0.2161914,-0.15662637,0.0,0.0,0.0,0.0,0.0,0.0,0.00037067282,-0.03289165,-0.549565
140611800,nan,nan,nan,3.0672948,0.0,-0.0027973712,-0.037581485,-0.15662637,0.0,0.0,0.0,0.0,0.0,0.0,-0.0003370687,-0.012379152,-0.5487609
140731773,0.3106,0.8037165,nan,3.0672948,0.0,-0.00032349527,0.0036310405,-0.15662637,0.0,0.0,0.0,0.0,0.0,0.0,0.00025650655,-0.023355283,-0.5503947
140831905,0.3106,0.8037165,nan,3.0672948,0.0,-0.00059070584,0.0017720043,-0.15662637,0.0,0.0,0.0,0.0,0.0,0.0,0.0031599025,-0.029264275,-0.5455381
140931955,0.3106,0.8037165,nan,3.0672948,0.0,-0.0009892851,-0.005015224,-0.15662637,0.0,0.0,0.0,0.0,0.0,0.0,0.0045416486,-0.025826182,-0.54888994
141032006,0.3106,0.8037165,nan,3.0672948,0.0,-0.00076813844,-0.0152466325,-0.16500442,0.0,0.0,0.0,0.0,0.0,0.0,1.4956124e-05,-0.031262137,-0.55289805
141132341,0.3106,0.8037165,nan,3.0672948,0.0,-0.00036678463,-0.02558002,-0.466174,0.0,0.0,0.0,0.0,0.0,0.0,-0.003032635,-0.029306382,-0.60884714
141232339,0.3106,0.8037165,nan,3.0672948,0.0,0.00011418312,-0.036231864,-0.45385772,0.0,0.0,0.0,0.0,0.0,0.0,-0.0031440237,-0.034003984,-0.5988765
141332545,nan,nan,nan,3.0672948,0.0,-0.020321757,-0.27301407,-0.44656128,0.0,0.0,0.0,0.0,0.0,0.0,0.0020481232,-0.054159373,-0.5924987
141432642,nan,nan,nan,3.0672948,0.0,-0.024266165,-0.32600552,-0.43765557,0.0,0.0,0.0,0.0,0.0,0.0,-0.0034789431,-0.06082251,-0.5883386
141532825,nan,nan,nan,3.0672948,0.0,-0.02455368,-0.32986817,-0.43774658,0.0,0.0,0.0,0.0,0.0,0.0,0.00046813028,-0.061784133,-0.5862647
141632770,nan,nan,nan,3.0672948,0.0,-0.026190188,-0.35185394,-0.4377509,0.0,0.0,0.0,0.0,0.0,0.0,-0.0004695371,-0.06928992,-0.59013224
141732846,nan,nan,nan,3.0672948,0.0,-0.026152367,-0.35134584,-0.4377509,0.0,0.0,0.0,0.0,0.0,0.0,-0.003878923,-0.06446107,-0.58884704
141832837,nan,nan,nan,3.0672948,0.0,-0.026151314,-0.35133168,-0.4377509,0.0,0.0,0.0,0.0,0.0,0.0,-0.0049968157,-0.068731874,-0.5935681
141932851,nan,nan,nan,3.0672948,0.0,-0.028951714,-0.38895386,-0.4377509,0.0,0.0,0.0,0.0,0.0,0.0,-0.0014867825,-0.06624416,-0.5976297
142033191,nan,nan,nan,3.0672948,0.0,-0.039243117,-0.5272144,-0.4377509,0.0,0.0,0.0,0.0,0.0,0.0,-0.007434958,-0.07454823,-0.60049725
142154414,nan,nan,nan,3.0672948,0.0,-0.046352267,-0.62272286,-0.4377509,0.0,0.0,0.0,0.0,0.0,0.0,-0.0065960386,-0.07683882,-0.61123145
142253286,nan,nan,nan,3.0672948,0.0,-0.044172045,-0.5934325,-0.4377509,0.0,0.0,0.0,0.0,0.0,0.0,-0.012285075,-0.07713939,-0.61464995
142354561,nan,nan,nan,3.0672948,0.0,-0.020337695,-0.2732282,-0.4377509,0.0,0.0,0.0,0.0,0.0,0.0,-0.006480072,-0.04548507,-0.61822426
142453401,0.3440037,0.904251,nan,3.0672948,0.0,-0.0007391468,0.0021353066,-0.4377509,0.0,0.0,0.0,0.0,0.0,0.0,-0.003996179,-0.024000626,-0.62174773
142553615,0.34948817,0.8883653,nan,3.0672948,0.0,0.0,0.0,-0.4377509,0.0,0.0,0.0,0.0,0.0,0.0,-0.0002059465,-0.02170117,-0.6193809
142653611,nan,nan,nan,3.0672948,0.0,-0.012689972,-0.17048433,-0.4377509,0.0,0.0,0.0,0.0,0.0,0.0,-0.0033402964,-0.033819318,-0.61609554
142753790,nan,nan,nan,3.0672948,0.0,-0.016381286,-0.22007555,-0.4377509,0.0,0.0,0.0,0.0,0.0,0.0,-0.0032818215,-0.050152693,-0.6155265
142854050,nan,nan,nan,3.0672948,0.0,-0.016096476,-0.21624926,-0.4377509,0.0,0.0,0.0,0.0,0.0,0.0,0.0006660648,-0.045954794,-0.6193239
142954043,nan,nan,nan,3.0672948,0.0,-0.016092943,-0.21620178,-0.4377509,0.0,0.0,0.0,0.0,0.0,0.0,-0.00093003706,-0.045063235,-0.6236064
143054237,nan,nan,nan,3.0672948,0.0,-0.016093109,-0.21620402,-0.4377509,0.0,0.0,0.0,0.0,0.0,0.0,-0.0015243655,-0.045834437,-0.6239718
143154224,nan,nan,nan,3.0672948,0.0,-0.016093109,-0.21620402,-0.4377509,0.0,0.0,0.0,0.0,0.0,0.0,-0.0006643453,-0.046213098,-0.625998
143254320,nan,nan,nan,3.0672948,0.0,-0.016093109,-0.21620402,-0.4377509,0.0,0.0,0.0,0.0,0.0,0.0,-0.0004930495,-0.049411997,-0.6296222
143354385,nan,nan,nan,3.0672948,0.0,-0.012594676,-0.16920407,-0.44593942,0.0,0.0,0.0,0.0,0.0,0.0,-0.009032433,-0.04634053,-0.6294242
143474458,nan,nan,nan,3.0672948,0.0,-0.012085062,-0.16235763,-0.69366384,0.0,0.0,0.0,0.0,0.0,0.0,-0.0062382594,-0.04243419,-0.6816479
143574907,nan,nan,nan,3.0672948,0.0,-0.012070111,-0.16215676,-0.70232403,0.0,0.0,0.0,0.0,0.0,0.0,-0.008153134,-0.044669308,-0.6821419
143674986,nan,nan,nan,3.0672948,0.0,-0.012069829,-0.16215298,-0.7027969,0.0,0.0,0.0,0.0,0.0,0.0,-0.0057033203,-0.04312606,-0.6715671
143775191,nan,nan,nan,3.0672948,0.0,-0.012069843,-0.16215315,-0.7028112,0.0,0.0,0.0,0.0,0.0,0.0,-0.0052081854,-0.040684238,-0.65875566
143875186,nan,nan,nan,3.0672948,0.0,-0.014233199,-0.19121692,-0.7028112,0.0,0.0,0.0,0.0,0.0,0.0,-0.005919488,-0.0488007,-0.65077573
143975671,nan,nan,nan,3.0672948,0.0,-0.007521517,-0.10104835,-0.7028112,0.0,0.0,0.0,0.0,0.0,0.0,-0.0019500011,-0.03336487,-0.6465075
144075171,0.38873857,0.8179043,nan,3.0672948,0.0,-0.0051540104,0.0027235777,-0.7028112,0.0,0.0,0.0,0.0,0.0,0.0,-0.00641846,-0.029253233,-0.64634
144175207,0.38873857,0.8179043,nan,3.0672948,0.0,-0.01412261,0.0058157803,-0.7028112,0.0,0.0,0.0,0.0,0.0,0.0,-0.0047044954,-0.028590811,-0.6479695
144275204,0.38873857,0.8179043,nan,3.0672948,0.0,-0.022042807,0.0074749887,-0.7028112,0.0,0.0,0.0,0.0,0.0,0.0,-0.0021411981,-0.0336976,-0.65512276
144375522,0.38873857,0.8179043,nan,3.0672948,0.0,-0.02751165,0.0071732937,-0.7028112,0.0,0.0,0.0,0.0,0.0,0.0,-0.0067107575,-0.033635277,-0.6659146
144475568,0.38873857,0.8179043,nan,3.0672948,0.0,-0.03146327,0.0056717275,-0.7028112,0.0,0.0,0.0,0.0,0.0,0.0,-0.0023483268,-0.037265245,-0.67503524
144575647,0.38873857,0.8179043,nan,3.0672948,0.0,-0.0334648,0.0024061978,-0.7028112,0.0,0.0,0.0,0.0,0.0,0.0,-0.0097540505,-0.036820006,-0.67876554
144695744,0.38873857,0.8179043,nan,3.0672948,0.0,-0.034134157,-0.0034228892,-0.7028112,0.0,0.0,0.0,0.0,0.0,0.0,-0.004452209,-0.036979526,-0.6857311
144795810,0.38873857,0.8179043,nan,3.0672948,0.0,-0.032888986,-0.009586399,-0.7028112,0.0,0.0,0.0,0.0,0.0,0.0,-0.0012099411,-0.038401693,-0.69257474
144895831,0.38873857,0.8179043,nan,3.0672948,0.0,-0.031893473,-0.015755799,-0.7028112,0.0,0.0,0.0,0.0,0.0,0.0,-0.00539803,-0.03878769,-0.69348574
144995886,0.38873857,0.8179043,nan,3.0672948,0.0,-0.032775313,-0.021712856,-0.7028112,0.0,0.0,0.0,0.0,0.0,0.0,-5.1413663e-06,-0.041186806,-0.69460446
145096040,0.38873857,0.8179043,nan,3.0672948,0.0,-0.034561843,-0.026957126,-0.7028112,0.0,0.0,0.0,0.0,0.0,0.0,-0.010989933,-0.041838303,-0.69347966
145196160,0.38873857,0.8179043,nan,3.0672948,0.0,-0.037262034,-0.031822465,-0.7028112,0.0,0.0,0.0,0.0,0.0,0.0,-0.014600333,-0.04226319,-0.6903365
145296284,0.38873857,0.8179043,nan,3.0672948,0.0,-0.04056349,-0.036434073,-0.7028112,0.0,0.0,0.0,0.0,0.0,0.0,-0.0121722035,-0.04388854,-0.68617725
145396392,0.38873857,0.8179043,nan,3.0672948,0.0,-0.044926744,-0.042145435,-0.7028112,0.0,0.0,0.0,0.0,0.0,0.0,-0.014178414,-0.045860324,-0.6863691
145496484,0.38873857,0.8179043,nan,3.0672948,0.0,-0.04945964,-0.048449147,-0.7028112,0.0,0.0,0.0,0.0,0.0,0.0,-0.011711267,-0.049171634,-0.68649757
145596519,0.38873857,0.8179043,nan,3.0672948,0.0,-0.0539638,-0.05665244,-0.7028112,0.0,0.0,0.0,0.0,0.0,0.0,-0.01362869,-0.045165706,-0.6864474
145696608,0.38873857,0.8179043,nan,3.0672948,0.0,-0.05688712,-0.063265435,-0.7028112,0.0,0.0,0.0,0.0,0.0,0.0,-0.011495793,-0.047409162,-0.6891024
145796686,0.38873857,0.8179043,nan,3.0672948,0.0,-0.059336323,-0.07070124,-0.7028112,0.0,0.0,0.0,0.0,0.0,0.0,-0.015977724,-0.05165091,-0.6922009
145896769,0.38873857,0.8179043,nan,3.0672948,0.0,-0.061188,-0.078981936,-0.7028112,0.0,0.0,0.0,0.0,0.0,0.0,-0.0079217255,-0.043950524,-0.69624305
145996996,0.38873857,0.8179043,nan,3.0672948,0.0,-0.063182,-0.086395204,-0.7028112,0.0,0.0,0.0,0.0,0.0,0.0,-0.009494642,-0.05181402,-0.70151675
146097470,0.38873857,0.8179043,nan,3.0672948,0.0,-0.065774634,-0.093101464,-0.7028112,0.0,0.0,0.0,0.0,0.0,0.0,-0.007224555,-0.046491787,-0.70856774
146218589,0.38873857,0.8179043,nan,3.0672948,0.0,-0.06861061,-0.09839035,-0.7028112,0.0,0.0,0.0,0.0,0.0,0.0,-0.0099743195,-0.04857585,-0.7122445
146317550,0.38873857,0.8179043,nan,3.0672948,0.0,-0.0707131,-0.10129773,-0.7028112,0.0,0.0,0.0,0.0,0.0,0.0,-0.01927659,-0.049833007,-0.7163987
146417773,0.38873857,0.8179043,nan,3.0672948,0.0,-0.07365531,-0.1034353,-0.7028112,0.0,0.0,0.0,0.0,0.0,0.0,-0.018041916,-0.051730696,-0.7211715
146517594,0.38873857,0.8179043,nan,3.0672948,0.0,-0.077282555,-0.10414192,-0.7028112,0.0,0.0,0.0,0.0,0.0,0.0,-0.01457,-0.048904315,-0.7256404
146618079,0.38873857,0.8179043,nan,3.0672948,0.0,-0.08176653,-0.10279975,-0.7028112,0.0,0.0,0.0,0.0,0.0,0.0,-0.02118366,-0.045216814,-0.7246431
146717785,0.38873857,0.8179043,nan,3.0672948,0.0,-0.08722719,-0.10107429,-0.7028112,0.0,0.0,0.0,0.0,0.0,0.0,-0.015066404,-0.04777705,-0.72816485
146817779,0.38873857,0.8179043,nan,3.0672948,0.0,-0.094718374,-0.09838174,-0.7028112,0.0,0.0,0.0,0.0,0.0,0.0,-0.017333835,-0.040174287,-0.7245508
146918145,0.38873857,0.8179043,nan,3.0672948,0.0,-0.10219664,-0.09532969,-0.7028112,0.0,0.0,0.0,0.0,0.0,0.0,-0.022422008,-0.04447169,-0.72185546
147018070,0.38873857,0.8179043,nan,3.0672948,0.0,-0.11062581,-0.09121389,-0.7028112,0.0,0.0,0.0,0.0,0.0,0.0,-0.029152347,-0.04711,-0.72036433
147118231,0.38873857,0.8179043,nan,3.0672948,0.0,-0.11810414,-0.087406345,-0.7028112,0.0,0.0,0.0,0.0,0.0,0.0,-0.016785033,-0.03968452,-0.71998984
147218163,0.38873857,0.8179043,nan,3.0672948,0.0,-0.12543632,-0.08294859,-0.7028112,0.0,0.0,0.0,0.0,0.0,0.0,-0.01703504,-0.04495532,-0.7189958
147318231,0.38873857,0.8179043,nan,3.0672948,0.0,-0.13079378,-0.07953753,-0.7028112,0.0,0.0,0.0,0.0,0.0,0.0,-0.022995247,-0.04136908,-0.72047526
147418340,0.38873857,0.8179043,nan,3.0672948,0.0,-0.13424611,-0.076607786,-0.7028112,0.0,0.0,0.0,0.0,0.0,0.0,-0.025778342,-0.042753655,-0.7225262
147538560,0.38873857,0.8179043,nan,3.0672948,0.0,-0.1349187,-0.07413188,-0.7028112,0.0,0.0,0.0,0.0,0.0,0.0,-0.023607511,-0.041666728,-0.7260253
147638598,0.38873857,0.8179043,nan,3.0672948,0.0,-0.1329279,-0.07274306,-0.7028112,0.0,0.0,0.0,0.0,0.0,0.0,-0.015316172,-0.046693087,-0.7295443
147738794,0.38873857,0.8179043,nan,3.0672948,0.0,-0.12886024,-0.07175927,-0.7028112,0.0,0.0,0.0,0.0,0.0,0.0,-0.013566629,-0.04173893,-0.729082
147838856,0.38873857,0.8179043,nan,3.0672948,0.0,-0.123122364,-0.07013273,-0.7028112,0.0,0.0,0.0,0.0,0.0,0.0,-0.01784332,-0.0400099,-0.7301239
147938901,0.38873857,0.8179043,nan,3.0672948,0.0,-0.11568866,-0.06791707,-0.7028112,0.0,0.0,0.0,0.0,0.0,0.0,-0.014265202,-0.04031597,-0.7311337
148039158,0.38873857,0.8179043,nan,3.0672948,0.0,-0.10828428,-0.06595181,-0.7028112,0.0,0.0,0.0,0.0,0.0,0.0,-0.012782428,-0.0386976,-0.7331461
148139233,0.38873857,0.8179043,nan,3.0672948,0.0,-0.100980915,-0.06355048,-0.7028112,0.0,0.0,0.0,0.0,0.0,0.0,-0.009780808,-0.039377477,-0.73276526
148239203,0.38873857,0.8179043,nan,3.0672948,0.0,-0.095904626,-0.06020987,-0.7028112,0.0,0.0,0.0,0.0,0.0,0.0,-0.017054025,-0.03667271,-0.73048127
148339241,0.38873857,0.8179043,nan,3.0672948,0.0,-0.09125491,-0.054773472,-0.7028112,0.0,0.0,0.0,0.0,0.0,0.0,-0.013894107,-0.035484064,-0.7313539
148439386,0.38873857,0.8179043,nan,3.0672948,0.0,-0.088099346,-0.047589872,-0.7028112,0.0,0.0,0.0,0.0,0.0,0.0,-0.01728779,-0.028213577,-0.73501086
148539608,0.38873857,0.8179043,nan,3.0672948,0.0,-0.08560023,-0.03596947,-0.7028112,0.0,0.0,0.0,0.0,0.0,0.0,-0.012312146,-0.029616047,-0.7354019
148659811,0.38873857,0.8179043,nan,3.0672948,0.0,-0.08407593,-0.021224359,-0.7028112,0.0,0.0,0.0,0.0,0.0,0.0,-0.018729411,-0.026548106,-0.73926234
148760171,0.38873857,0.8179043,nan,3.0672948,0.0,-0.083352745,-0.007210892,-0.7028112,0.0,0.0,0.0,0.0,0.0,0.0,-0.020561852,-0.02364542,-0.7405473
148859840,0.38873857,0.8179043,nan,3.0672948,0.0,-0.08382041,0.004993877,-0.7028112,0.0,0.0,0.0,0.0,0.0,0.0,-0.01885682,-0.031717617,-0.73577833
148959935,0.38873857,0.8179043,nan,3.0672948,0.0,-0.0852406,0.014559326,-0.7028112,0.0,0.0,0.0,0.0,0.0,0.0,-0.019309863,-0.03086759,-0.7416636
149059983,0.38873857,0.8179043,nan,3.0672948,0.0,-0.08700794,0.019661298,-0.7028112,0.0,0.0,0.0,0.0,0.0,0.0,-0.015283302,-0.038265496,-0.7480632
149160053,0.38873857,0.8179043,nan,3.0672948,0.0,-0.087827295,0.017881593,-0.7028112,0.0,0.0,0.0,0.0,0.0,0.0,-0.02091909,-0.039238706,-0.74878824
149260409,0.38873857,0.8179043,nan,3.0672948,0.0,-0.08803723,0.009828016,-0.7028112,0.0,0.0,0.0,0.0,0.0,0.0,-0.015642405,-0.052593846,-0.7496655
149360455,0.38873857,0.8179043,nan,3.0672948,0.0,-0.0879513,-0.005088383,-0.7028112,0.0,0.0,0.0,0.0,0.0,0.0,-0.021520998,-0.053057827,-0.7500997
149460513,0.38873857,0.8179043,nan,3.0672948,0.0,-0.087081745,-0.02697015,-0.7028112,0.0,0.0,0.0,0.0,0.0,0.0,-0.020300446,-0.057550456,-0.7502625
149560640,0.38873857,0.8179043,nan,3.0672948,0.0,-0.08611845,-0.050629698,-0.7028112,0.0,0.0,0.0,0.0,0.0,0.0,-0.019658681,-0.061311416,-0.74579084
149660814,0.38873857,0.8179043,nan,3.0672948,0.0,-0.08538466,-0.077326804,-0.7028112,0.0,0.0,0.0,0.0,0.0,0.0,-0.023994146,-0.06291643,-0.7417252
149760744,0.38873857,0.8179043,nan,3.0672948,0.0,-0.08453597,-0.100901246,-0.7028112,0.0,0.0,0.0,0.0,0.0,0.0,-0.014848199,-0.070583224,-0.7437241
149860741,0.38873857,0.8179043,nan,3.0672948,0.0,-0.08347208,-0.124920644,-0.7028112,0.0,0.0,0.0,0.0,0.0,0.0,-0.012107636,-0.06699831,-0.75050664
149961326,0.38873857,0.8179043,nan,3.0672948,0.0,-0.08161582,-0.14280048,-0.7028112,0.0,0.0,0.0,0.0,0.0,0.0,-0.019043623,-0.06916872,-0.750603
150061776,0.38873857,0.8179043,nan,3.0672948,0.0,-0.078924775,-0.15747288,-0.7028112,0.0,0.0,0.0,0.0,0.0,0.0,-0.013249593,-0.06486909,-0.756379
150161471,0.38873857,0.8179043,nan,3.0672948,0.0,-0.075955816,-0.16517206,-0.7028112,0.0,0.0,0.0,0.0,0.0,0.0,-0.01901701,-0.06527239,-0.7555944
150281503,0.38873857,0.8179043,nan,3.0672948,0.0,-0.07159794,-0.16744223,-0.7028112,0.0,0.0,0.0,0.0,0.0,0.0,-0.014894893,-0.059436567,-0.7567644
150381594,0.38873857,0.8179043,nan,3.0672948,0.0,-0.067528404,-0.16402262,-0.7028112,0.0,0.0,0.0,0.0,0.0,0.0,-0.01038712,-0.05259212,-0.7579637
150481938,0.38873857,0.8179043,nan,3.0672948,0.0,-0.063615434,-0.15497938,-0.7028112,0.0,0.0,0.0,0.0,0.0,0.0,-0.017115768,-0.049671616,-0.7539871
150582050,0.38873857,0.8179043,nan,3.0672948,0.0,-0.059607215,-0.14070736,-0.7028112,0.0,0.0,0.0,0.0,0.0,0.0,-0.017676536,-0.037693027,-0.7542218
150682298,0.38873857,0.8179043,nan,3.0672948,0.0,-0.05547519,-0.12161055,-0.7028112,0.0,0.0,0.0,0.0,0.0,0.0,-0.019172957,-0.038741186,-0.75644314
150781784,0.38873857,0.8179043,nan,3.0672948,0.0,-0.052140523,-0.102384694,-0.7028112,0.0,0.0,0.0,0.0,0.0,0.0,-0.011421844,-0.03173807,-0.75944245
150881914,0.38873857,0.8179043,nan,3.0672948,0.0,-0.049514424,-0.079342745,-0.7028112,0.0,0.0,0.0,0.0,0.0,0.0,-0.014536432,-0.03076919,-0.7672752
150982004,0.38873857,0.8179043,nan,3.0672948,0.0,-0.047841966,-0.05730017,-0.7028112,0.0,0.0,0.0,0.0,0.0,0.0,-0.008786071,-0.026472667,-0.775536
151082162,0.38873857,0.8179043,nan,3.0672948,0.0,-0.046211325,-0.034529794,-0.7028112,0.0,0.0,0.0,0.0,0.0,0.0,-0.015607499,-0.03201527,-0.77425605
151182177,0.38873857,0.8179043,nan,3.0672948,0.0,-0.045991622,-0.01750589,-0.7028112,0.0,0.0,0.0,0.0,0.0,0.0,-0.011695164,-0.029918343,-0.783373
151282210,0.38873857,0.8179043,nan,3.0672948,0.0,-0.046167668,-0.0039370954,-0.7028112,0.0,0.0,0.0,0.0,0.0,0.0,-0.009824574,-0.02988783,-0.7879145
151382323,0.38873857,0.8179043,nan,3.0672948,0.0,-0.04705061,0.0035024465,-0.7028112,0.0,0.0,0.0,0.0,0.0,0.0,-0.018832702,-0.03473598,-0.7884066
151482350,0.38873857,0.8179043,nan,3.0672948,0.0,-0.048314694,0.004761207,-0.7028112,0.0,0.0,0.0,0.0,0.0,0.0,-0.020592986,-0.043455638,-0.78958
151602801,0.38873857,0.8179043,nan,3.0672948,0.0,-0.049862467,-0.0035341561,-0.7028112,0.0,0.0,0.0,0.0,0.0,0.0,-0.016369931,-0.048756838,-0.7924813
151702767,0.38873857,0.8179043,nan,3.0672948,0.0,-0.05098139,-0.017973607,-0.7028112,0.0,0.0,0.0,0.0,0.0,0.0,-0.016534023,-0.052544847,-0.78941417
151802801,0.38873857,0.8179043,nan,3.0672948,0.0,-0.051947463,-0.039413195,-0.7028112,0.0,0.0,0.0,0.0,0.0,0.0,-0.018855173,-0.06568679,-0.78491366
151902911,0.38873857,0.8179043,nan,3.0672948,0.0,-0.05253381,-0.063219346,-0.7028112,0.0,0.0,0.0,0.0,0.0,0.0,-0.015421185,-0.069109745,-0.7831099
152002983,0.38873857,0.8179043,nan,3.0672948,0.0,-0.05246167,-0.0917081,-0.7028112,0.0,0.0,0.0,0.0,0.0,0.0,-0.02141491,-0.06751287,-0.7765367
152102998,0.38873857,0.8179043,nan,3.0672948,0.0,-0.052360877,-0.116851605,-0.7028112,0.0,0.0,0.0,0.0,0.0,0.0,-0.016100068,-0.069866225,-0.7722376
152203072,0.38873857,0.8179043,nan,3.0672948,0.0,-0.05171349,-0.14168793,-0.7028112,0.0,0.0,0.0,0.0,0.0,0.0,-0.01833033,-0.0660508,-0.76645875
152303221,0.38873857,0.8179043,nan,3.0672948,0.0,-0.051294807,-0.16063818,-0.7028112,0.0,0.0,0.0,0.0,0.0,0.0,-0.015413251,-0.06739104,-0.76348555
152403403,0.38873857,0.8179043,nan,3.0672948,0.0,-0.051761195,-0.17356554,-0.7028112,0.0,0.0,0.0,0.0,0.0,0.0,-0.018126102,-0.0659383,-0.7561082
152503824,0.38873857,0.8179043,nan,3.0672948,0.0,-0.052033674,-0.178287,-0.7028112,0.0,0.0,0.0,0.0,0.0,0.0,-0.019611027,-0.058073483,-0.7530143
152603700,0.38873857,0.8179043,nan,3.0672948,0.0,-0.053164292,-0.17338197,-0.7028112,0.0,0.0,0.0,0.0,0.0,0.0,-0.014807239,-0.05505527,-0.7534569
152704467,0.38873857,0.8179043,nan,3.0672948,0.0,-0.053454436,-0.15987767,-0.7028112,0.0,0.0,0.0,0.0,0.0,0.0,-0.017308258,-0.04728619,-0.74880075
152823966,0.38873857,0.8179043,nan,3.0672948,0.0,-0.052141853,-0.13494758,-0.7028112,0.0,0.0,0.0,0.0,0.0,0.0,-0.010921273,-0.033380967,-0.7522733
152923837,0.38873857,0.8179043,nan,3.0672948,0.0,-0.05028075,-0.109537266,-0.7028112,0.0,0.0,0.0,0.0,0.0,0.0,-0.013742939,-0.03421252,-0.7554534
153024005,0.38873857,0.8179043,nan,3.0672948,0.0,-0.047551736,-0.079632044,-0.7028112,0.0,0.0,0.0,0.0,0.0,0.0,-0.011939292,-0.028749166,-0.76131845
153124068,0.38873857,0.8179043,nan,3.0672948,0.0,-0.044432297,-0.05135279,-0.7028112,0.0,0.0,0.0,0.0,0.0,0.0,-0.009586381,-0.029644847,-0.7677864
153224153,0.38873857,0.8179043,nan,3.0672948,0.0,-0.04091227,-0.02395139,-0.7028112,0.0,0.0,0.0,0.0,0.0,0.0,-0.012925322,-0.028889237,-0.7715894
153324425,0.38873857,0.8179043,nan,3.0672948,0.0,-0.037189554,-0.0042289943,-0.7028112,0.0,0.0,0.0,0.0,0.0,0.0,-0.013113689,-0.027666768,-0.77850735
153424563,0.38873857,0.8179043,nan,3.0672948,0.0,-0.032794964,0.011259821,-0.7028112,0.0,0.0,0.0,0.0,0.0,0.0,-0.012566766,-0.03630379,-0.784115
153524641,0.38873857,0.8179043,nan,3.0672948,0.0,-0.028757557,0.018715048,-0.7028112,0.0,0.0,0.0,0.0,0.0,0.0,-0.011787471,-0.040231783,-0.7843116
153624582,0.38873857,0.8179043,nan,3.0672948,0.0,-0.025416575,0.019307395,-0.7011518,0.0,0.0,0.0,0.0,0.0,0.0,-0.009991334,-0.037805684,-0.7884292
153724675,0.38873857,0.8179043,nan,3.0672948,0.0,-0.022878697,0.0134036215,-0.6845432,0.0,0.0,0.0,0.0,0.0,0.0,-0.012730874,-0.04727015,-0.7850223
153824792,0.38873857,0.8179043,nan,3.0672948,0.0,-0.021089083,0.0031587363,-0.495211,0.0,0.0,0.0,0.0,0.0,0.0,-0.0124256285,-0.043371137,-0.74971104
153924853,0.38873857,0.8179043,nan,3.0672948,0.0,-0.019374326,-0.009695118,-0.4071765,0.0,0.0,0.0,0.0,0.0,0.0,-0.012629614,-0.04728486,-0.7354547
154024969,0.38873857,0.8179043,nan,3.0672948,0.0,-0.017153261,-0.02152962,-0.40564308,0.0,0.0,0.0,0.0,0.0,0.0,-0.013434992,-0.050320625,-0.7381227
154145325,0.38873857,0.8179043,nan,3.0672948,0.0,-0.013498778,-0.035771567,-0.40562242,0.0,0.0,0.0,0.0,0.0,0.0,-0.008664193,-0.04753455,-0.7466824
154245284,0.38873857,0.8179043,nan,3.0672948,0.0,-0.009519979,-0.047016438,-0.40562242,0.0,0.0,0.0,0.0,0.0,0.0,-0.004736527,-0.052352257,-0.75324416
154346131,0.38873857,0.8179043,nan,3.0672948,0.0,-0.0049122525,-0.054147772,-0.40562242,0.0,0.0,0.0,0.0,0.0,0.0,-0.0051783994,-0.05148873,-0.7581104
154445978,0.38873857,0.8179043,nan,3.0672948,0.0,0.0002131626,-0.057810128,-0.40562242,0.0,0.0,0.0,0.0,0.0,0.0,-0.010306214,-0.056660585,-0.7613391
154545755,0.38873857,0.8179043,nan,3.0672948,0.0,0.005806975,-0.059117075,-0.40562242,0.0,0.0,0.0,0.0,0.0,0.0,-0.005530601,-0.05004034,-0.7647619
154645926,0.38873857,0.8179043,nan,3.0672948,0.0,0.012123796,-0.057109285,-0.40562242,0.0,0.0,0.0,0.0,0.0,0.0,-0.0035983762,-0.051101867,-0.768265
154745810,0.38873857,0.8179043,nan,3.0672948,0.0,0.017590402,-0.054026935,-0.40562242,0.0,0.0,0.0,0.0,0.0,0.0,-0.0053917337,-0.048821665,-0.7674795
154845959,0.38873857,0.8179043,nan,3.0672948,0.0,0.02273357,-0.049106784,-0.40562242,0.0,0.0,0.0,0.0,0.0,0.0,-0.0041587222,-0.044139337,-0.77226156
154946090,0.38873857,0.8179043,nan,3.0672948,0.0,0.025942305,-0.042529292,-0.40562242,0.0,0.0,0.0,0.0,0.0,0.0,-0.00636616,-0.046586584,-0.7736594
155046227,0.38873857,0.8179043,nan,3.0672948,0.0,0.027333595,-0.034806687,-0.40562242,0.0,0.0,0.0,0.0,0.0,0.0,-0.011298695,-0.04371406,-0.7713896
155147796,0.38873857,0.8179043,nan,3.0672948,0.0,0.026292214,-0.026388051,-0.40562242,0.0,0.0,0.0,0.0,0.0,0.0,-0.009015324,-0.037020896,-0.77379024
155246304,0.38873857,0.8179043,nan,3.0672948,0.0,0.023450406,-0.017224297,-0.40562242,0.0,0.0,0.0,0.0,0.0,0.0,-0.013049722,-0.037366483,-0.7718236
155346306,0.38873857,0.8179043,nan,3.0672948,0.0,0.018502535,-0.006493914,-0.40562242,0.0,0.0,0.0,0.0,0.0,0.0,-0.011283999,-0.029107913,-0.77089727
155466394,0.38873857,0.8179043,nan,3.0672948,0.0,0.011023697,0.009271058,-0.40562242,0.0,0.0,0.0,0.0,0.0,0.0,-0.017378442,-0.03500867,-0.76911426
155566432,0.38873857,0.8179043,nan,3.0672948,0.0,0.004224153,0.023493469,-0.40562242,0.0,0.0,0.0,0.0,0.0,0.0,-0.017647494,-0.023899067,-0.7645563
155666841,0.38873857,0.8179043,nan,3.0672948,0.0,-0.0025261,0.04208513,-0.40562242,0.0,0.0,0.0,0.0,0.0,0.0,-0.014419538,-0.02716637,-0.76162916
155766818,0.38873857,0.8179043,nan,3.0672948,0.0,-0.008391398,0.060387615,-0.40562242,0.0,0.0,0.0,0.0,0.0,0.0,-0.01850857,-0.02167764,-0.7589797
155866928,0.38873857,0.8179043,nan,3.0672948,0.0,-0.0135214,0.08107823,-0.40562242,0.0,0.0,0.0,0.0,0.0,0.0,-0.01501231,-0.014748011,-0.75972617
155966984,0.38873857,0.8179043,nan,3.0672948,0.0,-0.016610177,0.09928411,-0.40562242,0.0,0.0,0.0,0.0,0.0,0.0,-0.017209899,-0.022101397,-0.76332366
156066996,0.38873857,0.8179043,nan,3.0672948,0.0,-0.017315065,0.11657828,-0.40562242,0.0,0.0,0.0,0.0,0.0,0.0,-0.01178432,-0.01630118,-0.7702298
156167032,0.38873857,0.8179043,nan,3.0672948,0.0,-0.01563553,0.12915309,-0.40562242,0.0,0.0,0.0,0.0,0.0,0.0,-0.013333923,-0.027730457,-0.77599454
156267152,0.38873857,0.8179043,nan,3.0672948,0.0,-0.012113519,0.13567571,-0.40562242,0.0,0.0,0.0,0.0,0.0,0.0,-0.01032568,-0.026046436,-0.78306544
156367237,0.38873857,0.8179043,nan,3.0672948,0.0,-0.0060929283,0.13854629,-0.40562242,0.0,0.0,0.0,0.0,0.0,0.0,-0.010847741,-0.03237307,-0.79322726
156467733,0.38873857,0.8179043,nan,3.0672948,0.0,0.0010093019,0.1358744,-0.40562242,0.0,0.0,0.0,0.0,0.0,0.0,-0.005771473,-0.032781933,-0.7944436
156567772,0.38873857,0.8179043,nan,3.0672948,0.0,0.010695105,0.12914176,-0.40562242,0.0,0.0,0.0,0.0,0.0,0.0,-0.0049635563,-0.036448944,-0.7955432
156687942,0.38873857,0.8179043,nan,3.0672948,0.0,0.023873532,0.11741066,-0.40562242,0.0,0.0,0.0,0.0,0.0,0.0,-0.0013115415,-0.035394892,-0.79426944
156787950,0.38873857,0.8179043,nan,3.0672948,0.0,0.03551585,0.10664041,-0.40562242,0.0,0.0,0.0,0.0,0.0,0.0,0.0036015846,-0.03627125,-0.7957876
156887915,0.38873857,0.8179043,nan,3.0672948,0.0,0.04901395,0.0961115,-0.40562242,0.0,0.0,0.0,0.0,0.0,0.0,-0.0022153072,-0.038448125,-0.7900144
156987951,0.38873857,0.8179043,nan,3.0672948,0.0,0.061719164,0.086442314,-0.40562242,0.0,0.0,0.0,0.0,0.0,0.0,0.0022224234,-0.04319948,-0.7863284
157088021,0.38873857,0.8179043,nan,3.0672948,0.0,0.07397456,0.07735999,-0.40562242,0.0,0.0,0.0,0.0,0.0,0.0,0.00639823,-0.044668827,-0.7822725
157188159,0.38873857,0.8179043,nan,3.0672948,0.0,0.08427448,0.06902867,-0.40562242,0.0,0.0,0.0,0.0,0.0,0.0,0.0037119724,-0.042040646,-0.7812848
157288334,0.38873857,0.8179043,nan,3.0672948,0.0,0.09328229,0.061374746,-0.40562242,0.0,0.0,0.0,0.0,0.0,0.0,0.0016136849,-0.047464937,-0.7812907
157388685,0.38873857,0.8179043,nan,3.0672948,0.0,0.09980735,0.05380038,-0.40562242,0.0,0.0,0.0,0.0,0.0,0.0,0.003845756,-0.045549333,-0.7807235
157488650,0.38873857,0.8179043,nan,3.0672948,0.0,0.10360048,0.046823405,-0.40562242,0.0,0.0,0.0,0.0,0.0,0.0,0.002867411,-0.045976933,-0.7810267
157588828,0.38873857,0.8179043,nan,3.0672948,0.0,0.105098784,0.03969292,-0.40562242,0.0,0.0,0.0,0.0,0.0,0.0,0.002235217,-0.048286818,-0.78293097
157688715,0.38873857,0.8179043,nan,3.0672948,0.0,0.104475014,0.03280762,-0.40562242,0.0,0.0,0.0,0.0,0.0,0.0,0.002130582,-0.043851987,-0.78633904
157788652,0.38873857,0.8179043,nan,3.0672948,0.0,0.10225341,0.026238168,-0.40562242,0.0,0.0,0.0,0.0,0.0,0.0,-0.003583856,-0.045764353,-0.7834482
157888799,0.38873857,0.8179043,nan,3.0672948,0.0,0.098452866,0.02000784,-0.40562242,0.0,0.0,0.0,0.0,0.0,0.0,-0.0045656543,-0.04448645,-0.7848058
157989101,0.38873857,0.8179043,nan,3.0672948,0.0,0.092382215,0.014441207,-0.40562242,0.0,0.0,0.0,0.0,0.0,0.0,-0.00787207,-0.04966327,-0.7901101
158109202,0.38873857,0.8179043,nan,3.0672948,0.0,0.08450769,0.01080139,-0.12182443,0.0,0.0,0.0,0.0,0.0,0.0,-0.0006217733,-0.043024953,-0.73639476
158209207,0.38873857,0.8179043,nan,3.0672948,0.0,0.078519,0.009829715,-0.13245592,0.0,0.0,0.0,0.0,0.0,0.0,-0.008870374,-0.042497862,-0.7407429
158309402,0.38873857,0.8179043,nan,3.0672948,0.0,0.07267822,0.010878059,-0.13253298,0.0,0.0,0.0,0.0,0.0,0.0,-0.010165734,-0.040349953,-0.74863046
158409334,0.38873857,0.8179043,nan,3.0672948,0.0,0.0681515,0.013474968,-0.1325306,0.0,0.0,0.0,0.0,0.0,0.0,-0.00088193966,-0.03893708,-0.7572944
158509475,0.38873857,0.8179043,nan,3.0672948,0.0,0.06487388,0.018576544,-0.13253021,0.0,0.0,0.0,0.0,0.0,0.0,-0.0030145864,-0.03640258,-0.7644783
158609536,0.38873857,0.8179043,nan,3.0672948,0.0,0.06448977,0.026007082,-0.13253021,0.0,0.0,0.0,0.0,0.0,0.0,-0.0018822919,-0.03365179,-0.7692417
158709575,0.38873857,0.8179043,nan,3.0672948,0.0,0.06686669,0.036527786,-0.13253021,0.0,0.0,0.0,0.0,0.0,0.0,-0.0060584983,-0.021810746,-0.77387047
158809728,0.38873857,0.8179043,nan,3.0672948,0.0,0.071363576,0.049762383,-0.13253021,0.0,0.0,0.0,0.0,0.0,0.0,0.00020606117,-0.019729616,-0.77266073
158910534,0.38873857,0.8179043,nan,3.0672948,0.0,0.078364395,0.0677335,-0.13253021,0.0,0.0,0.0,0.0,0.0,0.0,0.006225086,-0.014329758,-0.77886933
159011113,0.38873857,0.8179043,nan,3.0672948,0.0,0.08673577,0.088520944,-0.13253021,0.0,0.0,0.0,0.0,0.0,0.0,0.0034510852,-0.011758519,-0.7727963
159131089,0.38873857,0.8179043,nan,3.0672948,0.0,0.09675212,0.115567595,-0.13253021,0.0,0.0,0.0,0.0,0.0,0.0,0.0015828474,-0.0053316914,-0.76832366
159230179,0.38873857,0.8179043,nan,3.0672948,0.0,0.10425916,0.13811707,-0.13253021,0.0,0.0,0.0,0.0,0.0,0.0,0.012105657,-0.009745192,-0.7668904
159331125,0.38873857,0.8179043,nan,3.0672948,0.0,0.113147184,0.1618675,-0.13253021,0.0,0.0,0.0,0.0,0.0,0.0,0.00751977,-0.0039316043,-0.7652955
159430314,0.38873857,0.8179043,nan,3.0672948,0.0,0.121469215,0.18260574,-0.13253021,0.0,0.0,0.0,0.0,0.0,0.0,0.010232337,-0.00247892,-0.75896263
159531220,0.38873857,0.8179043,nan,3.0672948,0.0,0.12960917,0.20132923,-0.13253021,0.0,0.0,0.0,0.0,0.0,0.0,0.013717278,-0.0060272105,-0.7528014
159630736,0.38873857,0.8179043,nan,3.0672948,0.0,0.13577445,0.2143469,-0.13253021,0.0,0.0,0.0,0.0,0.0,0.0,0.014864799,-0.0047973283,-0.7512839
159730802,0.38873857,0.8179043,nan,3.0672948,0.0,0.14011215,0.22367118,-0.13253021,0.0,0.0,0.0,0.0,0.0,0.0,0.011730871,-0.005652521,-0.74478906
159830948,0.38873857,0.8179043,nan,3.0672948,0.0,0.1418037,0.22833829,-0.13253021,0.0,0.0,0.0,0.0,0.0,0.0,0.00987842,-0.007835202,-0.74251187
159930921,0.38873857,0.8179043,nan,3.0672948,0.0,0.14160457,0.22873743,-0.13253021,0.0,0.0,0.0,0.0,0.0,0.0,0.012106195,-0.008742904,-0.73959816
160031106,0.38873857,0.8179043,nan,3.0672948,0.0,0.1388036,0.22486216,-0.13253021,0.0,0.0,0.0,0.0,0.0,0.0,0.0056931814,-0.015684532,-0.739264
160131039,0.38873857,0.8179043,nan,3.0672948,0.0,0.13323362,0.21731928,-0.13253021,0.0,0.0,0.0,0.0,0.0,0.0,0.006149539,-0.015803745,-0.74340844
160251209,0.38873857,0.8179043,nan,3.0672948,0.0,0.12525192,0.20624071,-0.13253021,0.0,0.0,0.0,0.0,0.0,0.0,0.004453825,-0.016312856,-0.7487559
160351400,0.38873857,0.8179043,nan,3.0672948,0.0,0.11809287,0.19605477,-0.13253021,0.0,0.0,0.0,0.0,0.0,0.0,0.005091494,-0.020307466,-0.7528726
160451401,0.38873857,0.8179043,nan,3.0672948,0.0,0.11002369,0.18414932,-0.13253021,0.0,0.0,0.0,0.0,0.0,0.0,0.0014561501,-0.026586378,-0.75552064
160551639,0.38873857,0.8179043,nan,3.0672948,0.0,0.10261102,0.17235757,-0.13253021,0.0,0.0,0.0,0.0,0.0,0.0,0.0025053404,-0.024121515,-0.75693417
160651717,0.38873857,0.8179043,nan,3.0672948,0.0,0.094433665,0.16044317,-0.13253021,0.0,0.0,0.0,0.0,0.0,0.0,0.0043752007,-0.022801802,-0.7554638
160751982,0.38873857,0.8179043,nan,3.0672948,0.0,0.08731162,0.14863569,-0.13253021,0.0,0.0,0.0,0.0,0.0,0.0,0.003244753,-0.02860818,-0.7555401
160852222,0.38873857,0.8179043,nan,3.0672948,0.0,0.08106722,0.14005838,-0.13253021,0.0,0.0,0.0,0.0,0.0,0.0,-0.0009402161,-0.024734737,-0.75453734
160952601,0.38873857,0.8179043,nan,3.0672948,0.0,0.0735341,0.13151847,-0.13253021,0.0,0.0,0.0,0.0,0.0,0.0,-0.001261684,-0.024663238,-0.7490027
161052155,0.38873857,0.8179043,nan,3.0672948,0.0,0.066521935,0.12571412,-0.13253021,0.0,0.0,0.0,0.0,0.0,0.0,0.00050504203,-0.021144513,-0.74167293
161152380,0.38873857,0.8179043,nan,3.0672948,0.0,0.05912659,0.12183512,-0.13253021,0.0,0.0,0.0,0.0,0.0,0.0,-0.0024948795,-0.021443669,-0.7374152
161252312,0.38873857,0.8179043,nan,3.0672948,0.0,0.052720442,0.12042721,-0.13253021,0.0,0.0,0.0,0.0,0.0,0.0,-0.0009092444,-0.020212408,-0.736642
161352494,0.38873857,0.8179043,nan,3.0672948,0.0,0.04719755,0.120591365,-0.13253021,0.0,0.0,0.0,0.0,0.0,0.0,-0.0035526562,-0.020575538,-0.7382608
161472526,0.38873857,0.8179043,nan,3.0672948,0.0,0.043126766,0.1229957,-0.13253021,0.0,0.0,0.0,0.0,0.0,0.0,-0.0011002733,-0.019509425,-0.74102867
161572869,0.38873857,0.8179043,nan,3.0672948,0.0,0.04180082,0.12653495,-0.13253021,0.0,0.0,0.0,0.0,0.0,0.0,-0.0012318731,-0.02033261,-0.74116576
161672651,0.38873857,0.8179043,nan,3.0672948,0.0,0.04260381,0.12976922,-0.13253021,0.0,0.0,0.0,0.0,0.0,0.0,0.0033387148,-0.019683434,-0.742237
161772664,0.38873857,0.8179043,nan,3.0672948,0.0,0.04437307,0.13233499,-0.13253021,0.0,0.0,0.0,0.0,0.0,0.0,0.005670079,-0.016874954,-0.74329245
161872819,0.38873857,0.8179043,nan,3.0672948,0.0,0.045707423,0.13452533,-0.13253021,0.0,0.0,0.0,0.0,0.0,0.0,0.0018088536,-0.019217417,-0.74524957
161972880,0.38873857,0.8179043,nan,3.0672948,0.0,0.047053613,0.13583913,-0.13253021,0.0,0.0,0.0,0.0,0.0,0.0,0.0014665065,-0.019719228,-0.7503078
162073208,0.38873857,0.8179043,nan,3.0672948,0.0,0.047468245,0.1343592,-0.13253021,0.0,0.0,0.0,0.0,0.0,0.0,5.117699e-05,-0.024387058,-0.75497615
162173651,0.38873857,0.8179043,nan,3.0672948,0.0,0.046791952,0.12951458,-0.13253021,0.0,0.0,0.0,0.0,0.0,0.0,0.004487533,-0.017623365,-0.75775194
162273249,0.38873857,0.8179043,nan,3.0672948,0.0,0.045436364,0.12229503,-0.13253021,0.0,0.0,0.0,0.0,0.0,0.0,0.0001247389,-0.03047312,-0.7599545
162373338,0.38873857,0.8179043,nan,3.0672948,0.0,0.042931043,0.11176459,-0.13253021,0.0,0.0,0.0,0.0,0.0,0.0,-0.0028995909,-0.030155726,-0.7587332
162473412,0.38873857,0.8179043,nan,3.0672948,0.0,0.03931753,0.10101744,-0.13253021,0.0,0.0,0.0,0.0,0.0,0.0,-0.002895649,-0.02560489,-0.7569295
162593466,0.38873857,0.8179043,nan,3.0672948,0.0,0.03224953,0.086349964,-0.13253021,0.0,0.0,0.0,0.0,0.0,0.0,-0.0041551413,-0.029689869,-0.75392985
162693660,0.38873857,0.8179043,nan,3.0672948,0.0,0.024516756,0.073539875,-0.13253021,0.0,0.0,0.0,0.0,0.0,0.0,-0.00018294819,-0.029694032,-0.7520358
162793779,0.38873857,0.8179043,nan,3.0672948,0.0,0.016795395,0.061877005,-0.13253021,0.0,0.0,0.0,0.0,0.0,0.0,-0.0135394,-0.03426163,-0.7490208
162894347,0.38873857,0.8179043,nan,3.0672948,0.0,0.00797753,0.049343474,-0.13253021,0.0,0.0,0.0,0.0,0.0,0.0,-0.012209647,-0.03459781,-0.7516608
162994466,0.38873857,0.8179043,nan,3.0672948,0.0,0.0003931433,0.038245544,-0.13253021,0.0,0.0,0.0,0.0,0.0,0.0,-0.0059572873,-0.036056194,-0.7528188
163094859,0.38873857,0.8179043,nan,3.0672948,0.0,-0.006771232,0.026757639,-0.13253021,0.0,0.0,0.0,0.0,0.0,0.0,-0.0021187214,-0.03702106,-0.75445724
163194383,0.38873857,0.8179043,nan,3.0672948,0.0,-0.011979573,0.016552674,-0.13253021,0.0,0.0,0.0,0.0,0.0,0.0,-0.015824722,-0.03908799,-0.7482096
163294796,0.38873857,0.8179043,nan,3.0672948,0.0,-0.016697321,0.005568218,-0.13253021,0.0,0.0,0.0,0.0,0.0,0.0,-0.014108068,-0.035617325,-0.7460898
163394601,nan,nan,nan,3.0672948,0.0,-0.007285995,-0.097884215,-0.13253021,0.0,0.0,0.0,0.0,0.0,0.0,-0.004569687,-0.049991816,-0.7454123
163515407,nan,nan,nan,3.0672948,0.0,-0.024951302,-0.33521003,-0.13253021,0.0,0.0,0.0,0.0,0.0,0.0,-0.006964884,-0.06581305,-0.7471973
163614848,nan,nan,nan,3.0672948,0.0,-0.03438574,-0.46195766,-0.13253021,0.0,0.0,0.0,0.0,0.0,0.0,-0.002387466,-0.076030105,-0.7513468
163716847,nan,nan,nan,3.0672948,0.0,-0.03419082,-0.459339,-0.13253021,0.0,0.0,0.0,0.0,0.0,0.0,-0.004626447,-0.07044269,-0.75057685
163814944,nan,nan,nan,3.0672948,0.0,-0.049717776,-0.667937,-0.13253021,0.0,0.0,0.0,0.0,0.0,0.0,-0.0029418683,-0.08435576,-0.753894
163916672,nan,nan,nan,3.0672948,0.0,-0.050618958,-0.680044,-0.13253021,0.0,0.0,0.0,0.0,0.0,0.0,-0.0040028305,-0.08003811,-0.7615157
164015240,nan,nan,nan,3.0672948,0.0,-0.050886244,-0.6836348,-0.13253021,0.0,0.0,0.0,0.0,0.0,0.0,-0.0033622498,-0.07937729,-0.76922023
164115858,nan,nan,nan,3.0672948,0.0,-0.026896976,-0.3613493,-0.13253021,0.0,0.0,0.0,0.0,0.0,0.0,0.00027851528,-0.04288713,-0.7754375
164215288,nan,nan,nan,3.0672948,0.0,-0.014528936,-0.19519003,-0.13253021,0.0,0.0,0.0,0.0,0.0,0.0,0.0013111474,-0.029823644,-0.77401733
164315218,0.36638653,0.7350252,nan,3.0672948,0.0,0.0,0.0,-0.13253021,0.0,0.0,0.0,0.0,0.0,0.0,0.000362186,-0.002954729,-0.7659328
164417267,0.36638653,0.7350252,nan,3.0672948,0.0,0.0033767403,0.036424503,-0.13253021,0.0,0.0,0.0,0.0,0.0,0.0,0.0015523524,-0.003914792,-0.76288307
164515673,0.36638653,0.7350252,nan,3.0672948,0.0,0.0056419433,0.070593655,-0.13253021,0.0,0.0,0.0,0.0,0.0,0.0,0.0034063493,0.0012524687,-0.7610179
164615669,0.36638653,0.7350252,nan,3.0672948,0.0,0.008079284,0.10607615,-0.13253021,0.0,0.0,0.0,0.0,0.0,0.0,0.0033294966,-0.0041271485,-0.75475043
164715737,0.36638653,0.7350252,nan,3.0672948,0.0,0.010913902,0.13348985,-0.13253021,0.0,0.0,0.0,0.0,0.0,0.0,0.0020894534,-0.005645305,-0.75000286
164835753,0.36638653,0.7350252,nan,3.0672948,0.0,0.015751071,0.15685602,-0.13253021,0.0,0.0,0.0,0.0,0.0,0.0,0.004995505,-0.008539503,-0.75229514
164935827,0.36638653,0.7350252,nan,3.0672948,0.0,0.02097977,0.16529125,-0.13253021,0.0,0.0,0.0,0.0,0.0,0.0,0.009814456,-0.012759365,-0.7520668
165035913,0.36638653,0.7350252,nan,3.0672948,0.0,0.026471997,0.1624688,-0.13253021,0.0,0.0,0.0,0.0,0.0,0.0,0.0015087428,-0.019263577,-0.7586398
165135999,0.36638653,0.7350252,nan,3.0672948,0.0,0.032092195,0.15057343,-0.13253021,0.0,0.0,0.0,0.0,0.0,0.0,1.4975783e-05,-0.029210102,-0.76454204
165236178,0.36638653,0.7350252,nan,3.0672948,0.0,0.036360826,0.13365349,-0.13253021,0.0,0.0,0.0,0.0,0.0,0.0,0.0036419588,-0.029457938,-0.76274425
165336322,0.36638653,0.7350252,nan,3.0672948,0.0,0.03927118,0.11263694,-0.13253021,0.0,0.0,0.0,0.0,0.0,0.0,0.0004366883,-0.026347639,-0.76291466
165436666,0.36638653,0.7350252,nan,3.0672948,0.0,0.040814903,0.09265645,-0.13253021,0.0,0.0,0.0,0.0,0.0,0.0,-0.002791273,-0.030334381,-0.7643595
165536527,0.36638653,0.7350252,nan,3.0672948,0.0,0.040704034,0.07765546,-0.13253021,0.0,0.0,0.0,0.0,0.0,0.0,0.0051575694,-0.026945002,-0.76874274
165636739,0.36638653,0.7350252,nan,3.0672948,0.0,0.03953525,0.0658453,-0.13253021,0.0,0.0,0.0,0.0,0.0,0.0,0.0037454087,-0.03174579,-0.76810944
165736591,0.36638653,0.7350252,nan,3.0672948,0.0,0.038404036,0.06012935,-0.13253021,0.0,0.0,0.0,0.0,0.0,0.0,0.004864998,-0.02799993,-0.76522493
165836745,0.36638653,0.7350252,nan,3.0672948,0.0,0.036822658,0.06015534,-0.13253021,0.0,0.0,0.0,0.0,0.0,0.0,0.0034705496,-0.024902489,-0.761062
165936790,0.36638653,0.7350252,nan,3.0672948,0.0,0.03507316,0.06434702,-0.13253021,0.0,0.0,0.0,0.0,0.0,0.0,0.0025457551,-0.027878324,-0.75691223
166036977,0.36638653,0.7350252,nan,3.0672948,0.0,0.032952037,0.07261645,-0.13253021,0.0,0.0,0.0,0.0,0.0,0.0,0.0021275356,-0.022424627,-0.7581176
166137180,0.36638653,0.7350252,nan,3.0672948,0.0,0.03057738,0.08269984,-0.13253021,0.0,0.0,0.0,0.0,0.0,0.0,-0.0034812149,-0.019738417,-0.7549567
166237301,0.36638653,0.7350252,nan,3.0672948,0.0,0.027389737,0.09255039,-0.13253021,0.0,0.0,0.0,0.0,0.0,0.0,-0.006226792,-0.01942977,-0.7515974
166357459,0.36638653,0.7350252,nan,3.0672948,0.0,0.02166971,0.10315513,-0.13253021,0.0,0.0,0.0,0.0,0.0,0.0,-0.002601931,-0.014603695,-0.74835736
166457501,0.36638653,0.7350252,nan,3.0672948,0.0,0.015857214,0.11018227,-0.13253021,0.0,0.0,0.0,0.0,0.0,0.0,-0.008536835,-0.016501786,-0.7495052
166557535,0.36638653,0.7350252,nan,3.0672948,0.0,0.007525724,0.1142731,-0.13253021,0.0,0.0,0.0,0.0,0.0,0.0,-0.013592937,-0.02271675,-0.75311816
166657594,0.36638653,0.7350252,nan,3.0672948,0.0,-0.0014053329,0.115295514,-0.13253021,0.0,0.0,0.0,0.0,0.0,0.0,-0.010836108,-0.020739762,-0.7553781
166757600,0.36638653,0.7350252,nan,3.0672948,0.0,-0.012736925,0.11196504,-0.13253021,0.0,0.0,0.0,0.0,0.0,0.0,-0.0073319296,-0.029540746,-0.7586568
166857937,0.36638653,0.7350252,nan,3.0672948,0.0,-0.024672614,0.104525775,-0.13253021,0.0,0.0,0.0,0.0,0.0,0.0,-0.015654474,-0.03148252,-0.7564941
166958043,0.36638653,0.7350252,nan,3.0672948,0.0,-0.038018055,0.090928555,-0.13253021,0.0,0.0,0.0,0.0,0.0,0.0,-0.014118233,-0.03757066,-0.7571865
167058136,0.36638653,0.7350252,nan,3.0672948,0.0,-0.04974296,0.07438353,-0.13253021,0.0,0.0,0.0,0.0,0.0,0.0,-0.020150553,-0.04144661,-0.75798637
167158811,0.36638653,0.7350252,nan,3.0672948,0.0,-0.062405877,0.052401986,-0.13253021,0.0,0.0,0.0,0.0,0.0,0.0,-0.018012887,-0.04360502,-0.7524644
167258760,0.36638653,0.7350252,nan,3.0672948,0.0,-0.07289569,0.030386584,-0.13253021,0.0,0.0,0.0,0.0,0.0,0.0,-0.021595746,-0.04669996,-0.7492405
167358930,0.36638653,0.7350252,nan,3.0672948,0.0,-0.08258504,0.004875079,-0.13253021,0.0,0.0,0.0,0.0,0.0,0.0,-0.02522472,-0.04734205,-0.7505443
167478724,0.36638653,0.7350252,nan,3.0672948,0.0,-0.09143506,-0.023575177,-0.13253021,0.0,0.0,0.0,0.0,0.0,0.0,-0.01804617,-0.049637794,-0.7527326
167578773,0.36638653,0.7350252,nan,3.0672948,0.0,-0.09705917,-0.044278253,-0.13253021,0.0,0.0,0.0,0.0,0.0,0.0,-0.020746483,-0.05242567,-0.7503396
167678738,0.36638653,0.7350252,nan,3.0672948,0.0,-0.10220007,-0.064655565,-0.13253021,0.0,0.0,0.0,0.0,0.0,0.0,-0.014187485,-0.057684153,-0.7562089
167778944,0.36638653,0.7350252,nan,3.0672948,0.0,-0.104737215,-0.080078185,-0.13253021,0.0,0.0,0.0,0.0,0.0,0.0,-0.014997879,-0.0556869,-0.76722467
167878986,0.36638653,0.7350252,nan,3.0672948,0.0,-0.104622066,-0.09455999,-0.13253021,0.0,0.0,0.0,0.0,0.0,0.0,-0.019452762,-0.055967346,-0.76728976
167979827,0.36638653,0.7350252,nan,3.0672948,0.0,-0.10251946,-0.10656323,-0.13253021,0.0,0.0,0.0,0.0,0.0,0.0,-0.020377696,-0.056105524,-0.7725713
168079226,0.36638653,0.7350252,nan,3.0672948,0.0,-0.09947343,-0.11714566,-0.13253021,0.0,0.0,0.0,0.0,0.0,0.0,-0.011000149,-0.061281808,-0.7762418
168179165,0.36638653,0.7350252,nan,3.0672948,0.0,-0.095799215,-0.12695889,-0.13253021,0.0,0.0,0.0,0.0,0.0,0.0,-0.014963422,-0.058774114,-0.7733455
168279253,0.36638653,0.7350252,nan,3.0672948,0.0,-0.091872625,-0.13447188,-0.13253021,0.0,0.0,0.0,0.0,0.0,0.0,-0.0069335727,-0.06154616,-0.7721121
168379507,0.36638653,0.7350252,nan,3.0672948,0.0,-0.08753129,-0.14135559,-0.13253021,0.0,0.0,0.0,0.0,0.0,0.0,-0.01620048,-0.051847238,-0.7696672
168479634,0.36638653,0.7350252,nan,3.0672948,0.0,-0.0830679,-0.14602059,-0.13253021,0.0,0.0,0.0,0.0,0.0,0.0,-0.0074318885,-0.057158597,-0.770175
168579755,0.36638653,0.7350252,nan,3.0672948,0.0,-0.07848444,-0.14822431,-0.13253021,0.0,0.0,0.0,0.0,0.0,0.0,-0.017585695,-0.04817256,-0.76494455
168699710,0.36638653,0.7350252,nan,3.0672948,0.0,-0.075051665,-0.14727268,-0.13253021,0.0,0.0,0.0,0.0,0.0,0.0,-0.013859834,-0.04438929,-0.7666253
168799773,0.36638653,0.7350252,nan,3.0672948,0.0,-0.07342711,-0.14488482,-0.13253021,0.0,0.0,0.0,0.0,0.0,0.0,-0.01045312,-0.050710324,-0.7736552
168899822,0.36638653,0.7350252,nan,3.0672948,0.0,-0.07164262,-0.1415287,-0.13253021,0.0,0.0,0.0,0.0,0.0,0.0,-0.010501575,-0.04936958,-0.7780316
168999861,0.36638653,0.7350252,nan,3.0672948,0.0,-0.06908841,-0.13833779,-0.13253021,0.0,0.0,0.0,0.0,0.0,0.0,-0.008149431,-0.053797245,-0.78572136
169099990,0.36638653,0.7350252,nan,3.0672948,0.0,-0.066177204,-0.1351772,-0.13253021,0.0,0.0,0.0,0.0,0.0,0.0,-0.012230048,-0.048950333,-0.782539
169200177,0.36638653,0.7350252,nan,3.0672948,0.0,-0.06308299,-0.13174275,-0.13253021,0.0,0.0,0.0,0.0,0.0,0.0,-0.0003085374,-0.04516137,-0.7806915
169300554,0.36638653,0.7350252,nan,3.0672948,0.0,-0.059144508,-0.12615624,-0.13253021,0.0,0.0,0.0,0.0,0.0,0.0,-0.0035547516,-0.04804921,-0.7752313
169400731,0.36638653,0.7350252,nan,3.0672948,0.0,-0.05505518,-0.11954886,-0.13253021,0.0,0.0,0.0,0.0,0.0,0.0,-0.004873157,-0.040847745,-0.77265
169500693,0.36638653,0.7350252,nan,3.0672948,0.0,-0.04911242,-0.10771447,-0.13253021,0.0,0.0,0.0,0.0,0.0,0.0,-0.007951426,-0.023932368,-0.7700764
169600727,0.36638653,0.7350252,nan,3.0672948,0.0,-0.041201875,-0.09418101,-0.13253021,0.0,0.0,0.0,0.0,0.0,0.0,-0.0032912705,-0.0255598,-0.774882
169700794,0.36638653,0.7350252,nan,3.0672948,0.0,-0.030917551,-0.07680512,-0.12415218,0.0,0.0,0.0,0.0,0.0,0.0,0.0036604553,-0.02193083,-0.7727393
169800778,0.36638653,0.7350252,nan,3.0672948,0.0,-0.020497924,-0.05624514,-0.12455113,0.0,0.0,0.0,0.0,0.0,0.0,-0.0029794464,-0.017290639,-0.76633686
169900848,0.36638653,0.7350252,nan,3.0672948,0.0,-0.008452892,-0.03226153,-0.12449908,0.0,0.0,0.0,0.0,0.0,0.0,0.011440018,-0.027436204,-0.7745402
170000956,0.36638653,0.7350252,nan,3.0672948,0.0,0.00462562,-0.008477127,-0.12449789,0.0,0.0,0.0,0.0,0.0,0.0,0.0073925774,-0.014121814,-0.7738086
170121175,0.36638653,0.7350252,nan,3.0672948,0.0,0.023584465,0.022874506,-0.12449789,0.0,0.0,0.0,0.0,0.0,0.0,0.0060057547,-0.013879117,-0.7732579
170221239,0.36638653,0.7350252,nan,3.0672948,0.0,0.038544152,0.044799138,-0.12449789,0.0,0.0,0.0,0.0,0.0,0.0,0.01433138,-0.008634407,-0.77573514
170321347,0.36638653,0.7350252,nan,3.0672948,0.0,0.054356858,0.066759616,-0.11890736,0.0,0.0,0.0,0.0,0.0,0.0,0.010243277,-0.012221552,-0.77250755
170421377,0.36638653,0.7350252,-0.82225317,3.0672948,0.0,0.06689797,0.08341116,-0.00014489889,0.0,0.0,0.0,0.0,0.0,0.0,0.010381345,-0.009292519,-0.74948406
170521402,0.36638653,0.7350252,-0.82225317,3.0672948,0.0,0.07768045,0.09738119,-0.0025081038,0.0,0.0,0.0,0.0,0.0,0.0,0.012953838,-0.01588699,-0.7598106
170621523,0.36638653,0.7350252,-0.82225317,3.0672948,0.0,0.08534083,0.1055359,-0.008227825,0.0,0.0,0.0,0.0,0.0,0.0,0.010047355,-0.015266009,-0.76380193
170721647,0.36638653,0.7350252,-0.82225317,3.0672948,0.0,0.09100877,0.109108955,-0.01682055,0.0,0.0,0.0,0.0,0.0,0.0,0.009801819,-0.020346735,-0.76809955
170821779,0.36638653,0.7350252,-0.82225317,3.0672948,0.0,0.09374378,0.107329704,-0.026507795,0.0,0.0,0.0,0.0,0.0,0.0,0.006451954,-0.021519382,-0.7704948
170921905,0.36638653,0.7350252,-0.82225317,3.0672948,0.0,0.09363022,0.10018127,-0.038417935,0.0,0.0,0.0,0.0,0.0,0.0,0.0068325996,-0.03317267,-0.77812386
171021981,0.36638653,0.7350252,-0.82225317,3.0672948,0.0,0.09101018,0.08942003,-0.05088246,0.0,0.0,0.0,0.0,0.0,0.0,0.0056409994,-0.031891722,-0.78384495
171122047,0.36638653,0.7350252,-0.82225317,3.0672948,0.0,0.08510468,0.07397289,-0.063518524,0.0,0.0,0.0,0.0,0.0,0.0,-0.0020903198,-0.03949649,-0.7840909
171222137,0.36638653,0.7350252,-0.82225317,3.0672948,0.0,0.077584535,0.057463247,-0.073753715,0.0,0.0,0.0,0.0,0.0,0.0,0.00081695593,-0.041311488,-0.78387654
171342225,0.36638653,0.7350252,-0.82225317,3.0672948,0.0,0.066287935,0.035113025,-0.08305788,0.0,0.0,0.0,0.0,0.0,0.0,-0.0055638254,-0.044387303,-0.78050566
171442298,0.36638653,0.7350252,-0.82225317,3.0672948,0.0,0.054399922,0.016019613,-0.08483589,0.0,0.0,0.0,0.0,0.0,0.0,-0.008937889,-0.04626497,-0.77158713
171542400,0.36638653,0.7350252,-0.82225317,3.0672948,0.0,0.042165395,-0.0005995959,-0.08104718,0.0,0.0,0.0,0.0,0.0,0.0,-0.012211397,-0.04987575,-0.7643739
171642568,0.36638653,0.7350252,-0.82225317,3.0672948,0.0,0.027499335,-0.017654698,-0.07299918,0.0,0.0,0.0,0.0,0.0,0.0,-0.010082168,-0.047235675,-0.75924057
171742742,0.36638653,0.7350252,-0.82225317,3.0672948,0.0,0.012961951,-0.03196114,-0.063702166,0.0,0.0,0.0,0.0,0.0,0.0,-0.01648394,-0.05691249,-0.7555245
171842968,0.36638653,0.7350252,-0.82225317,3.0672948,0.0,-0.0025135577,-0.04859558,-0.054706633,0.0,0.0,0.0,0.0,0.0,0.0,-0.015735192,-0.05776155,-0.7551222
171943239,0.36638653,0.7350252,-0.82225317,3.0672948,0.0,-0.016904397,-0.06480081,-0.048137784,0.0,0.0,0.0,0.0,0.0,0.0,-0.017528562,-0.06239328,-0.75880605
172042977,0.36638653,0.7350252,-0.82225317,3.0672948,0.0,-0.028421378,-0.080308534,-0.044359446,0.0,0.0,0.0,0.0,0.0,0.0,-0.015724594,-0.066383764,-0.7564424
172143147,0.36638653,0.7350252,-0.82225317,3.0672948,0.0,-0.038515445,-0.098554336,-0.043032944,0.0,0.0,0.0,0.0,0.0,0.0,-0.012163254,-0.060334038,-0.75956
172243116,0.36638653,0.7350252,-0.82225317,3.0672948,0.0,-0.046365287,-0.11553413,-0.042764485,0.0,0.0,0.0,0.0,0.0,0.0,-0.015163977,-0.066954166,-0.75786227
172343267,0.36638653,0.7350252,-0.82225317,3.0672948,0.0,-0.05354781,-0.1350593,-0.04389131,0.0,0.0,0.0,0.0,0.0,0.0,-0.016418489,-0.06511285,-0.75968766
172443408,0.36638653,0.7350252,-0.82225317,3.0672948,0.0,-0.058692336,-0.15055633,-0.045267105,0.0,0.0,0.0,0.0,0.0,0.0,-0.014832426,-0.0642151,-0.7597515
172543571,0.36638653,0.7350252,-0.82225317,3.0672948,0.0,-0.062883,-0.16419715,-0.04592818,0.0,0.0,0.0,0.0,0.0,0.0,-0.01474685,-0.05741835,-0.75784576
172643742,0.36638653,0.7350252,-0.82225317,3.0672948,0.0,-0.06413997,-0.17102079,-0.044724345,0.0,0.0,0.0,0.0,0.0,0.0,-0.013981886,-0.054585606,-0.75155544
172763982,0.36638653,0.7350252,-0.82225317,3.0672948,0.0,-0.062140733,-0.1730249,-0.038993895,0.0,0.0,0.0,0.0,0.0,0.0,-0.012519684,-0.04592626,-0.748671
172863793,0.36638653,0.7350252,-0.82225317,3.0672948,0.0,-0.05809291,-0.16649088,-0.031404912,0.0,0.0,0.0,0.0,0.0,0.0,-0.0060960213,-0.04228428,-0.7401616
172963842,0.36638653,0.7350252,-0.82225317,3.0672948,0.0,-0.05181632,-0.15030406,-0.02085185,0.0,0.0,0.0,0.0,0.0,0.0,-0.0044981227,-0.035702847,-0.74112165
173063918,0.36638653,0.7350252,-0.82225317,3.0672948,0.0,-0.04449294,-0.12756093,-0.011615992,0.0,0.0,0.0,0.0,0.0,0.0,-0.0046164286,-0.02863978,-0.73808455
173164220,0.36638653,0.7350252,-0.82225317,3.0672948,0.0,-0.036337752,-0.09641184,-0.0018539429,0.0,0.0,0.0,0.0,0.0,0.0,-0.0027070013,-0.017606126,-0.7385607
173264334,0.36638653,0.7350252,-0.82225317,3.0672948,0.0,-0.029638775,-0.06383462,0.006521344,0.0,0.0,0.0,0.0,0.0,0.0,-0.002919111,-0.016741998,-0.73493516
173364391,0.36638653,0.7350252,-0.82225317,3.0672948,0.0,-0.023252815,-0.0261504,0.014028013,0.0,0.0,0.0,0.0,0.0,0.0,-0.0038799765,-0.0033307932,-0.73573214
173464477,0.36638653,0.7350252,-0.82225317,3.0672948,0.0,-0.019315975,0.008783522,0.019944966,0.0,0.0,0.0,0.0,0.0,0.0,-0.008687359,-0.0042626895,-0.73562515
173564550,0.36638653,0.7350252,-0.82225317,3.0672948,0.0,-0.01767701,0.044912614,0.024054587,0.0,0.0,0.0,0.0,0.0,0.0,-0.008269642,-0.0054929294,-0.7347606
173664781,0.36638653,0.7350252,-0.82225317,3.0672948,0.0,-0.01839056,0.07531913,0.02595222,0.0,0.0,0.0,0.0,0.0,0.0,-0.00742443,0.0020726062,-0.7380925
173764772,0.36638653,0.7350252,-0.82225317,3.0672948,0.0,-0.02080412,0.10381146,0.025185168,0.0,0.0,0.0,0.0,0.0,0.0,-0.0049983864,-0.008154137,-0.7496515
173864790,0.36638653,0.7350252,-0.82225317,3.0672948,0.0,-0.022542376,0.1250502,0.018842041,0.0,0.0,0.0,0.0,0.0,0.0,-0.006528394,0.0021551661,-0.7592859
173984959,0.36638653,0.7350252,-0.82225317,3.0672948,0.0,-0.024050143,0.14591986,0.005875528,0.0,0.0,0.0,0.0,0.0,0.0,-0.0058440226,-0.0047211796,-0.7700452
174085233,0.36638653,0.7350252,-0.82225317,3.0672948,0.0,-0.024124179,0.15871404,-0.010088146,0.0,0.0,0.0,0.0,0.0,0.0,-0.0054201623,0.0018467046,-0.78151596
174185467,0.36638653,0.7350252,-0.82225317,3.0672948,0.0,-0.02239838,0.16786171,-0.030385852,0.0,0.0,0.0,0.0,0.0,0.0,-0.007883107,-0.0061129164,-0.7923228
174285313,0.36638653,0.7350252,-0.82225317,3.0672948,0.0,-0.019486498,0.17321362,-0.049824655,0.0,0.0,0.0,0.0,0.0,0.0,-0.0010843044,-0.0018104762,-0.7969929
174385533,0.36638653,0.7350252,-0.82225317,3.0672948,0.0,-0.0145777,0.1764446,-0.068918645,0.0,0.0,0.0,0.0,0.0,0.0,0.0017624209,-0.0059909057,-0.7986928
174485433,0.36638653,0.7350252,-0.82225317,3.0672948,0.0,-0.0078010885,0.17866349,-0.08390874,0.0,0.0,0.0,0.0,0.0,0.0,-0.002096805,-0.009573199,-0.7962413
174585476,0.36638653,0.7350252,-0.82225317,3.0672948,0.0,0.0006439894,0.17991228,-0.09344512,0.0,0.0,0.0,0.0,0.0,0.0,0.0026202784,-0.009155903,-0.7901743
174685565,0.36638653,0.7350252,-0.82225317,3.0672948,0.0,0.008501249,0.18123017,-0.09422231,0.0,0.0,0.0,0.0,0.0,0.0,0.0037040766,-0.008803416,-0.7768403
174785774,0.36638653,0.7350252,-0.82225317,3.0672948,0.0,0.016084928,0.18315941,-0.0880146,0.0,0.0,0.0,0.0,0.0,0.0,0.003367031,-0.013132757,-0.76966316
174885818,0.36638653,0.7350252,-0.82225317,3.0672948,0.0,0.022750188,0.18465294,-0.07946622,0.0,0.0,0.0,0.0,0.0,0.0,0.0055637285,-0.017049108,-0.76853436
174985981,0.36638653,0.7350252,-0.82225317,3.0672948,0.0,0.02991598,0.18453793,-0.07175517,0.0,0.0,0.0,0.0,0.0,0.0,-0.0021639967,-0.0069410857,-0.7707062
175086147,0.36638653,0.7350252,-0.82225317,3.0672948,0.0,0.035692744,0.18468176,-0.067237556,0.0,0.0,0.0,0.0,0.0,0.0,0.0024423585,-0.013840224,-0.77176815
175186150,0.36638653,0.7350252,-0.82225317,3.0672948,0.0,0.04139955,0.18165219,-0.06714213,0.0,0.0,0.0,0.0,0.0,0.0,0.004714091,-0.021649925,-0.77936316
175306182,0.36638653,0.7350252,-0.82225317,3.0672948,0.0,0.04699223,0.17404407,-0.07414633,0.0,0.0,0.0,0.0,0.0,0.0,0.0014451575,-0.0232055,-0.7832337
175406342,0.36638653,0.7350252,-0.82225317,3.0672948,0.0,0.050521377,0.16465904,-0.08338308,0.0,0.0,0.0,0.0,0.0,0.0,0.007710984,-0.031213146,-0.7920733
175506369,0.36638653,0.7350252,-0.82225317,3.0672948,0.0,0.05332771,0.15075734,-0.09491503,0.0,0.0,0.0,0.0,0.0,0.0,-0.006526115,-0.030681858,-0.7888479
175606448,0.36638653,0.7350252,-0.82225317,3.0672948,0.0,0.05468259,0.13311198,-0.104902744,0.0,0.0,0.0,0.0,0.0,0.0,0.00084346905,-0.03838352,-0.7901298
175707184,0.36638653,0.7350252,-0.82225317,3.0672948,0.0,0.055564772,0.11063691,-0.111412644,0.0,0.0,0.0,0.0,0.0,0.0,0.00011536828,-0.046060823,-0.7854446
175807270,0.36638653,0.7350252,-0.82225317,3.0672948,0.0,0.05629078,0.0860836,-0.11171633,0.0,0.0,0.0,0.0,0.0,0.0,0.0030614648,-0.044966538,-0.7747419
175907193,0.36638653,0.7350252,-0.82225317,3.0672948,0.0,0.057580147,0.05794308,-0.10361576,0.0,0.0,0.0,0.0,0.0,0.0,-0.002472526,-0.049208328,-0.7595286
176007101,0.36638653,0.7350252,-0.82225317,3.0672948,0.0,0.05949173,0.030632222,-0.08785772,0.0,0.0,0.0,0.0,0.0,0.0,0.0044407914,-0.051510423,-0.74689883
176107399,0.36638653,0.7350252,-0.82225317,3.0672948,0.0,0.061484117,0.0015795946,-0.06323975,0.0,0.0,0.0,0.0,0.0,0.0,-0.002794145,-0.059323125,-0.731697
176207126,0.36638653,0.7350252,-0.82225317,3.0672948,0.0,0.06280856,-0.024203936,-0.03731036,0.0,0.0,0.0,0.0,0.0,0.0,0.0014997527,-0.054302093,-0.72432
176307389,0.36638653,0.7350252,-0.82225317,3.0672948,0.0,0.063728794,-0.04826495,-0.010171115,0.0,0.0,0.0,0.0,0.0,0.0,-0.003197223,-0.058149457,-0.7219443
176427612,0.36638653,0.7350252,-0.82225317,3.0672948,0.0,0.06199031,-0.07134421,0.01592958,0.0,0.0,0.0,0.0,0.0,0.0,-0.00801239,-0.05359705,-0.71895623
176527508,0.36638653,0.7350252,-0.82225317,3.0672948,0.0,0.056453574,-0.0862319,0.03256136,0.0,0.0,0.0,0.0,0.0,0.0,-0.011795465,-0.052311808,-0.72157586
176627750,0.36638653,0.7350252,-0.82225317,3.0672948,0.0,0.047954507,-0.09593478,0.041118562,0.0,0.0,0.0,0.0,0.0,0.0,-0.007314842,-0.054859206,-0.7321154
176727796,0.36638653,0.7350252,-0.82225317,3.0672948,0.0,0.03598821,-0.10306373,0.042259753,0.0,0.0,0.0,0.0,0.0,0.0,-0.018884867,-0.047852132,-0.7416549
176827746,0.36638653,0.7350252,-0.82225317,3.0672948,0.0,0.02225127,-0.10570441,0.037802696,0.0,0.0,0.0,0.0,0.0,0.0,-0.0123335635,-0.049752265,-0.7456934
176927880,0.36638653,0.7350252,-0.82225317,3.0672948,0.0,0.0041802404,-0.10486535,0.030095696,0.0,0.0,0.0,0.0,0.0,0.0,-0.021187963,-0.04159473,-0.7491084
177028022,0.36638653,0.7350252,-0.82225317,3.0672948,0.0,-0.01433028,-0.101345696,0.02163434,0.0,0.0,0.0,0.0,0.0,0.0,-0.020287208,-0.044040788,-0.75607926
177128034,0.36638653,0.7350252,-0.82225317,3.0672948,0.0,-0.03481368,-0.096659906,0.011817694,0.0,0.0,0.0,0.0,0.0,0.0,-0.027703607,-0.039449185,-0.7614577
177228401,0.36638653,0.7350252,-0.82225317,3.0672948,0.0,-0.053347785,-0.09094356,0.003880024,0.0,0.0,0.0,0.0,0.0,0.0,-0.024190672,-0.039581668,-0.766021
177328367,0.36638653,0.7350252,-0.82225317,3.0672948,0.0,-0.07206161,-0.08522863,-0.0032261014,0.0,0.0,0.0,0.0,0.0,0.0,-0.025500566,-0.038308073,-0.7650099
177428496,0.36638653,0.7350252,-0.82225317,3.0672948,0.0,-0.08628581,-0.080699585,-0.0079574585,0.0,0.0,0.0,0.0,0.0,0.0,-0.021719806,-0.034500938,-0.7636807
177528516,0.36638653,0.7350252,-0.82225317,3.0672948,0.0,-0.09773976,-0.07595649,-0.008661687,0.0,0.0,0.0,0.0,0.0,0.0,-0.020304637,-0.035935603,-0.75769925
177628536,0.36638653,0.7350252,-0.82225317,3.0672948,0.0,-0.10552741,-0.07098136,-0.004968226,0.0,0.0,0.0,0.0,0.0,0.0,-0.020717472,-0.031387743,-0.7516949
177748589,0.36638653,0.7350252,-0.82225317,3.0672948,0.0,-0.111370705,-0.0606777,0.003198564,0.0,0.0,0.0,0.0,0.0,0.0,-0.020888887,-0.024875816,-0.74859315
177848759,0.36638653,0.7350252,-0.82225317,3.0672948,0.0,-0.11356569,-0.047371585,0.011986613,0.0,0.0,0.0,0.0,0.0,0.0,-0.021418862,-0.018765537,-0.74502313
177948789,0.36638653,0.7350252,-0.82225317,3.0672948,0.0,-0.11470195,-0.030842807,0.021291316,0.0,0.0,0.0,0.0,0.0,0.0,-0.015732447,-0.013529675,-0.7409563
178048979,0.36638653,0.7350252,-0.82225317,3.0672948,0.0,-0.114849396,-0.008532336,0.030050218,0.0,0.0,0.0,0.0,0.0,0.0,-0.010467744,-0.0077328384,-0.7403318
178149382,0.36638653,0.7350252,-0.82225317,3.0672948,0.0,-0.11480883,0.01635562,0.035252154,0.0,0.0,0.0,0.0,0.0,0.0,-0.017694784,-0.007096108,-0.7448418
178249308,0.36638653,0.7350252,-0.82225317,3.0672948,0.0,-0.115209475,0.043867838,0.038060367,0.0,0.0,0.0,0.0,0.0,0.0,-0.01967337,-0.004374124,-0.7438847
178349440,0.36638653,0.7350252,-0.82225317,3.0672948,0.0,-0.11747479,0.074277185,0.038520455,0.0,0.0,0.0,0.0,0.0,0.0,-0.024197826,0.0014048032,-0.74617994
178450355,0.36638653,0.7350252,-0.82225317,3.0672948,0.0,-0.121747725,0.1029686,0.03565365,0.0,0.0,0.0,0.0,0.0,0.0,-0.020983696,0.0016306527,-0.75652635
178549476,0.36638653,0.7350252,-0.82225317,3.0672948,0.0,-0.127518,0.12608133,0.028769672,0.0,0.0,0.0,0.0,0.0,0.0,-0.026187055,0.0041081645,-0.76227415
178650350,0.36638653,0.7350252,-0.82225317,3.0672948,0.0,-0.13421446,0.14794543,0.016734362,0.0,0.0,0.0,0.0,0.0,0.0,-0.026497427,0.0043553934,-0.7734375
178749631,0.36638653,0.7350252,-0.82225317,3.0672948,0.0,-0.14062327,0.16282757,0.0027601123,0.0,0.0,0.0,0.0,0.0,0.0,-0.029286144,0.006757211,-0.7811848
178850391,0.36638653,0.7350252,-0.82225317,3.0672948,0.0,-0.14704715,0.1756175,-0.0142501,0.0,0.0,0.0,0.0,0.0,0.0,-0.020847198,-0.00075153634,-0.78842306
178970777,0.36638653,0.7350252,-0.82225317,3.0672948,0.0,-0.1529106,0.18564846,-0.035500407,0.0,0.0,0.0,0.0,0.0,0.0,-0.021606993,-0.0055741537,-0.79648685
179070115,0.36638653,0.7350252,-0.82225317,3.0672948,0.0,-0.15571843,0.18988629,-0.052858174,0.0,0.0,0.0,0.0,0.0,0.0,-0.020360684,-0.0111956075,-0.8044201
179170198,0.36638653,0.7350252,-0.82225317,3.0672948,0.0,-0.15642108,0.19025819,-0.07185626,0.0,0.0,0.0,0.0,0.0,0.0,-0.028477337,-0.0038012303,-0.80931866
179270302,0.36638653,0.7350252,-0.82225317,3.0672948,0.0,-0.15477411,0.18766525,-0.090480566,0.0,0.0,0.0,0.0,0.0,0.0,-0.022437647,-0.008838123,-0.8145529
179370309,0.36638653,0.7350252,-0.82225317,3.0672948,0.0,-0.15021108,0.18145077,-0.110298276,0.0,0.0,0.0,0.0,0.0,0.0,-0.020814413,-0.019446682,-0.8240345
179470424,0.36638653,0.7350252,-0.82225317,3.0672948,0.0,-0.14384322,0.17039362,-0.12959099,0.0,0.0,0.0,0.0,0.0,0.0,-0.021223944,-0.017118592,-0.83396465
179570409,0.36638653,0.7350252,-0.82225317,3.0672948,0.0,-0.13525455,0.15580331,-0.15350688,0.0,0.0,0.0,0.0,0.0,0.0,-0.011423725,-0.028604321,-0.84507954
179670767,0.36638653,0.7350252,-0.82225317,3.0672948,0.0,-0.12694825,0.13769647,-0.17779595,0.0,0.0,0.0,0.0,0.0,0.0,-0.014341902,-0.031325396,-0.8566299
179790822,0.36638653,0.7350252,-0.82225317,3.0672948,0.0,-0.115034245,0.111824945,-0.21357518,0.0,0.0,0.0,0.0,0.0,0.0,-0.016199516,-0.036469445,-0.8691935
179890848,0.36638653,0.7350252,-0.82225317,3.0672948,0.0,-0.10331681,0.08652369,-0.24994016,0.0,0.0,0.0,0.0,0.0,0.0,-0.010234153,-0.04268906,-0.8904409
179991004,0.36638653,0.7350252,-0.82225317,3.0672948,0.0,-0.09213262,0.062102485,-0.28646553,0.0,0.0,0.0,0.0,0.0,0.0,-0.0077438266,-0.045197316,-0.90289414
180091031,0.36638653,0.7350252,-0.82225317,3.0672948,0.0,-0.07908018,0.035985492,-0.32702565,0.0,0.0,0.0,0.0,0.0,0.0,-0.012501426,-0.044853315,-0.9039331
180191124,0.36638653,0.7350252,-0.82225317,3.0672948,0.0,-0.06665194,0.012955269,-0.3610529,0.0,0.0,0.0,0.0,0.0,0.0,-0.009061755,-0.048873726,-0.9048728
180291590,0.36638653,0.7350252,-0.82225317,3.0672948,0.0,-0.053589713,-0.010581687,-0.38949808,0.0,0.0,0.0,0.0,0.0,0.0,-0.010366332,-0.04607839,-0.8980344
180391360,0.36638653,0.7350252,-0.82225317,3.0672948,0.0,-0.0420184,-0.03058511,-0.40606168,0.0,0.0,0.0,0.0,0.0,0.0,-0.013283444,-0.05087372,-0.8829979
180491668,0.36638653,0.7350252,-0.82225317,3.0672948,0.0,-0.031072194,-0.050438818,-0.41041866,0.0,0.0,0.0,0.0,0.0,0.0,-0.012683194,-0.056137946,-0.86821425
180591666,0.36638653,0.7350252,-0.82225317,3.0672948,0.0,-0.021961467,-0.0684793,-0.40311858,0.0,0.0,0.0,0.0,0.0,0.0,-0.0024961838,-0.058805596,-0.84967345
180711814,0.36638653,0.7350252,-0.82225317,3.0672948,0.0,-0.010411785,-0.09061027,-0.37958822,0.0,0.0,0.0,0.0,0.0,0.0,-0.0035577286,-0.062222354,-0.82265115
180812024,0.36638653,0.7350252,-0.82225317,3.0672948,0.0,-0.00034489928,-0.11068827,-0.3479245,0.0,0.0,0.0,0.0,0.0,0.0,-0.0042218757,-0.062610544,-0.79920197
180914479,0.36638653,0.7350252,-0.82225317,3.0672948,0.0,0.009001271,-0.13187678,-0.30791652,0.0,0.0,0.0,0.0,0.0,0.0,-0.0021551447,-0.06519358,-0.77537286
181011854,0.36638653,0.7350252,-0.82225317,3.0672948,0.0,0.01680624,-0.15020752,-0.26581568,0.0,0.0,0.0,0.0,0.0,0.0,-0.0054351385,-0.065542966,-0.75304407
181112187,0.36638653,0.7350252,-0.82225317,3.0672948,0.0,0.024845773,-0.16862473,-0.21952796,0.0,0.0,0.0,0.0,0.0,0.0,0.0018957779,-0.06084162,-0.73947656
181212925,0.36638653,0.7350252,-0.82225317,3.0672948,0.0,0.033364747,-0.18514925,-0.1710223,0.0,0.0,0.0,0.0,0.0,0.0,0.0036236495,-0.061732534,-0.72258395
181312597,0.36638653,0.7350252,-0.82225317,3.0672948,0.0,0.040823482,-0.19743052,-0.1270858,0.0,0.0,0.0,0.0,0.0,0.0,0.004262248,-0.057898715,-0.7118618
181412491,0.36638653,0.7350252,-0.82225317,3.0672948,0.0,0.048141,-0.20569111,-0.08282298,0.0,0.0,0.0,0.0,0.0,0.0,0.0064905006,-0.06178502,-0.70533526
181512595,0.36638653,0.7350252,-0.82225317,3.0672948,0.0,0.053370092,-0.2099405,-0.048423827,0.0,0.0,0.0,0.0,0.0,0.0,0.0042511374,-0.06168697,-0.709016
181612640,0.36638653,0.7350252,-0.82225317,3.0672948,0.0,0.05759804,-0.20879567,-0.02183342,0.0,0.0,0.0,0.0,0.0,0.0,-0.0021193656,-0.047031615,-0.7182096
181712688,0.36638653,0.7350252,-0.82225317,3.0672948,0.0,0.0593406,-0.20318402,-0.0079879165,0.0,0.0,0.0,0.0,0.0,0.0,-0.0037742113,-0.041300733,-0.73057616
181812689,0.36638653,0.7350252,-0.82225317,3.0672948,0.0,0.058954705,-0.19177641,-0.004048705,0.0,0.0,0.0,0.0,0.0,0.0,-0.004432333,-0.04375213,-0.7428161
181912839,0.36638653,0.7350252,-0.82225317,3.0672948,0.0,0.056482766,-0.17666607,-0.008675456,0.0,0.0,0.0,0.0,0.0,0.0,-0.0053811483,-0.02955721,-0.75619483
182033000,0.36638653,0.7350252,-0.82225317,3.0672948,0.0,0.049747944,-0.1499817,-0.021984398,0.0,0.0,0.0,0.0,0.0,0.0,-0.0060598347,-0.033267234,-0.7742181
182133773,0.36638653,0.7350252,-0.82225317,3.0672948,0.0,0.040800296,-0.12193048,-0.03639239,0.0,0.0,0.0,0.0,0.0,0.0,-0.014579761,-0.010029139,-0.77807105
182233521,0.36638653,0.7350252,-0.82225317,3.0672948,0.0,0.030763391,-0.09147317,-0.04902363,0.0,0.0,0.0,0.0,0.0,0.0,-0.015707634,-0.012045354,-0.7821209
182333969,0.36638653,0.7350252,-0.82225317,3.0672948,0.0,0.0190884,-0.057094563,-0.059945524,0.0,0.0,0.0,0.0,0.0,0.0,-0.008735725,-0.014157614,-0.78879166
182433569,0.36638653,0.7350252,-0.82225317,3.0672948,0.0,0.00888151,-0.022486687,-0.066625535,0.0,0.0,0.0,0.0,0.0,0.0,-0.014637661,-0.0023889728,-0.7885215
182534006,0.36638653,0.7350252,-0.82225317,3.0672948,0.0,-0.0005210295,0.014107689,-0.06916517,0.0,0.0,0.0,0.0,0.0,0.0,-0.015731046,-0.0020214878,-0.7836592
182633640,0.36638653,0.7350252,-0.82225317,3.0672948,0.0,-0.007210071,0.04532569,-0.06562483,0.0,0.0,0.0,0.0,0.0,0.0,-0.014174951,-0.00019387528,-0.77663076
182734003,0.36638653,0.7350252,-0.82225317,3.0672948,0.0,-0.011759701,0.07389786,-0.0556612,0.0,0.0,0.0,0.0,0.0,0.0,-0.010627408,-0.00586967,-0.7658288
182833801,0.36638653,0.7350252,-0.82225317,3.0672948,0.0,-0.013483235,0.0947793,-0.040407658,0.0,0.0,0.0,0.0,0.0,0.0,-0.0140160145,-0.003333114,-0.75409627
182934029,0.36638653,0.7350252,-0.82225317,3.0672948,0.0,-0.013135731,0.11149194,-0.02131188,0.0,0.0,0.0,0.0,0.0,0.0,-0.009500683,-0.008073488,-0.7517132
183034596,0.36638653,0.7350252,-0.82225317,3.0672948,0.0,-0.010723191,0.12203722,-0.0026080012,0.0,0.0,0.0,0.0,0.0,0.0,-0.013082867,-0.012608163,-0.7500994
183154246,0.36638653,0.7350252,-0.82225317,3.0672948,0.0,-0.007467146,0.12804677,0.014844656,0.0,0.0,0.0,0.0,0.0,0.0,-0.0073501132,-0.010117823,-0.7508827
183254273,0.36638653,0.7350252,-0.82225317,3.0672948,0.0,-0.0050687906,0.12919612,0.023427904,0.0,0.0,0.0,0.0,0.0,0.0,-0.009386796,-0.01471865,-0.7576543
183354579,0.36638653,0.7350252,-0.82225317,3.0672948,0.0,-0.0035091564,0.12593909,0.02698046,0.0,0.0,0.0,0.0,0.0,0.0,-0.005206304,-0.014031026,-0.7637407
183454387,0.36638653,0.7350252,-0.82225317,3.0672948,0.0,-0.003045374,0.120994985,0.02438265,0.0,0.0,0.0,0.0,0.0,0.0,-0.014417195,-0.02301515,-0.7698125
183554586,0.36638653,0.7350252,-0.82225317,3.0672948,0.0,-0.0041699917,0.11205501,0.016209304,0.0,0.0,0.0,0.0,0.0,0.0,-0.015615122,-0.029409902,-0.78013337
183654713,0.36638653,0.7350252,-0.82225317,3.0672948,0.0,-0.006904186,0.10230576,0.0057585835,0.0,0.0,0.0,0.0,0.0,0.0,-0.011640843,-0.02857013,-0.7838755
183755037,0.36638653,0.7350252,-0.82225317,3.0672948,0.0,-0.011445719,0.09028791,-0.0077958107,0.0,0.0,0.0,0.0,0.0,0.0,-0.016995158,-0.02845212,-0.7898797
183854946,0.36638653,0.7350252,-0.82225317,3.0672948,0.0,-0.017032057,0.07783722,-0.02034527,0.0,0.0,0.0,0.0,0.0,0.0,-0.014148487,-0.031728186,-0.7946064
183955254,0.36638653,0.7350252,-0.82225317,3.0672948,0.0,-0.024502033,0.063298106,-0.032399952,0.0,0.0,0.0,0.0,0.0,0.0,-0.018643057,-0.040265325,-0.79703414
184054956,0.36638653,0.7350252,-0.82225317,3.0672948,0.0,-0.032820698,0.048001874,-0.042092383,0.0,0.0,0.0,0.0,0.0,0.0,-0.021463,-0.04433628,-0.7968397
184155041,0.36638653,0.7350252,-0.82225317,3.0672948,0.0,-0.042712077,0.033085812,-0.049609125,0.0,0.0,0.0,0.0,0.0,0.0,-0.020321477,-0.04194613,-0.7992964
184255144,0.36638653,0.7350252,-0.82225317,3.0672948,0.0,-0.055074006,0.017963415,-0.055170536,0.0,0.0,0.0,0.0,0.0,0.0,-0.025045305,-0.041429047,-0.79515725
184375377,0.36638653,0.7350252,-0.82225317,3.0672948,0.0,-0.07005145,0.0024699003,-0.056681395,0.0,0.0,0.0,0.0,0.0,0.0,-0.02605316,-0.046016827,-0.78863853
184475419,0.36638653,0.7350252,-0.82225317,3.0672948,0.0,-0.081804805,-0.008430866,-0.053700387,0.0,0.0,0.0,0.0,0.0,0.0,-0.025180545,-0.04356375,-0.782504
184575791,0.36638653,0.7350252,-0.82225317,3.0672948,0.0,-0.09393718,-0.018444836,-0.046153188,0.0,0.0,0.0,0.0,0.0,0.0,-0.027414734,-0.04611302,-0.77178323
184676304,0.36638653,0.7350252,-0.82225317,3.0672948,0.0,-0.10385455,-0.02647061,-0.036646128,0.0,0.0,0.0,0.0,0.0,0.0,-0.0267096,-0.044800974,-0.767066
184775949,0.36638653,0.7350252,-0.82225317,3.0672948,0.0,-0.113149926,-0.03225587,-0.023757994,0.0,0.0,0.0,0.0,0.0,0.0,-0.031227227,-0.041291714,-0.75941193
184875915,0.36638653,0.7350252,-0.82225317,3.0672948,0.0,-0.11934419,-0.035854917,-0.010660052,0.0,0.0,0.0,0.0,0.0,0.0,-0.02344075,-0.03763033,-0.7544199
184975847,0.36638653,0.7350252,-0.82225317,3.0672948,0.0,-0.12321806,-0.036982875,0.004286468,0.0,0.0,0.0,0.0,0.0,0.0,-0.023749016,-0.03791131,-0.74757534
185075960,0.36638653,0.7350252,-0.82225317,3.0672948,0.0,-0.123933904,-0.036126826,0.019193769,0.0,0.0,0.0,0.0,0.0,0.0,-0.022808395,-0.03354637,-0.74344623
185176209,0.36638653,0.7350252,-0.82225317,3.0672948,0.0,-0.12130376,-0.033299968,0.031298578,0.0,0.0,0.0,0.0,0.0,0.0,-0.017163273,-0.031859536,-0.7441971
185276330,0.36638653,0.7350252,-0.82225317,3.0672948,0.0,-0.11604055,-0.02830343,0.041838825,0.0,0.0,0.0,0.0,0.0,0.0,-0.011869173,-0.02791428,-0.7468418
185396362,0.36638653,0.7350252,-0.82225317,3.0672948,0.0,-0.107494965,-0.019848669,0.04886663,0.0,0.0,0.0,0.0,0.0,0.0,-0.010146439,-0.033630632,-0.7495469
185496458,0.36638653,0.7350252,-0.82225317,3.0672948,0.0,-0.09921466,-0.012370282,0.050760686,0.0,0.0,0.0,0.0,0.0,0.0,-0.011936785,-0.033913806,-0.7533481
185596560,0.36638653,0.7350252,-0.82225317,3.0672948,0.0,-0.089026086,-0.0036457062,0.048650622,0.0,0.0,0.0,0.0,0.0,0.0,-0.015701447,-0.02725918,-0.7585637
185696603,0.36638653,0.7350252,-0.82225317,3.0672948,0.0,-0.079813495,0.004425028,0.041907072,0.0,0.0,0.0,0.0,0.0,0.0,-0.010987537,-0.026555141,-0.77082396
185796721,0.36638653,0.7350252,-0.82225317,3.0672948,0.0,-0.071375154,0.014365783,0.029627979,0.0,0.0,0.0,0.0,0.0,0.0,-0.01639277,-0.0139724165,-0.7847584
185896744,0.36638653,0.7350252,-0.82225317,3.0672948,0.0,-0.06481213,0.023175862,0.012451589,0.0,0.0,0.0,0.0,0.0,0.0,-0.0150911845,-0.021710925,-0.7949915
185996946,0.36638653,0.7350252,-0.82225317,3.0672948,0.0,-0.058920644,0.032824267,-0.010655284,0.0,0.0,0.0,0.0,0.0,0.0,-0.01602846,-0.017593276,-0.80966717
186097073,0.36638653,0.7350252,-0.82225317,3.0672948,0.0,-0.05505487,0.04244764,-0.033117175,0.0,0.0,0.0,0.0,0.0,0.0,-0.01303374,-0.019707533,-0.81330734
186197198,0.36638653,0.7350252,-0.82225317,3.0672948,0.0,-0.052807644,0.053331703,-0.05734968,0.0,0.0,0.0,0.0,0.0,0.0,-0.016477844,-0.01857819,-0.8226063
186297251,0.36638653,0.7350252,-0.82225317,3.0672948,0.0,-0.05195035,0.06470335,-0.07904488,0.0,0.0,0.0,0.0,0.0,0.0,-0.015379623,-0.013448207,-0.8278923
186397301,0.36638653,0.7350252,-0.82225317,3.0672948,0.0,-0.05095373,0.07592807,-0.10191029,0.0,0.0,0.0,0.0,0.0,0.0,-0.012047108,-0.018007312,-0.83450943
186497438,0.36638653,0.7350252,-0.82225317,3.0672948,0.0,-0.049207576,0.08566939,-0.12050563,0.0,0.0,0.0,0.0,0.0,0.0,-0.014770526,-0.01195989,-0.8361554
186597457,0.36638653,0.7350252,-0.82225317,3.0672948,0.0,-0.04577376,0.094006486,-0.13636148,0.0,0.0,0.0,0.0,0.0,0.0,-0.0073689064,-0.017351221,-0.83280903
186717581,0.36638653,0.7350252,-0.82225317,3.0672948,0.0,-0.039959166,0.09895127,-0.1479575,0.0,0.0,0.0,0.0,0.0,0.0,-0.0065653725,-0.017091716,-0.82565224
186817780,0.36638653,0.7350252,-0.82225317,3.0672948,0.0,-0.034111906,0.099914566,-0.15245843,0.0,0.0,0.0,0.0,0.0,0.0,-0.01438531,-0.019723147,-0.82115185
186918005,0.36638653,0.7350252,-0.82225317,3.0672948,0.0,-0.026359456,0.098234974,-0.1537776,0.0,0.0,0.0,0.0,0.0,0.0,-0.016479418,-0.017669912,-0.81561506
187018335,0.36638653,0.7350252,-0.82225317,3.0672948,0.0,-0.017668685,0.09419001,-0.15107656,0.0,0.0,0.0,0.0,0.0,0.0,-0.0077649215,-0.017156687,-0.8133544
187118132,0.36638653,0.7350252,-0.82225317,3.0672948,0.0,-0.0074528484,0.08850509,-0.14820391,0.0,0.0,0.0,0.0,0.0,0.0,-0.007368803,-0.018970529,-0.8118231
187219817,0.36638653,0.7350252,-0.82225317,3.0672948,0.0,0.0060397577,0.082878776,-0.14571673,0.0,0.0,0.0,0.0,0.0,0.0,-0.0053395033,-0.017057706,-0.8073399
187318177,0.36638653,0.7350252,-0.82225317,3.0672948,0.0,0.018939393,0.07860244,-0.14163542,0.0,0.0,0.0,0.0,0.0,0.0,0.00074396096,-0.026156938,-0.80174875
187419671,0.36638653,0.7350252,-0.82225317,3.0672948,0.0,0.031335242,0.07537208,-0.135454,0.0,0.0,0.0,0.0,0.0,0.0,-0.0023516165,-0.024394054,-0.7964414
187518382,0.36638653,0.7350252,-0.82225317,3.0672948,0.0,0.04051185,0.07416575,-0.12976432,0.0,0.0,0.0,0.0,0.0,0.0,0.0010069339,-0.027625132,-0.797591
187618616,0.36638653,0.7350252,-0.82225317,3.0672948,0.0,0.047850996,0.073469214,-0.1247645,0.0,0.0,0.0,0.0,0.0,0.0,-0.010309463,-0.016806472,-0.7962353
187718972,0.36638653,0.7350252,-0.82225317,3.0672948,0.0,0.05202464,0.07339373,-0.12243676,0.0,0.0,0.0,0.0,0.0,0.0,-0.00798683,-0.01693206,-0.8004094
187818852,0.36638653,0.7350252,-0.82225317,3.0672948,0.0,0.054530952,0.07314175,-0.123637855,0.0,0.0,0.0,0.0,0.0,0.0,-0.0034311628,-0.031352077,-0.8059453
187918916,0.36638653,0.7350252,-0.82225317,3.0672948,0.0,0.05391731,0.07110163,-0.12680793,0.0,0.0,0.0,0.0,0.0,0.0,-0.005730678,-0.026619352,-0.8089218
188019048,0.36638653,0.7350252,-0.82225317,3.0672948,0.0,0.050193295,0.06782721,-0.13233161,0.0,0.0,0.0,0.0,0.0,0.0,-0.0029933602,-0.030509323,-0.8131702
188119067,0.36638653,0.7350252,-0.82225317,3.0672948,0.0,0.04500344,0.061691333,-0.13923049,0.0,0.0,0.0,0.0,0.0,0.0,-0.00832206,-0.035657823,-0.81737125
189039973,0.36638653,0.7350252,-0.82225317,3.0672948,0.0,0.04735941,-0.12738653,-0.0526641,0.0,0.0,0.0,0.0,0.0,0.0,-0.0031221882,-0.058752455,-0.74921
189139989,0.36638653,0.7350252,-0.82225317,3.0672948,0.0,0.049682826,-0.14351949,-0.029195786,0.0,0.0,0.0,0.0,0.0,0.0,-0.0071142213,-0.061265543,-0.7446201
189240199,0.36638653,0.7350252,-0.82225317,3.0672948,0.0,0.05143422,-0.15660104,-0.008333743,0.0,0.0,0.0,0.0,0.0,0.0,-0.0012359405,-0.057879753,-0.74960345
189360438,0.36638653,0.7350252,-0.82225317,3.0672948,0.0,0.05202195,-0.16347106,0.009251714,0.0,0.0,0.0,0.0,0.0,0.0,-0.0032808566,-0.055206116,-0.7521602
189461581,0.36638653,0.7350252,-0.82225317,3.0672948,0.0,0.05168597,-0.16270582,0.018965542,0.0,0.0,0.0,0.0,0.0,0.0,-0.0052291793,-0.04809963,-0.7503568
189560771,0.36638653,0.7350252,-0.82225317,3.0672948,0.0,0.050644506,-0.15545796,0.024657428,0.0,0.0,0.0,0.0,0.0,0.0,-0.003979683,-0.037140686,-0.7539302
189661550,0.36638653,0.7350252,-0.82225317,3.0672948,0.0,0.049276996,-0.14083889,0.027622819,0.0,0.0,0.0,0.0,0.0,0.0,0.001173636,-0.032101154,-0.76187974
189760602,0.36638653,0.7350252,-0.82225317,3.0672948,0.0,0.048756335,-0.12180098,0.027077973,0.0,0.0,0.0,0.0,0.0,0.0,-0.0061280704,-0.025918502,-0.76689845
189861160,0.36638653,0.7350252,-0.82225317,3.0672948,0.0,0.04991572,-0.095871754,0.023634851,0.0,0.0,0.0,0.0,0.0,0.0,0.005757033,-0.019039022,-0.7726203
189960939,0.36638653,0.7350252,-0.82225317,3.0672948,0.0,0.052747253,-0.06677111,0.018890738,0.0,0.0,0.0,0.0,0.0,0.0,-0.0031635095,-0.012608536,-0.7780753
190060983,0.36638653,0.7350252,-0.82225317,3.0672948,0.0,0.05725532,-0.032130275,0.012288153,0.0,0.0,0.0,0.0,0.0,0.0,0.0037733782,-0.008107444,-0.7841624
190161282,0.36638653,0.7350252,-0.82225317,3.0672948,0.0,0.062458538,0.0018995792,0.003477633,0.0,0.0,0.0,0.0,0.0,0.0,0.0028680582,-0.007896317,-0.7945261
190261271,0.36638653,0.7350252,-0.82225317,3.0672948,0.0,0.06769938,0.036940295,-0.0076910853,0.0,0.0,0.0,0.0,0.0,0.0,0.0022006026,-0.008542417,-0.80052924
190381785,0.36638653,0.7350252,-0.82225317,3.0672948,0.0,0.07177124,0.07360262,-0.021716535,0.0,0.0,0.0,0.0,0.0,0.0,-0.007461969,-0.0005440824,-0.800732
190481370,0.36638653,0.7350252,-0.82225317,3.0672948,0.0,0.07324014,0.09542771,-0.033078074,0.0,0.0,0.0,0.0,0.0,0.0,-0.007003671,-0.009813106,-0.8085724
190581489,0.36638653,0.7350252,-0.82225317,3.0672948,0.0,0.0724908,0.10841955,-0.046316206,0.0,0.0,0.0,0.0,0.0,0.0,0.0029917583,-0.01168883,-0.8200345
190681509,0.36638653,0.7350252,-0.82225317,3.0672948,0.0,0.07006238,0.11234023,-0.059621394,0.0,0.0,0.0,0.0,0.0,0.0,-0.011346642,-0.021789331,-0.81941056
190782179,0.36638653,0.7350252,-0.82225317,3.0672948,0.0,0.06560272,0.10673656,-0.07286799,0.0,0.0,0.0,0.0,0.0,0.0,-0.009023333,-0.027257735,-0.82199275
190881779,0.36638653,0.7350252,-0.82225317,3.0672948,0.0,0.06013487,0.09405405,-0.08370203,0.0,0.0,0.0,0.0,0.0,0.0,-0.007312466,-0.025954233,-0.82256365
190982258,0.36638653,0.7350252,-0.82225317,3.0672948,0.0,0.05329317,0.07487763,-0.09426206,0.0,0.0,0.0,0.0,0.0,0.0,-0.010105073,-0.03935106,-0.82282615
191082324,0.36638653,0.7350252,-0.82225317,3.0672948,0.0,0.04632695,0.05358793,-0.102755666,0.0,0.0,0.0,0.0,0.0,0.0,-0.008886036,-0.03862517,-0.82753474
191182394,0.36638653,0.7350252,-0.82225317,3.0672948,0.0,0.038561054,0.03006224,-0.11221737,0.0,0.0,0.0,0.0,0.0,0.0,-0.011917378,-0.031573057,-0.83111393
191282441,0.36638653,0.7350252,-0.82225317,3.0672948,0.0,0.032493353,0.010106891,-0.1226272,0.0,0.0,0.0,0.0,0.0,0.0,-0.008466393,-0.043354135,-0.8352129
191382415,0.36638653,0.7350252,-0.82225317,3.0672948,0.0,0.028417386,-0.007438126,-0.13404924,0.0,0.0,0.0,0.0,0.0,0.0,-0.005016526,-0.04060121,-0.8348192
191482381,0.36638653,0.7350252,-0.82225317,3.0672948,0.0,0.026435332,-0.01788969,-0.14188862,0.0,0.0,0.0,0.0,0.0,0.0,-0.0077958405,-0.038308404,-0.82930154
191582442,0.36638653,0.7350252,-0.82225317,3.0672948,0.0,0.026947472,-0.0238754,-0.14724767,0.0,0.0,0.0,0.0,0.0,0.0,-0.002300106,-0.03604135,-0.82942545
191683166,0.36638653,0.7350252,-0.82225317,3.0672948,0.0,0.03036569,-0.024448948,-0.15104318,0.0,0.0,0.0,0.0,0.0,0.0,0.00015937164,-0.033950485,-0.8285459
191803580,0.36638653,0.7350252,-0.82225317,3.0672948,0.0,0.036657315,-0.020943105,-0.1543178,0.0,0.0,0.0,0.0,0.0,0.0,-0.00065173674,-0.028071683,-0.8256698
191902920,0.36638653,0.7350252,-0.82225317,3.0672948,0.0,0.04293314,-0.012576056,-0.15636629,0.0,0.0,0.0,0.0,0.0,0.0,0.0016013691,-0.032081187,-0.82708627
192003772,0.36638653,0.7350252,-0.82225317,3.0672948,0.0,0.04986238,-0.0015125513,-0.15840584,0.0,0.0,0.0,0.0,0.0,0.0,0.002204094,-0.032709483,-0.82464707
192102996,0.36638653,0.7350252,-0.82225317,3.0672948,0.0,0.05606247,0.0105867265,-0.16024178,0.0,0.0,0.0,0.0,0.0,0.0,-0.0006088377,-0.025654156,-0.82412255
192203603,0.36638653,0.7350252,-0.82225317,3.0672948,0.0,0.061213907,0.022724906,-0.16222322,0.0,0.0,0.0,0.0,0.0,0.0,-0.0057564573,-0.025882661,-0.8240582
192303210,0.36638653,0.7350252,-0.82225317,3.0672948,0.0,0.06348794,0.03361293,-0.16439754,0.0,0.0,0.0,0.0,0.0,0.0,0.00036289077,-0.017947704,-0.82364094
192403366,0.36638653,0.7350252,-0.82225317,3.0672948,0.0,0.062231842,0.043349836,-0.16574353,0.0,0.0,0.0,0.0,0.0,0.0,0.0009905747,-0.03384339,-0.8235409
192503794,0.36638653,0.7350252,-0.82225317,3.0672948,0.0,0.058040816,0.049116354,-0.16746223,0.0,0.0,0.0,0.0,0.0,0.0,-0.0030246382,-0.024901943,-0.8276026
192623594,0.36638653,0.7350252,-0.82225317,3.0672948,0.0,0.050350823,0.050518658,-0.17309713,0.0,0.0,0.0,0.0,0.0,0.0,-0.007285027,-0.03431502,-0.83312213
192723669,0.36638653,0.7350252,-0.82225317,3.0672948,0.0,0.04304296,0.045996178,-0.17860174,0.0,0.0,0.0,0.0,0.0,0.0,-0.008025524,-0.036846697,-0.8262076
192823764,0.36638653,0.7350252,-0.82225317,3.0672948,0.0,0.034374557,0.038054436,-0.17348903,0.0,0.0,0.0,0.0,0.0,0.0,-0.01014539,-0.036353827,-0.7997805
192923807,0.36638653,0.7350252,-0.82225317,3.0672948,0.0,0.030293353,0.024116563,-0.16940337,0.0,0.0,0.0,0.0,0.0,0.0,0.0090503665,-0.054915197,-0.8442879
193023849,0.36638653,0.7350252,-0.82225317,3.0672948,0.0,0.03027863,0.0061840084,-0.17508537,0.0,0.0,0.0,0.0,0.0,0.0,-0.013268489,-0.04398796,-0.823037
193124004,0.36638653,0.7350252,-0.82225317,3.0672948,0.0,0.031454947,-0.015418544,-0.1708045,0.0,0.0,0.0,0.0,0.0,0.0,-6.271433e-05,-0.05292686,-0.8203707
193224056,0.36638653,0.7350252,-0.82225317,3.0672948,0.0,0.03490139,-0.037063677,-0.16978341,0.0,0.0,0.0,0.0,0.0,0.0,-0.0012312685,-0.053724766,-0.82022786
193324708,0.36638653,0.7350252,-0.82225317,3.0672948,0.0,0.038985793,-0.05999385,-0.1648885,0.0,0.0,0.0,0.0,0.0,0.0,-0.00089637795,-0.05286239,-0.8146781
193424862,0.36638653,0.7350252,-0.82225317,3.0672948,0.0,0.04670053,-0.0801022,-0.15948361,0.0,0.0,0.0,0.0,0.0,0.0,0.0007471978,-0.053368837,-0.8101895
193524593,0.36638653,0.7350252,-0.82225317,3.0672948,0.0,0.055283148,-0.095767625,-0.14976263,0.0,0.0,0.0,0.0,0.0,0.0,0.001259164,-0.053932887,-0.80195457
193645148,0.36638653,0.7350252,-0.82225317,3.0672948,0.0,0.06804573,-0.11004071,-0.13286698,0.0,0.0,0.0,0.0,0.0,0.0,0.005234098,-0.055040464,-0.78277224
193744723,0.36638653,0.7350252,-0.82225317,3.0672948,0.0,0.07899219,-0.11693258,-0.11267388,0.0,0.0,0.0,0.0,0.0,0.0,0.011052065,-0.048077397,-0.7712203
193844972,0.36638653,0.7350252,-0.82225317,3.0672948,0.0,0.09043748,-0.11861127,-0.08222318,0.0,0.0,0.0,0.0,0.0,0.0,0.0067414315,-0.04797345,-0.75045633
193946824,0.36638653,0.7350252,-0.82225317,3.0672948,0.0,0.1006335,-0.11490226,-0.04645455,0.0,0.0,0.0,0.0,0.0,0.0,0.0120071415,-0.039359592,-0.73858917
194044996,0.36638653,0.7350252,-0.82225317,3.0672948,0.0,0.10958825,-0.10666278,-0.013987303,0.0,0.0,0.0,0.0,0.0,0.0,0.01478965,-0.040676966,-0.74202615
194146719,0.36638653,0.7350252,-0.82225317,3.0672948,0.0,0.11912394,-0.09190227,0.015975058,0.0,0.0,0.0,0.0,0.0,0.0,0.013098872,-0.031155113,-0.7412787
194245211,0.36638653,0.7350252,-0.82225317,3.0672948,0.0,0.1272626,-0.07421977,0.03557825,0.0,0.0,0.0,0.0,0.0,0.0,0.018226495,-0.024238478,-0.7480631
194345889,0.36638653,0.7350252,-0.82225317,3.0672948,0.0,0.13658553,-0.05099549,0.0481326,0.0,0.0,0.0,0.0,0.0,0.0,0.014336586,-0.024361633,-0.75808847
194445438,0.36638653,0.7350252,-0.82225317,3.0672948,0.0,0.14593206,-0.028290065,0.051787496,0.0,0.0,0.0,0.0,0.0,0.0,0.022306891,-0.013985228,-0.7626041
194546949,0.36638653,0.7350252,-0.82225317,3.0672948,0.0,0.15820195,-0.0029852956,0.04850638,0.0,0.0,0.0,0.0,0.0,0.0,0.024798563,-0.012449266,-0.7743253
194645594,0.36638653,0.7350252,-0.82225317,3.0672948,0.0,0.17115481,0.021007488,0.042384088,0.0,0.0,0.0,0.0,0.0,0.0,0.029214365,-0.016038073,-0.7766415
194745596,0.36638653,0.7350252,-0.82225317,3.0672948,0.0,0.18683907,0.046554495,0.035571814,0.0,0.0,0.0,0.0,0.0,0.0,0.033484858,-0.007289082,-0.7809637
194845967,0.36638653,0.7350252,-0.82225317,3.0672948,0.0,0.2039731,0.070698746,0.03051269,0.0,0.0,0.0,0.0,0.0,0.0,0.03523544,-0.0009258501,-0.78083134
194945950,0.36638653,0.7350252,-0.82225317,3.0672948,0.0,0.22527494,0.09652322,0.026617765,0.0,0.0,0.0,0.0,0.0,0.0,0.045611557,-0.003632998,-0.7864171
195046063,0.36638653,0.7350252,-0.82225317,3.0672948,0.0,0.24696709,0.11960854,0.025551975,0.0,0.0,0.0,0.0,0.0,0.0,0.038432524,0.0053487495,-0.78077257
195166104,0.36638653,0.7350252,-0.82225317,3.0672948,0.0,0.27536732,0.14615865,0.025823236,0.0,0.0,0.0,0.0,0.0,0.0,0.04360725,0.005871564,-0.7840837
195266138,0.36638653,0.7350252,-0.82225317,3.0672948,0.0,0.30044183,0.16590013,0.026583076,0.0,0.0,0.0,0.0,0.0,0.0,0.051143255,0.006129995,-0.7850786
195366207,0.36638653,0.7350252,-0.82225317,3.0672948,0.0,0.32326734,0.18056035,0.027928174,0.0,0.0,0.0,0.0,0.0,0.0,0.055219352,0.002867125,-0.78612167
195466362,0.36638653,0.7350252,-0.82225317,3.0672948,0.0,0.3471378,0.1912733,0.030198872,0.0,0.0,0.0,0.0,0.0,0.0,0.056803014,-0.003122352,-0.78242826
195566439,0.36638653,0.7350252,-0.82225317,3.0672948,0.0,0.36890405,0.19755034,0.033430338,0.0,0.0,0.0,0.0,0.0,0.0,0.060250804,-0.0018046033,-0.7767994
195666824,0.36638653,0.7350252,-0.82225317,3.0672948,0.0,0.3904308,0.20144723,0.038364053,0.0,0.0,0.0,0.0,0.0,0.0,0.059327405,-0.005038634,-0.77338386
195767126,0.36638653,0.7350252,-0.82225317,3.0672948,0.0,0.40894252,0.20163693,0.045616806,0.0,0.0,0.0,0.0,0.0,0.0,0.061537974,-0.010575579,-0.7695309
195866882,0.36638653,0.7350252,-0.82225317,3.0672948,0.0,0.42324197,0.1981517,0.05387962,0.0,0.0,0.0,0.0,0.0,0.0,0.06390339,-0.015372493,-0.76478255
195967193,0.36638653,0.7350252,-0.82225317,3.0672948,0.0,0.43664652,0.19091849,0.06312382,0.0,0.0,0.0,0.0,0.0,0.0,0.06323175,-0.012048874,-0.7613987
196066976,0.36638653,0.7350252,-0.82225317,3.0672948,0.0,0.44788182,0.18059655,0.07071149,0.0,0.0,0.0,0.0,0.0,0.0,0.066955216,-0.01721627,-0.76098704
196167160,0.36638653,0.7350252,-0.82225317,3.0672948,0.0,0.46080565,0.16609582,0.077735424,0.0,0.0,0.0,0.0,0.0,0.0,0.06817697,-0.022342715,-0.76212674
196287196,0.36638653,0.7350252,-0.82225317,3.0672948,0.0,0.47828057,0.1464617,0.082126975,0.0,0.0,0.0,0.0,0.0,0.0,0.073108636,-0.03271812,-0.7654216
196387221,0.36638653,0.7350252,-0.82225317,3.0672948,0.0,0.49469674,0.12776755,0.08215195,0.0,0.0,0.0,0.0,0.0,0.0,0.07778095,-0.02903435,-0.77194977
196487495,0.36638653,0.7350252,-0.82225317,3.0672948,0.0,0.5126144,0.108972944,0.078460395,0.0,0.0,0.0,0.0,0.0,0.0,0.081955016,-0.030281438,-0.77841634
196587606,0.36638653,0.7350252,-0.82225317,3.0672948,0.0,0.5334952,0.08946017,0.07023239,0.0,0.0,0.0,0.0,0.0,0.0,0.08539108,-0.034467507,-0.7841735
196687719,0.36638653,0.7350252,-0.82225317,3.0672948,0.0,0.5513452,0.07299906,0.0623883,0.0,0.0,0.0,0.0,0.0,0.0,0.085239604,-0.03457199,-0.78171325
196787742,0.36638653,0.7350252,-0.82225317,3.0672948,0.0,0.56803,0.05668047,0.053854644,0.0,0.0,0.0,0.0,0.0,0.0,0.08218906,-0.036449444,-0.78605604
196887769,0.36638653,0.7350252,-0.82225317,3.0672948,0.0,0.58066136,0.04298359,0.04576981,0.0,0.0,0.0,0.0,0.0,0.0,0.08650573,-0.035967603,-0.7928183
196987826,0.36638653,0.7350252,-0.82225317,3.0672948,0.0,0.59155184,0.030663138,0.037874162,0.0,0.0,0.0,0.0,0.0,0.0,0.0821883,-0.036181204,-0.79175806
197087948,0.36638653,0.7350252,-0.82225317,3.0672948,0.0,0.5987634,0.022506561,0.031731606,0.0,0.0,0.0,0.0,0.0,0.0,0.079010405,-0.033605464,-0.7909979
197188069,0.36638653,0.7350252,-0.82225317,3.0672948,0.0,0.6024022,0.01836375,0.026751041,0.0,0.0,0.0,0.0,0.0,0.0,0.076650985,-0.025797332,-0.79112446
197288545,0.36638653,0.7350252,-0.82225317,3.0672948,0.0,0.6003848,0.018256502,0.024309158,0.0,0.0,0.0,0.0,0.0,0.0,0.07402556,-0.029950993,-0.78925014
197388587,0.36638653,0.7350252,-0.82225317,3.0672948,0.0,0.5925361,0.019913446,0.021570146,0.0,0.0,0.0,0.0,0.0,0.0,0.0668776,-0.028694224,-0.7894809
197488713,0.36638653,0.7350252,-0.82225317,3.0672948,0.0,0.5795792,0.021806967,0.018998742,0.0,0.0,0.0,0.0,0.0,0.0,0.065590076,-0.029684875,-0.7926204
197588737,0.36638653,0.7350252,-0.82225317,3.0672948,0.0,0.55918455,0.022884473,0.0154826045,0.0,0.0,0.0,0.0,0.0,0.0,0.062075004,-0.027607264,-0.79520905
197688796,0.36638653,0.7350252,-0.82225317,3.0672948,0.0,0.53613454,0.02343979,0.009352267,0.0,0.0,0.0,0.0,0.0,0.0,0.06062527,-0.02573422,-0.8022532
197808761,0.36638653,0.7350252,-0.82225317,3.0672948,0.0,0.5047775,0.020325106,-0.0016026497,0.0,0.0,0.0,0.0,0.0,0.0,0.06022454,-0.03410137,-0.80516046
197908841,0.36638653,0.7350252,-0.82225317,3.0672948,0.0,0.479519,0.013211721,-0.011698842,0.0,0.0,0.0,0.0,0.0,0.0,0.062379334,-0.03561014,-0.806481
198008852,0.36638653,0.7350252,-0.82225317,3.0672948,0.0,0.46084452,0.0024799793,-0.019654155,0.0,0.0,0.0,0.0,0.0,0.0,0.06184585,-0.040096276,-0.8000028
198109222,0.36638653,0.7350252,-0.82225317,3.0672948,0.0,0.4462886,-0.012509352,-0.022327363,0.0,0.0,0.0,0.0,0.0,0.0,0.06656653,-0.03895956,-0.7939626
198210345,0.36638653,0.7350252,-0.82225317,3.0672948,0.0,0.43965173,-0.029712131,-0.019872129,0.0,0.0,0.0,0.0,0.0,0.0,0.067300744,-0.038668204,-0.7854275
198309305,0.36638653,0.7350252,-0.82225317,3.0672948,0.0,0.4393986,-0.0447988,-0.012442112,0.0,0.0,0.0,0.0,0.0,0.0,0.07112095,-0.036368765,-0.77789915
198410078,0.36638653,0.7350252,-0.82225317,3.0672948,0.0,0.4431125,-0.057135504,-0.00017946959,0.0,0.0,0.0,0.0,0.0,0.0,0.07104589,-0.035096068,-0.7698841
198509451,0.36638653,0.7350252,-0.82225317,3.0672948,0.0,0.4472573,-0.06289019,0.012609184,0.0,0.0,0.0,0.0,0.0,0.0,0.07080129,-0.03388901,-0.7673232
198609520,0.36638653,0.7350252,-0.82225317,3.0672948,0.0,0.44838703,-0.062466014,0.026497185,0.0,0.0,0.0,0.0,0.0,0.0,0.06946188,-0.023202704,-0.7632486
198729593,0.36638653,0.7350252,-0.82225317,3.0672948,0.0,0.440219,-0.05334535,0.04051459,0.0,0.0,0.0,0.0,0.0,0.0,0.058742065,-0.01891576,-0.76061326
198829942,0.36638653,0.7350252,-0.82225317,3.0672948,0.0,0.42281857,-0.040640756,0.049626946,0.0,0.0,0.0,0.0,0.0,0.0,0.047639914,-0.024155842,-0.75585365
198929900,0.36638653,0.7350252,-0.82225317,3.0672948,0.0,0.39172032,-0.02433672,0.05778408,0.0,0.0,0.0,0.0,0.0,0.0,0.039208844,-0.024251178,-0.7585553
199030245,0.36638653,0.7350252,-0.82225317,3.0672948,0.0,0.3534322,-0.0099169165,0.062277615,0.0,0.0,0.0,0.0,0.0,0.0,0.03243398,-0.019243035,-0.7622303
199130092,0.36638653,0.7350252,-0.82225317,3.0672948,0.0,0.3045974,0.002818197,0.064409256,0.0,0.0,0.0,0.0,0.0,0.0,0.024553489,-0.025600104,-0.763577
199230244,0.36638653,0.7350252,-0.82225317,3.0672948,0.0,0.2553608,0.011025452,0.06486857,0.0,0.0,0.0,0.0,0.0,0.0,0.018824073,-0.02850876,-0.76477754
199330252,0.36638653,0.7350252,-0.82225317,3.0672948,0.0,0.20025374,0.014460346,0.06472546,0.0,0.0,0.0,0.0,0.0,0.0,0.013934089,-0.027712928,-0.76480746
199430315,0.36638653,0.7350252,-0.82225317,3.0672948,0.0,0.14982729,0.01164113,0.06262803,0.0,0.0,0.0,0.0,0.0,0.0,0.013256352,-0.0337882,-0.7702624
199530411,0.36638653,0.7350252,-0.82225317,3.0672948,0.0,0.09573101,0.0015250653,0.061223507,0.0,0.0,0.0,0.0,0.0,0.0,0.009070573,-0.03602556,-0.7681565
199630617,0.36638653,0.7350252,-0.82225317,3.0672948,0.0,0.049756013,-0.014534977,0.060091376,0.0,0.0,0.0,0.0,0.0,0.0,0.010156548,-0.040321674,-0.77085805
199731018,0.36638653,0.7350252,-0.82225317,3.0672948,0.0,0.0053215907,-0.035809107,0.060887933,0.0,0.0,0.0,0.0,0.0,0.0,0.0026804656,-0.038832113,-0.76426727
199831392,0.36638653,0.7350252,-0.82225317,3.0672948,0.0,-0.026917348,-0.053857062,0.061510623,0.0,0.0,0.0,0.0,0.0,0.0,0.009508284,-0.03526341,-0.7725016
199951138,0.36638653,0.7350252,-0.82225317,3.0672948,0.0,-0.05416833,-0.06924293,0.06275004,0.0,0.0,0.0,0.0,0.0,0.0,0.010058839,-0.034579817,-0.77170146
200051175,0.36638653,0.7350252,-0.82225317,3.0672948,0.0,-0.06625772,-0.07493069,0.06339544,0.0,0.0,0.0,0.0,0.0,0.0,0.013255775,-0.03503952,-0.77282834
200151396,0.36638653,0.7350252,-0.82225317,3.0672948,0.0,-0.070528395,-0.07396756,0.061867893,0.0,0.0,0.0,0.0,0.0,0.0,0.010819875,-0.03220722,-0.7754607
200251102,0.36638653,0.7350252,-0.82225317,3.0672948,0.0,-0.0732962,-0.067841195,0.058203638,0.0,0.0,0.0,0.0,0.0,0.0,0.013370533,-0.031110607,-0.78069675
200351748,0.36638653,0.7350252,-0.82225317,3.0672948,0.0,-0.07811423,-0.058681462,0.052717805,0.0,0.0,0.0,0.0,0.0,0.0,0.016895365,-0.030634483,-0.78619945
200451538,0.36638653,0.7350252,-0.82225317,3.0672948,0.0,-0.08510607,-0.05022687,0.045633912,0.0,0.0,0.0,0.0,0.0,0.0,0.015692243,-0.03004049,-0.7911265
200551746,0.36638653,0.7350252,-0.82225317,3.0672948,0.0,-0.0966474,-0.042234506,0.036573946,0.0,0.0,0.0,0.0,0.0,0.0,0.0071448386,-0.037478514,-0.78813183
200651648,0.36638653,0.7350252,-0.82225317,3.0672948,0.0,-0.10946575,-0.038113438,0.028517902,0.0,0.0,0.0,0.0,0.0,0.0,0.015054114,-0.03966563,-0.7987915
200751953,0.36638653,0.7350252,-0.82225317,3.0672948,0.0,-0.12515785,-0.03774238,0.022075713,0.0,0.0,0.0,0.0,0.0,0.0,0.009585554,-0.04417333,-0.78986335
200851751,0.36638653,0.7350252,-0.82225317,3.0672948,0.0,-0.13864323,-0.04336292,0.018364608,0.0,0.0,0.0,0.0,0.0,0.0,0.0037706215,-0.04547865,-0.78598166
200952043,0.36638653,0.7350252,-0.82225317,3.0672948,0.0,-0.15300748,-0.057149887,0.019229352,0.0,0.0,0.0,0.0,0.0,0.0,0.0077466667,-0.05463741,-0.78432655
201071926,0.36638653,0.7350252,-0.82225317,3.0672948,0.0,-0.165358,-0.08428844,0.02048719,0.0,0.0,0.0,0.0,0.0,0.0,0.007835068,-0.06168535,-0.7877184
201172158,0.36638653,0.7350252,-0.82225317,3.0672948,0.0,-0.17350887,-0.11147535,0.02122724,0.0,0.0,0.0,0.0,0.0,0.0,0.004099358,-0.06688452,-0.78264153
201272303,0.36638653,0.7350252,-0.82225317,3.0672948,0.0,-0.18313053,-0.14242116,0.025174558,0.0,0.0,0.0,0.0,0.0,0.0,0.010586685,-0.06712929,-0.77877975
201372414,0.36638653,0.7350252,-0.82225317,3.0672948,0.0,-0.19126067,-0.16864794,0.029955268,0.0,0.0,0.0,0.0,0.0,0.0,0.0020726398,-0.060971893,-0.7695086
201472620,0.36638653,0.7350252,-0.82225317,3.0672948,0.0,-0.20073241,-0.19118541,0.03931117,0.0,0.0,0.0,0.0,0.0,0.0,-0.0014202055,-0.06345717,-0.7557573
201572634,0.36638653,0.7350252,-0.82225317,3.0672948,0.0,-0.21008381,-0.20571077,0.05267179,0.0,0.0,0.0,0.0,0.0,0.0,0.0040002894,-0.05847218,-0.7543508
201672668,0.36638653,0.7350252,-0.82225317,3.0672948,0.0,-0.21558471,-0.21467617,0.06442809,0.0,0.0,0.0,0.0,0.0,0.0,0.008247713,-0.061379723,-0.7599162
201772638,0.36638653,0.7350252,-0.82225317,3.0672948,0.0,-0.21933278,-0.21563023,0.073827624,0.0,0.0,0.0,0.0,0.0,0.0,0.008267559,-0.053741284,-0.75640154
201872821,0.36638653,0.7350252,-0.82225317,3.0672948,0.0,-0.2204865,-0.20814279,0.08043283,0.0,0.0,0.0,0.0,0.0,0.0,0.006457435,-0.043748166,-0.75455785
201972809,0.36638653,0.7350252,-0.82225317,3.0672948,0.0,-0.2219822,-0.19424008,0.083932936,0.0,0.0,0.0,0.0,0.0,0.0,0.009650546,-0.044241466,-0.7609212
202072998,0.36638653,0.7350252,-0.82225317,3.0672948,0.0,-0.22454251,-0.17452051,0.08427572,0.0,0.0,0.0,0.0,0.0,0.0,0.006579628,-0.03517097,-0.76401436
202173197,0.36638653,0.7350252,-0.82225317,3.0672948,0.0,-0.22749333,-0.14954914,0.08123511,0.0,0.0,0.0,0.0,0.0,0.0,0.005898414,-0.032874696,-0.7674469
202293405,0.36638653,0.7350252,-0.82225317,3.0672948,0.0,-0.23034912,-0.12180268,0.075425625,0.0,0.0,0.0,0.0,0.0,0.0,0.00493042,-0.032829016,-0.76950824
202393635,0.36638653,0.7350252,-0.82225317,3.0672948,0.0,-0.2305562,-0.10056326,0.070147514,0.0,0.0,0.0,0.0,0.0,0.0,0.0032358747,-0.032950107,-0.7711631
202493374,0.36638653,0.7350252,-0.82225317,3.0672948,0.0,-0.22899145,-0.08403827,0.06605625,0.0,0.0,0.0,0.0,0.0,0.0,0.0034058578,-0.033468153,-0.77109945
202593574,0.36638653,0.7350252,-0.82225317,3.0672948,0.0,-0.22560893,-0.06919939,0.062324584,0.0,0.0,0.0,0.0,0.0,0.0,0.0017499495,-0.033550866,-0.7730759
202693511,0.36638653,0.7350252,-0.82225317,3.0672948,0.0,-0.22236888,-0.059422392,0.0602625,0.0,0.0,0.0,0.0,0.0,0.0,0.0050306544,-0.034628734,-0.7699251
202793763,0.36638653,0.7350252,-0.82225317,3.0672948,0.0,-0.21906161,-0.052964944,0.060777903,0.0,0.0,0.0,0.0,0.0,0.0,0.0077304738,-0.031995516,-0.7665942
202893803,0.36638653,0.7350252,-0.82225317,3.0672948,0.0,-0.21617207,-0.050991245,0.06325781,0.0,0.0,0.0,0.0,0.0,0.0,0.008759148,-0.038970932,-0.7635168
202993989,0.36638653,0.7350252,-0.82225317,3.0672948,0.0,-0.2125984,-0.051778324,0.06712836,0.0,0.0,0.0,0.0,0.0,0.0,0.012047512,-0.04079888,-0.76242775
203094116,0.36638653,0.7350252,-0.82225317,3.0672948,0.0,-0.20769404,-0.05481373,0.07169896,0.0,0.0,0.0,0.0,0.0,0.0,0.013732323,-0.044158727,-0.75966805
203194277,0.36638653,0.7350252,-0.82225317,3.0672948,0.0,-0.19888231,-0.059600476,0.07745379,0.0,0.0,0.0,0.0,0.0,0.0,0.016698368,-0.04327948,-0.75725234
203294303,0.36638653,0.7350252,-0.82225317,3.0672948,0.0,-0.18622936,-0.06424634,0.08213574,0.0,0.0,0.0,0.0,0.0,0.0,0.01924709,-0.040040486,-0.75745547
203414445,0.36638653,0.7350252,-0.82225317,3.0672948,0.0,-0.16483316,-0.068794414,0.08409542,0.0,0.0,0.0,0.0,0.0,0.0,0.026001446,-0.044322986,-0.76976955
203514691,0.36638653,0.7350252,-0.82225317,3.0672948,0.0,-0.14016643,-0.07354509,0.07504648,0.0,0.0,0.0,0.0,0.0,0.0,0.032015033,-0.047330294,-0.7918027
203614737,0.36638653,0.7350252,-0.82225317,3.0672948,0.0,-0.116678424,-0.07785064,0.060643196,0.0,0.0,0.0,0.0,0.0,0.0,0.021108596,-0.04526778,-0.7867399
203714783,0.36638653,0.7350252,-0.82225317,3.0672948,0.0,-0.09430139,-0.08244458,0.044583738,0.0,0.0,0.0,0.0,0.0,0.0,0.038748935,-0.048912805,-0.8006773
203814837,0.36638653,0.7350252,-0.82225317,3.0672948,0.0,-0.07596791,-0.08695182,0.027491748,0.0,0.0,0.0,0.0,0.0,0.0,0.027474254,-0.05195805,-0.80101013
203914990,0.36638653,0.7350252,-0.82225317,3.0672948,0.0,-0.059286013,-0.0922932,0.009838343,0.0,0.0,0.0,0.0,0.0,0.0,0.025449723,-0.053438112,-0.804134
204015682,0.36638653,0.7350252,-0.82225317,3.0672948,0.0,-0.04737108,-0.09688777,-0.0024494529,0.0,0.0,0.0,0.0,0.0,0.0,0.028670661,-0.051999178,-0.8011068
204115585,0.36638653,0.7350252,-0.82225317,3.0672948,0.0,-0.038430307,-0.10083551,-0.009527087,0.0,0.0,0.0,0.0,0.0,0.0,0.022762133,-0.049619626,-0.7923769
204215352,0.36638653,0.7350252,-0.82225317,3.0672948,0.0,-0.033003256,-0.10351413,-0.010082841,0.0,0.0,0.0,0.0,0.0,0.0,0.02576818,-0.049558118,-0.7886863
204315580,0.36638653,0.7350252,-0.82225317,3.0672948,0.0,-0.03217705,-0.10458976,-0.00477618,0.0,0.0,0.0,0.0,0.0,0.0,0.023914011,-0.041907016,-0.77782625
204415557,0.36638653,0.7350252,-0.82225317,3.0672948,0.0,-0.034371216,-0.10380013,0.0054124594,0.0,0.0,0.0,0.0,0.0,0.0,0.018989084,-0.044065904,-0.7718289
204515717,0.36638653,0.7350252,-0.82225317,3.0672948,0.0,-0.039445926,-0.10106755,0.017527342,0.0,0.0,0.0,0.0,0.0,0.0,0.02048144,-0.039652117,-0.76668334
204615665,0.36638653,0.7350252,-0.82225317,3.0672948,0.0,-0.04582155,-0.09364857,0.032110512,0.0,0.0,0.0,0.0,0.0,0.0,0.015004555,-0.037772454,-0.75623405
204735731,0.36638653,0.7350252,-0.82225317,3.0672948,0.0,-0.05625624,-0.077826515,0.052511156,0.0,0.0,0.0,0.0,0.0,0.0,0.01287186,-0.030005304,-0.7461628
204836173,0.36638653,0.7350252,-0.82225317,3.0672948,0.0,-0.06375923,-0.05942936,0.06561577,0.0,0.0,0.0,0.0,0.0,0.0,0.0056753494,-0.03366875,-0.7537246
204935857,0.36638653,0.7350252,-0.82225317,3.0672948,0.0,-0.070472054,-0.04362764,0.07133126,0.0,0.0,0.0,0.0,0.0,0.0,0.007250705,-0.032532785,-0.76081085
205035875,0.36638653,0.7350252,-0.82225317,3.0672948,0.0,-0.07757839,-0.028378626,0.07085323,0.0,0.0,0.0,0.0,0.0,0.0,0.0044072717,-0.030792864,-0.77037394
205136005,0.36638653,0.7350252,-0.82225317,3.0672948,0.0,-0.0849591,-0.018148463,0.063892365,0.0,0.0,0.0,0.0,0.0,0.0,0.005111036,-0.028768104,-0.7788563
205236141,0.36638653,0.7350252,-0.82225317,3.0672948,0.0,-0.09335225,-0.0097627845,0.05102706,0.0,0.0,0.0,0.0,0.0,0.0,0.008016593,-0.037508663,-0.7894782
205336315,0.36638653,0.7350252,-0.82225317,3.0672948,0.0,-0.10060491,-0.004172936,0.0357247,0.0,0.0,0.0,0.0,0.0,0.0,0.002927538,-0.03219373,-0.7888707
205436443,0.36638653,0.7350252,-0.82225317,3.0672948,0.0,-0.1082009,-0.00023165047,0.019885778,0.0,0.0,0.0,0.0,0.0,0.0,0.00363997,-0.035599064,-0.79215544
205536513,0.36638653,0.7350252,-0.82225317,3.0672948,0.0,-0.114800274,0.00081663724,0.00845021,0.0,0.0,0.0,0.0,0.0,0.0,0.0038863411,-0.039490867,-0.7921903
205636530,0.36638653,0.7350252,-0.82225317,3.0672948,0.0,-0.12072891,-0.0018267601,0.0013536811,0.0,0.0,0.0,0.0,0.0,0.0,0.0021135919,-0.04047397,-0.7871178
205736615,0.36638653,0.7350252,-0.82225317,3.0672948,0.0,-0.12424625,-0.0072175176,-0.00011533499,0.0,0.0,0.0,0.0,0.0,0.0,0.00097467005,-0.04325615,-0.7810937
205836649,0.36638653,0.7350252,-0.82225317,3.0672948,0.0,-0.12532634,-0.014387414,0.004088402,0.0,0.0,0.0,0.0,0.0,0.0,0.0023232345,-0.04113494,-0.77456
205936760,0.36638653,0.7350252,-0.82225317,3.0672948,0.0,-0.12385359,-0.020772155,0.012209892,0.0,0.0,0.0,0.0,0.0,0.0,0.0013884827,-0.04020943,-0.7678102
206036971,0.36638653,0.7350252,-0.82225317,3.0672948,0.0,-0.12103607,-0.026302436,0.023256958,0.0,0.0,0.0,0.0,0.0,0.0,-0.0012377929,-0.04395731,-0.7628492
206157397,0.36638653,0.7350252,-0.82225317,3.0672948,0.0,-0.118060626,-0.030864948,0.035303712,0.0,0.0,0.0,0.0,0.0,0.0,0.0023908606,-0.047813926,-0.76366174
206257505,0.36638653,0.7350252,-0.82225317,3.0672948,0.0,-0.11700076,-0.034996264,0.041096747,0.0,0.0,0.0,0.0,0.0,0.0,-0.00017610379,-0.05231151,-0.768291
206357548,0.36638653,0.7350252,-0.82225317,3.0672948,0.0,-0.117527135,-0.040566124,0.040664613,0.0,0.0,0.0,0.0,0.0,0.0,0.002724425,-0.05025518,-0.7777978
206457535,0.36638653,0.7350252,-0.82225317,3.0672948,0.0,-0.12018365,-0.046553705,0.034856677,0.0,0.0,0.0,0.0,0.0,0.0,0.002062602,-0.052490026,-0.7844074
206557547,0.36638653,0.7350252,-0.82225317,3.0672948,0.0,-0.12376341,-0.05333861,0.024617195,0.0,0.0,0.0,0.0,0.0,0.0,0.002403397,-0.053124562,-0.78739357
206657592,0.36638653,0.7350252,-0.82225317,3.0672948,0.0,-0.12648407,-0.058757454,0.0135317445,0.0,0.0,0.0,0.0,0.0,0.0,0.00429519,-0.0508564,-0.7899382
206757664,0.36638653,0.7350252,-0.82225317,3.0672948,0.0,-0.12714502,-0.0625805,0.0024947524,0.0,0.0,0.0,0.0,0.0,0.0,0.0053072795,-0.045576654,-0.790383
206857750,0.36638653,0.7350252,-0.82225317,3.0672948,0.0,-0.12461932,-0.0634989,-0.0041603446,0.0,0.0,0.0,0.0,0.0,0.0,0.010266943,-0.04759084,-0.78549206
206958077,0.36638653,0.7350252,-0.82225317,3.0672948,0.0,-0.118154086,-0.061645243,-0.0058736205,0.0,0.0,0.0,0.0,0.0,0.0,0.012836299,-0.043937773,-0.7813481
207058012,0.36638653,0.7350252,-0.82225317,3.0672948,0.0,-0.10779677,-0.055702623,-0.0032725334,0.0,0.0,0.0,0.0,0.0,0.0,0.0146766575,-0.038174838,-0.7756131
207158249,0.36638653,0.7350252,-0.82225317,3.0672948,0.0,-0.095228896,-0.0463964,0.00260365,0.0,0.0,0.0,0.0,0.0,0.0,0.018764134,-0.03563019,-0.7724389
207258241,0.36638653,0.7350252,-0.82225317,3.0672948,0.0,-0.07842906,-0.032133617,0.010485172,0.0,0.0,0.0,0.0,0.0,0.0,0.026117105,-0.029887054,-0.77181506
207358379,0.36638653,0.7350252,-0.82225317,3.0672948,0.0,-0.05974456,-0.0150202485,0.015108466,0.0,0.0,0.0,0.0,0.0,0.0,0.024496272,-0.022557767,-0.77492917
207458722,0.36638653,0.7350252,-0.82225317,3.0672948,0.0,-0.037722476,0.008121469,0.016069949,0.0,0.0,0.0,0.0,0.0,0.0,0.026233405,-0.020154735,-0.77754927
207578858,0.36638653,0.7350252,-0.82225317,3.0672948,0.0,-0.012663936,0.03988884,0.013702154,0.0,0.0,0.0,0.0,0.0,0.0,0.03255211,-0.01225356,-0.7835336
207678783,0.36638653,0.7350252,-0.82225317,3.0672948,0.0,0.0057268515,0.06781068,0.009192526,0.0,0.0,0.0,0.0,0.0,0.0,0.030760698,-0.00808627,-0.78576374
207779130,0.36638653,0.7350252,-0.82225317,3.0672948,0.0,0.023532964,0.09868882,0.001606226,0.0,0.0,0.0,0.0,0.0,0.0,0.028787803,-0.0040662773,-0.7882621
207878986,0.36638653,0.7350252,-0.82225317,3.0672948,0.0,0.037823975,0.12653439,-0.0055457354,0.0,0.0,0.0,0.0,0.0,0.0,0.029150134,-0.0010631792,-0.78767675
207979005,0.36638653,0.7350252,-0.82225317,3.0672948,0.0,0.052246496,0.15465175,-0.011146784,0.0,0.0,0.0,0.0,0.0,0.0,0.037814755,-0.0036426894,-0.7905326
208079040,0.36638653,0.7350252,-0.82225317,3.0672948,0.0,0.06597287,0.17753355,-0.01681447,0.0,0.0,0.0,0.0,0.0,0.0,0.03582927,0.0022584945,-0.7924707
208179121,0.36638653,0.7350252,-0.82225317,3.0672948,0.0,0.07884649,0.19780849,-0.021217585,0.0,0.0,0.0,0.0,0.0,0.0,0.04125973,0.0005505122,-0.79229414
208279204,0.36638653,0.7350252,-0.82225317,3.0672948,0.0,0.08930927,0.211459,-0.02553457,0.0,0.0,0.0,0.0,0.0,0.0,0.041674666,-0.006831562,-0.7940985
208379204,0.36638653,0.7350252,-0.82225317,3.0672948,0.0,0.098145254,0.21928675,-0.029750764,0.0,0.0,0.0,0.0,0.0,0.0,0.039962787,-0.011379626,-0.794444
208479420,0.36638653,0.7350252,-0.82225317,3.0672948,0.0,0.10529827,0.22041522,-0.031244397,0.0,0.0,0.0,0.0,0.0,0.0,0.032371037,-0.009209216,-0.7818028
208579801,0.36638653,0.7350252,-0.82225317,3.0672948,0.0,0.11097197,0.21688248,-0.024629056,0.0,0.0,0.0,0.0,0.0,0.0,0.04621536,-0.015204875,-0.7729702
208679965,0.36638653,0.7350252,-0.82225317,3.0672948,0.0,0.11947374,0.20791991,-0.014579356,0.0,0.0,0.0,0.0,0.0,0.0,0.035684817,-0.021596894,-0.7632077
208779923,0.36638653,0.7350252,-0.82225317,3.0672948,0.0,0.13093947,0.19290239,-0.0006504655,0.0,0.0,0.0,0.0,0.0,0.0,0.037315734,-0.02443304,-0.7620873
208879928,0.36638653,0.7350252,-0.82225317,3.0672948,0.0,0.14142844,0.17469515,0.012973487,0.0,0.0,0.0,0.0,0.0,0.0,0.037309222,-0.03108425,-0.7596317
208999970,0.36638653,0.7350252,-0.82225317,3.0672948,0.0,0.15137132,0.1482328,0.027386129,0.0,0.0,0.0,0.0,0.0,0.0,0.032250427,-0.028698882,-0.75982136
209099963,0.36638653,0.7350252,-0.82225317,3.0672948,0.0,0.15174071,0.12944035,0.034497023,0.0,0.0,0.0,0.0,0.0,0.0,0.0322388,-0.029165594,-0.762499
209200154,0.36638653,0.7350252,-0.82225317,3.0672948,0.0,0.14458485,0.1113741,0.03840393,0.0,0.0,0.0,0.0,0.0,0.0,0.027494496,-0.03382952,-0.76422375
209300365,0.36638653,0.7350252,-0.82225317,3.0672948,0.0,0.13227773,0.09763147,0.039141536,0.0,0.0,0.0,0.0,0.0,0.0,0.025225202,-0.02805195,-0.76570135
209400361,0.36638653,0.7350252,-0.82225317,3.0672948,0.0,0.11300149,0.0868213,0.040086985,0.0,0.0,0.0,0.0,0.0,0.0,0.010036807,-0.033147797,-0.75771844
209500414,0.36638653,0.7350252,-0.82225317,3.0672948,0.0,0.09264139,0.07923629,0.04273665,0.0,0.0,0.0,0.0,0.0,0.0,0.020100327,-0.034693,-0.7625648
209600554,0.36638653,0.7350252,-0.82225317,3.0672948,0.0,0.072878905,0.07297737,0.045126796,0.0,0.0,0.0,0.0,0.0,0.0,0.010648254,-0.033232514,-0.7600843
209700571,0.36638653,0.7350252,-0.82225317,3.0672948,0.0,0.055580627,0.06903812,0.047352076,0.0,0.0,0.0,0.0,0.0,0.0,0.0077331057,-0.028800962,-0.7638822
209800625,0.36638653,0.7350252,-0.82225317,3.0672948,0.0,0.037118178,0.06491898,0.0473485,0.0,0.0,0.0,0.0,0.0,0.0,0.004989773,-0.034372214,-0.76906955
209900728,0.36638653,0.7350252,-0.82225317,3.0672948,0.0,0.01938984,0.059318885,0.043191552,0.0,0.0,0.0,0.0,0.0,0.0,0.01081623,-0.04236825,-0.78431416
210020854,0.36638653,0.7350252,-0.82225317,3.0672948,0.0,-0.004157619,0.04921471,0.03239131,0.0,0.0,0.0,0.0,0.0,0.0,0.0042138193,-0.043064065,-0.7886756
210121002,0.36638653,0.7350252,-0.82225317,3.0672948,0.0,-0.024687989,0.037808515,0.020562291,0.0,0.0,0.0,0.0,0.0,0.0,-0.0025730543,-0.0470257,-0.79091626
210221207,0.36638653,0.7350252,-0.82225317,3.0672948,0.0,-0.047818664,0.021936467,0.0067645907,0.0,0.0,0.0,0.0,0.0,0.0,-0.0031408481,-0.050703533,-0.79614514
210321277,0.36638653,0.7350252,-0.82225317,3.0672948,0.0,-0.06867072,0.0035518794,-0.004943192,0.0,0.0,0.0,0.0,0.0,0.0,-0.0015004408,-0.05512407,-0.7996597
210421336,0.36638653,0.7350252,-0.82225317,3.0672948,0.0,-0.08805317,-0.019794704,-0.014351606,0.0,0.0,0.0,0.0,0.0,0.0,-0.006452091,-0.05681554,-0.793882
210521439,0.36638653,0.7350252,-0.82225317,3.0672948,0.0,-0.10195257,-0.04425611,-0.01777494,0.0,0.0,0.0,0.0,0.0,0.0,-0.0067596454,-0.0642263,-0.7869872
210621485,0.36638653,0.7350252,-0.82225317,3.0672948,0.0,-0.111222096,-0.07229431,-0.019226968,0.0,0.0,0.0,0.0,0.0,0.0,-0.0011324342,-0.057456955,-0.79294634
210721545,0.36638653,0.7350252,-0.82225317,3.0672948,0.0,-0.11613828,-0.09532193,-0.019347608,0.0,0.0,0.0,0.0,0.0,0.0,-0.0050452948,-0.05062367,-0.79026026
210821770,0.36638653,0.7350252,-0.82225317,3.0672948,0.0,-0.11989752,-0.11172212,-0.01885742,0.0,0.0,0.0,0.0,0.0,0.0,0.0031237593,-0.046538793,-0.7906746
210922032,0.36638653,0.7350252,-0.82225317,3.0672948,0.0,-0.12361171,-0.119480394,-0.017609656,0.0,0.0,0.0,0.0,0.0,0.0,0.0031729545,-0.04146529,-0.7849062
211022567,0.36638653,0.7350252,-0.82225317,3.0672948,0.0,-0.12731132,-0.11592597,-0.014285266,0.0,0.0,0.0,0.0,0.0,0.0,0.005569403,-0.031579338,-0.7790191
211122092,0.36638653,0.7350252,-0.82225317,3.0672948,0.0,-0.13053161,-0.10281623,-0.009545505,0.0,0.0,0.0,0.0,0.0,0.0,-0.004001097,-0.02598359,-0.77329636
211222325,0.36638653,0.7350252,-0.82225317,3.0672948,0.0,-0.13707626,-0.07695569,0.001675725,0.0,0.0,0.0,0.0,0.0,0.0,-0.0020691091,-0.013841368,-0.76058745
211322223,0.36638653,0.7350252,-0.82225317,3.0672948,0.0,-0.13999163,-0.043064054,0.014038026,0.0,0.0,0.0,0.0,0.0,0.0,-0.0055387057,-0.0077706,-0.75591785
211422436,0.36638653,0.7350252,-0.82225317,3.0672948,0.0,-0.14318043,0.0012550234,0.029458642,0.0,0.0,0.0,0.0,0.0,0.0,-0.009768972,-0.0021620058,-0.75174546
211542372,0.36638653,0.7350252,-0.82225317,3.0672948,0.0,-0.14908811,0.053762726,0.04663819,0.0,0.0,0.0,0.0,0.0,0.0,-0.012593067,-0.0015358366,-0.7473374
211642462,0.36638653,0.7350252,-0.82225317,3.0672948,0.0,-0.1579393,0.09157379,0.0588699,0.0,0.0,0.0,0.0,0.0,0.0,-0.012138974,-0.0013816021,-0.74579144
211742783,0.36638653,0.7350252,-0.82225317,3.0672948,0.0,-0.17353848,0.122524075,0.06931996,0.0,0.0,0.0,0.0,0.0,0.0,-0.015346579,-0.007326342,-0.74730814
211842845,0.36638653,0.7350252,-0.82225317,3.0672948,0.0,-0.19279338,0.13990454,0.075357735,0.0,0.0,0.0,0.0,0.0,0.0,-0.017518647,-0.008654978,-0.75039434
211943111,0.36638653,0.7350252,-0.82225317,3.0672948,0.0,-0.21561404,0.14570582,0.078165054,0.0,0.0,0.0,0.0,0.0,0.0,-0.020073663,-0.020878278,-0.75204843
212043155,0.36638653,0.7350252,-0.82225317,3.0672948,0.0,-0.23736992,0.13948223,0.08079976,0.0,0.0,0.0,0.0,0.0,0.0,-0.03063019,-0.026921565,-0.7453458
212143073,0.36638653,0.7350252,-0.82225317,3.0672948,0.0,-0.2568686,0.11924422,0.083836436,0.0,0.0,0.0,0.0,0.0,0.0,-0.018129544,-0.041934695,-0.7502822
212243159,0.36638653,0.7350252,-0.82225317,3.0672948,0.0,-0.26695403,0.0893224,0.08415264,0.0,0.0,0.0,0.0,0.0,0.0,-0.021429008,-0.042544603,-0.7566773
212343368,0.36638653,0.7350252,-0.82225317,3.0672948,0.0,-0.26881334,0.048390318,0.08020067,0.0,0.0,0.0,0.0,0.0,0.0,-0.011010112,-0.058926843,-0.7673856
212443505,0.36638653,0.7350252,-0.82225317,3.0672948,0.0,-0.26298466,0.008174923,0.07241285,0.0,0.0,0.0,0.0,0.0,0.0,-0.0076236385,-0.059504338,-0.7747286
212543621,0.36638653,0.7350252,-0.82225317,3.0672948,0.0,-0.25077328,-0.033289604,0.061254025,0.0,0.0,0.0,0.0,0.0,0.0,-0.0038129385,-0.06171259,-0.77726346
212663630,0.36638653,0.7350252,-0.82225317,3.0672948,0.0,-0.23061407,-0.07562252,0.045121193,0.0,0.0,0.0,0.0,0.0,0.0,0.010072206,-0.069738634,-0.7941928
212763927,0.36638653,0.7350252,-0.82225317,3.0672948,0.0,-0.2118872,-0.10405585,0.031021416,0.0,0.0,0.0,0.0,0.0,0.0,0.011021343,-0.06553547,-0.79318696
212863996,0.36638653,0.7350252,-0.82225317,3.0672948,0.0,-0.1885876,-0.12807383,0.015616953,0.0,0.0,0.0,0.0,0.0,0.0,0.009547999,-0.05833614,-0.7951005
212964005,0.36638653,0.7350252,-0.82225317,3.0672948,0.0,-0.165319,-0.14206436,0.0031772256,0.0,0.0,0.0,0.0,0.0,0.0,0.015533594,-0.05094788,-0.7985954
213063983,0.36638653,0.7350252,-0.82225317,3.0672948,0.0,-0.13887443,-0.14614806,-0.006537378,0.0,0.0,0.0,0.0,0.0,0.0,0.019911785,-0.0473699,-0.7946385
213164018,0.36638653,0.7350252,-0.82225317,3.0672948,0.0,-0.11402158,-0.14013608,-0.010379136,0.0,0.0,0.0,0.0,0.0,0.0,0.017446712,-0.046886705,-0.7876502
213264341,0.36638653,0.7350252,-0.82225317,3.0672948,0.0,-0.087956965,-0.12541565,-0.010210156,0.0,0.0,0.0,0.0,0.0,0.0,0.01647058,-0.03580984,-0.78217
213364727,0.36638653,0.7350252,-0.82225317,3.0672948,0.0,-0.06507767,-0.10390217,-0.0054426193,0.0,0.0,0.0,0.0,0.0,0.0,0.014202783,-0.028472152,-0.7733978
213464527,0.36638653,0.7350252,-0.82225317,3.0672948,0.0,-0.048496913,-0.07889774,0.0031127334,0.0,0.0,0.0,0.0,0.0,0.0,0.013066663,-0.021974355,-0.76450926
213564751,0.36638653,0.7350252,-0.82225317,3.0672948,0.0,-0.03699454,-0.048646767,0.015643418,0.0,0.0,0.0,0.0,0.0,0.0,0.012669761,-0.014207359,-0.75876325
213664590,0.36638653,0.7350252,-0.82225317,3.0672948,0.0,-0.03362839,-0.019247826,0.029016078,0.0,0.0,0.0,0.0,0.0,0.0,0.011561029,-0.011216177,-0.7542824
213764753,0.36638653,0.7350252,-0.82225317,3.0672948,0.0,-0.036990944,0.0114277685,0.04201716,0.0,0.0,0.0,0.0,0.0,0.0,0.0042994986,-0.0146662835,-0.750331
213864815,0.36638653,0.7350252,-0.82225317,3.0672948,0.0,-0.04532869,0.036912832,0.052303612,0.0,0.0,0.0,0.0,0.0,0.0,0.003204986,-0.002773635,-0.7492598
213964817,0.36638653,0.7350252,-0.82225317,3.0672948,0.0,-0.057698406,0.062139347,0.06147778,0.0,0.0,0.0,0.0,0.0,0.0,0.0006036144,-0.0046363696,-0.74770796
214064987,0.36638653,0.7350252,-0.82225317,3.0672948,0.0,-0.06963809,0.08381126,0.06750423,0.0,0.0,0.0,0.0,0.0,0.0,-0.0019168649,-0.0012399629,-0.7491708
214185255,0.36638653,0.7350252,-0.82225317,3.0672948,0.0,-0.08042521,0.10713174,0.06985104,0.0,0.0,0.0,0.0,0.0,0.0,0.00769652,-0.008440189,-0.76193607
214285239,0.36638653,0.7350252,-0.82225317,3.0672948,0.0,-0.08334765,0.12304122,0.06623834,0.0,0.0,0.0,0.0,0.0,0.0,0.0034160079,-0.009863891,-0.7624006
214385311,0.36638653,0.7350252,-0.82225317,3.0672948,0.0,-0.079806305,0.13349794,0.0604105,0.0,0.0,0.0,0.0,0.0,0.0,0.009624361,-0.010453884,-0.76972103
214485409,0.36638653,0.7350252,-0.82225317,3.0672948,0.0,-0.06978333,0.14035867,0.05131483,0.0,0.0,0.0,0.0,0.0,0.0,0.0120495185,-0.015491864,-0.77679986
214585485,0.36638653,0.7350252,-0.82225317,3.0672948,0.0,-0.056578178,0.14070097,0.040332794,0.0,0.0,0.0,0.0,0.0,0.0,0.016336778,-0.019674944,-0.7836133
214685506,0.36638653,0.7350252,-0.82225317,3.0672948,0.0,-0.038547862,0.13398242,0.026851892,0.0,0.0,0.0,0.0,0.0,0.0,0.017658858,-0.025241353,-0.79099894
214785585,0.36638653,0.7350252,-0.82225317,3.0672948,0.0,-0.020616297,0.1201501,0.015042186,0.0,0.0,0.0,0.0,0.0,0.0,0.012245851,-0.033365786,-0.7843524
214885773,0.36638653,0.7350252,-0.82225317,3.0672948,0.0,-0.0035176217,0.09879845,0.007843494,0.0,0.0,0.0,0.0,0.0,0.0,0.023362264,-0.041092355,-0.78439116
214986231,0.36638653,0.7350252,-0.82225317,3.0672948,0.0,0.0137515785,0.07422039,0.0049384832,0.0,0.0,0.0,0.0,0.0,0.0,0.014350514,-0.03869246,-0.7749741
215106349,0.36638653,0.7350252,-0.82225317,3.0672948,0.0,0.033035077,0.039884593,0.010010242,0.0,0.0,0.0,0.0,0.0,0.0,0.0189794,-0.05163101,-0.7649201
215206382,0.36638653,0.7350252,-0.82225317,3.0672948,0.0,0.04487949,0.009612843,0.021610558,0.0,0.0,0.0,0.0,0.0,0.0,0.0163306,-0.050184116,-0.7570241
215306406,0.36638653,0.7350252,-0.82225317,3.0672948,0.0,0.05055331,-0.016604543,0.034814835,0.0,0.0,0.0,0.0,0.0,0.0,0.010521631,-0.054464757,-0.750991
215406376,0.36638653,0.7350252,-0.82225317,3.0672948,0.0,0.0488588,-0.039929044,0.050146163,0.0,0.0,0.0,0.0,0.0,0.0,0.009110738,-0.04609858,-0.7474556
215506414,0.36638653,0.7350252,-0.82225317,3.0672948,0.0,0.040525015,-0.0549968,0.064148545,0.0,0.0,0.0,0.0,0.0,0.0,0.008207052,-0.05147858,-0.74333835
215606421,0.36638653,0.7350252,-0.82225317,3.0672948,0.0,0.026622223,-0.0634754,0.077828825,0.0,0.0,0.0,0.0,0.0,0.0,-0.0069618383,-0.042636253,-0.73295283
215707211,0.36638653,0.7350252,-0.82225317,3.0672948,0.0,0.0072943,-0.06338202,0.0948931,0.0,0.0,0.0,0.0,0.0,0.0,0.00031361263,-0.04190619,-0.72649837
215806800,0.36638653,0.7350252,-0.82225317,3.0672948,0.0,-0.008150206,-0.058707625,0.10855371,0.0,0.0,0.0,0.0,0.0,0.0,-0.0031697834,-0.04120923,-0.7249651
215906952,0.36638653,0.7350252,-0.82225317,3.0672948,0.0,-0.022848856,-0.050866388,0.12269086,0.0,0.0,0.0,0.0,0.0,0.0,-0.002273783,-0.037083473,-0.72652626
216007034,0.36638653,0.7350252,-0.82225317,3.0672948,0.0,-0.033266418,-0.04128667,0.13097686,0.0,0.0,0.0,0.0,0.0,0.0,-0.0011840593,-0.033857413,-0.7335851
216107060,0.36638653,0.7350252,-0.82225317,3.0672948,0.0,-0.04181121,-0.02707468,0.13327295,0.0,0.0,0.0,0.0,0.0,0.0,0.0012529092,-0.025031667,-0.74262047
216207236,0.36638653,0.7350252,-0.82225317,3.0672948,0.0,-0.04829881,-0.0116370525,0.12914485,0.0,0.0,0.0,0.0,0.0,0.0,0.001127963,-0.02277546,-0.7516735
216327105,0.36638653,0.7350252,-0.82225317,3.0672948,0.0,-0.05436977,0.007600355,0.113910854,0.0,0.0,0.0,0.0,0.0,0.0,0.0076505425,-0.019719936,-0.7745614
216427418,0.36638653,0.7350252,-0.82225317,3.0672948,0.0,-0.058042996,0.026155213,0.09202033,0.0,0.0,0.0,0.0,0.0,0.0,0.003026926,-0.0056551527,-0.78719854
216527319,0.36638653,0.7350252,-0.82225317,3.0672948,0.0,-0.05914737,0.046055976,0.06593925,0.0,0.0,0.0,0.0,0.0,0.0,0.0020047175,0.00028678402,-0.7993436
216627670,0.36638653,0.7350252,-0.82225317,3.0672948,0.0,-0.059094597,0.070416704,0.03530699,0.0,0.0,0.0,0.0,0.0,0.0,0.00089799426,-0.0024589133,-0.81017894
216727671,0.36638653,0.7350252,-0.82225317,3.0672948,0.0,-0.05832003,0.093449816,0.0073302984,0.0,0.0,0.0,0.0,0.0,0.0,0.006001952,0.0044594947,-0.82026356
216827734,0.36638653,0.7350252,-0.82225317,3.0672948,0.0,-0.0560533,0.11876648,-0.02080208,0.0,0.0,0.0,0.0,0.0,0.0,0.0050293216,0.0052947886,-0.8250971
216927769,0.36638653,0.7350252,-0.82225317,3.0672948,0.0,-0.053198297,0.14303966,-0.043988347,0.0,0.0,0.0,0.0,0.0,0.0,-0.0036754296,0.00638048,-0.82507014
217027846,0.36638653,0.7350252,-0.82225317,3.0672948,0.0,-0.05163849,0.16962731,-0.062131643,0.0,0.0,0.0,0.0,0.0,0.0,-0.005207433,0.007902628,-0.817802
217127941,0.36638653,0.7350252,-0.82225317,3.0672948,0.0,-0.054757364,0.1925358,-0.06989682,0.0,0.0,0.0,0.0,0.0,0.0,-0.008900705,0.009244207,-0.8058555
217228053,0.36638653,0.7350252,-0.82225317,3.0672948,0.0,-0.06213793,0.21457674,-0.069456875,0.0,0.0,0.0,0.0,0.0,0.0,-0.007310312,0.008207312,-0.7936307
217328209,0.36638653,0.7350252,-0.82225317,3.0672948,0.0,-0.072131485,0.23089176,-0.060924828,0.0,0.0,0.0,0.0,0.0,0.0,-0.006297599,0.011813188,-0.78345335
217428670,0.36638653,0.7350252,-0.82225317,3.0672948,0.0,-0.0866437,0.24267861,-0.044965804,0.0,0.0,0.0,0.0,0.0,0.0,-0.010907771,0.0062436964,-0.7688583
217528731,0.36638653,0.7350252,-0.82225317,3.0672948,0.0,-0.10179218,0.24808046,-0.026600718,0.0,0.0,0.0,0.0,0.0,0.0,-0.015032098,-0.00046812743,-0.75881344
217649622,0.36638653,0.7350252,-0.82225317,3.0672948,0.0,-0.12165724,0.24531966,-0.0006595254,0.0,0.0,0.0,0.0,0.0,0.0,-0.015781213,-0.011818221,-0.75340307
217748643,0.36638653,0.7350252,-0.82225317,3.0672948,0.0,-0.13446248,0.23599161,0.015622258,0.0,0.0,0.0,0.0,0.0,0.0,-0.017034832,-0.00516741,-0.75111157
217848769,0.36638653,0.7350252,-0.82225317,3.0672948,0.0,-0.14638436,0.2220566,0.029962659,0.0,0.0,0.0,0.0,0.0,0.0,-0.015624491,-0.00790067,-0.74671906
217948779,0.36638653,0.7350252,-0.82225317,3.0672948,0.0,-0.152561,0.20614293,0.03777975,0.0,0.0,0.0,0.0,0.0,0.0,-0.01686969,-0.02072858,-0.74903506
218049128,0.36638653,0.7350252,-0.82225317,3.0672948,0.0,-0.15624368,0.18556358,0.04264289,0.0,0.0,0.0,0.0,0.0,0.0,-0.010557985,-0.024230704,-0.7528572
218149101,0.36638653,0.7350252,-0.82225317,3.0672948,0.0,-0.15689611,0.1637775,0.045413613,0.0,0.0,0.0,0.0,0.0,0.0,-0.008283069,-0.025862925,-0.7522974
218249501,0.36638653,0.7350252,-0.82225317,3.0672948,0.0,-0.1544903,0.13847104,0.047825754,0.0,0.0,0.0,0.0,0.0,0.0,-0.008852682,-0.030714825,-0.74745405
218349279,0.36638653,0.7350252,-0.82225317,3.0672948,0.0,-0.14937848,0.11596436,0.051143587,0.0,0.0,0.0,0.0,0.0,0.0,-0.0054607573,-0.03016095,-0.74662256
218449557,0.36638653,0.7350252,-0.82225317,3.0672948,0.0,-0.14112304,0.09468219,0.055867374,0.0,0.0,0.0,0.0,0.0,0.0,-0.004186947,-0.031232303,-0.74636567
218649777,0.36638653,0.7350252,-0.82225317,3.0672948,0.0,-0.11603607,0.06491972,0.058749795,0.0,0.0,0.0,0.0,0.0,0.0,0.00079850625,-0.0284167,-0.7601875
219170194,0.36638653,0.7350252,-0.82225317,3.0672948,0.0,-0.04385708,0.023696015,0.03834361,0.0,0.0,0.0,0.0,0.0,0.0,0.015151221,-0.032173235,-0.7650229
219270249,0.36638653,0.7350252,-0.82225317,3.0672948,0.0,-0.025269635,0.016745538,0.04001224,0.0,0.0,0.0,0.0,0.0,0.0,0.019018877,-0.03184339,-0.75964427
219370236,0.36638653,0.7350252,-0.82225317,3.0672948,0.0,-0.007351632,0.009236914,0.045316935,0.0,0.0,0.0,0.0,0.0,0.0,0.02326459,-0.030465502,-0.7545419
219470324,0.36638653,0.7350252,-0.82225317,3.0672948,0.0,0.011484733,-0.0007963657,0.054120958,0.0,0.0,0.0,0.0,0.0,0.0,0.01956313,-0.03378158,-0.7474865
219570421,0.36638653,0.7350252,-0.82225317,3.0672948,0.0,0.022862956,-0.009800836,0.067772746,0.0,0.0,0.0,0.0,0.0,0.0,0.010712496,-0.033933,-0.73189664
219670818,0.36638653,0.7350252,-0.82225317,3.0672948,0.0,0.026709253,-0.018445345,0.088953435,0.0,0.0,0.0,0.0,0.0,0.0,0.007855125,-0.037592907,-0.7169773
219770861,0.36638653,0.7350252,-0.82225317,3.0672948,0.0,0.027714536,-0.0262953,0.11277056,0.0,0.0,0.0,0.0,0.0,0.0,0.013403741,-0.03640281,-0.7127337
219870920,0.36638653,0.7350252,-0.82225317,3.0672948,0.0,0.027921895,-0.034037273,0.13345712,0.0,0.0,0.0,0.0,0.0,0.0,0.00991065,-0.033918187,-0.71040183
