timestamp,ref_timestamp,ref_lat,ref_lon,x,y,z,delta_xy[0],delta_xy[1],delta_z,vx,vy,vz,z_deriv,delta_vxy[0],delta_vxy[1],delta_vz,ax,ay,az,yaw,ref_alt,dist_bottom,dist_bottom_rate,eph,epv,evh,evv,vxy_max,vz_max,hagl_min,hagl_max,xy_valid,z_valid,v_xy_valid,v_z_valid,xy_reset_counter,z_reset_counter,vxy_reset_counter,vz_reset_counter,xy_global,z_global,dist_bottom_valid
76933869,0,0.0,0.0,0.46280223,0.2490551,-0.034615863,2.7567148e-05,0.00022730231,-0.25493774,-0.000869318,0.0034274326,-0.0023969444,-0.0008915461,0.0009313082,0.0062356098,0.003024282,-0.017151155,0.013405316,0.009007295,-3.139326,0.0,0.10024826,0.0023969444,0.00537764,0.003702753,0.025851008,0.017166795,inf,inf,inf,inf,1,1,1,1,4,1,4,5,0,0,0
77037867,0,0.0,0.0,0.462886,0.24909793,-0.03462745,2.7567148e-05,0.00022730231,-0.25493774,-0.00029912958,0.0035776682,-0.002956105,-0.0014260547,0.0009313082,0.0062356098,0.003024282,0.005615521,0.010724474,-0.0020895198,-3.139346,0.0,0.100301236,0.002956105,0.005240304,0.0036068715,0.025926009,0.017211542,inf,inf,inf,inf,1,1,1,1,4,1,4,5,0,0,0
77141869,0,0.0,0.0,0.46300244,0.24916191,-0.034701068,2.7567148e-05,0.00022730231,-0.25493774,0.00027152832,0.003568744,-0.002994373,-0.0014483501,0.0009313082,0.0062356098,0.003024282,0.017122691,0.015643978,-0.015846148,-3.1393688,0.0,0.100366086,0.002994373,0.005269892,0.0036196448,0.026264872,0.017408594,inf,inf,inf,inf,1,1,1,1,4,1,4,5,0,0,0
77237912,0,0.0,0.0,0.46314532,0.24924718,-0.034752894,2.7567148e-05,0.00022730231,-0.25493774,1.663858e-05,0.004121995,-0.0026705335,-0.0011223683,0.0009313082,0.0062356098,0.003024282,-0.01954019,0.055964332,-0.04541262,-3.1395133,0.0,0.10038309,0.0026705335,0.005174316,0.0035557698,0.026013747,0.017259417,inf,inf,inf,inf,1,1,1,1,4,1,4,5,0,0,0
77341869,0,0.0,0.0,0.46326774,0.24931963,-0.034775548,2.7567148e-05,0.00022730231,-0.25493774,0.000578831,0.0038142316,-0.0027362637,-0.0011726563,0.0009313082,0.0062356098,0.003024282,0.048383337,-0.33349505,-0.012965004,-3.1389816,0.0,0.10039083,0.0027362637,0.005267245,0.0036146617,0.026230203,0.017387427,inf,inf,inf,inf,1,1,1,1,4,1,4,5,0,0,0
77445875,0,0.0,0.0,0.4633654,0.24948806,-0.03476539,2.7567148e-05,0.00022730231,-0.25493774,0.0011039051,0.0039522382,-0.0025668528,-0.0009670013,0.0009313082,0.0062356098,0.003024282,0.29297975,0.3455785,-0.03385164,-3.1391137,0.0,0.10037795,0.0025668528,0.0053488645,0.0036673283,0.02639303,0.017483547,inf,inf,inf,inf,1,1,1,1,4,1,4,5,0,0,0
77541869,0,0.0,0.0,0.46344262,0.24958429,-0.034773283,2.7567148e-05,0.00022730231,-0.25493774,0.0005445346,0.0037314494,-0.0027383717,-0.0011234006,0.0009313082,0.0062356098,0.003024282,0.24714497,-0.2441727,-0.030248245,-3.139461,0.0,0.100373946,0.0027383717,0.0052574575,0.0036095942,0.026054151,0.017285144,inf,inf,inf,inf,1,1,1,1,4,1,4,5,0,0,0
77645868,0,0.0,0.0,0.46349958,0.24963805,-0.03485064,2.7567148e-05,0.00022730231,-0.25493774,-1.6072578e-05,0.004274701,-0.00334986,-0.0017306684,0.0009313082,0.0062356098,0.003024282,0.026031401,-0.04331787,0.015911562,-3.139639,0.0,0.100436985,0.00334986,0.005352752,0.003670344,0.026346752,0.017456872,inf,inf,inf,inf,1,1,1,1,4,1,4,5,0,0,0
77749875,0,0.0,0.0,0.46352834,0.24970968,-0.034992896,2.7567148e-05,0.00022730231,-0.25493774,0.00041443232,0.0045904536,-0.004668421,-0.003046422,0.0009313082,0.0062356098,0.003024282,0.09302367,0.29671666,-0.09125623,-3.1392307,0.0,0.100542456,0.004668421,0.005448974,0.003732274,0.026589092,0.017598877,inf,inf,inf,inf,1,1,1,1,4,1,4,5,0,0,0
77853906,0,0.0,0.0,0.4635947,0.24978642,-0.035143994,2.7567148e-05,0.00022730231,-0.25493774,-8.223964e-05,0.0049914713,-0.0044607185,-0.0028327692,0.0009313082,0.0062356098,0.003024282,-0.17148949,0.21982159,-0.04777214,-3.1392941,0.0,0.100586414,0.0044607185,0.0055075195,0.0037709877,0.026681835,0.01765403,inf,inf,inf,inf,1,1,1,1,4,1,4,5,0,0,0
77957883,0,0.0,0.0,0.46369782,0.24980682,-0.035256825,2.7567148e-05,0.00022730231,-0.25493774,0.0038393426,0.00568718,-0.004839924,-0.0031926646,0.0009313082,0.0062356098,0.003024282,-0.08770927,0.23089644,0.14832987,-3.1391835,0.0,0.10062436,0.004839924,0.005180877,0.003560287,0.025838945,0.01715662,inf,inf,inf,inf,1,1,1,1,4,1,4,5,0,0,0
78053880,0,0.0,0.0,0.4638281,0.24983506,-0.0353743,2.7567148e-05,0.00022730231,-0.25493774,0.00068845693,0.0031729254,-0.0038101901,-0.002143489,0.0009313082,0.0062356098,0.003024282,0.6106965,0.27422848,-0.16835022,-3.138681,0.0,0.100666925,0.0038101901,0.0051154476,0.003517492,0.025690362,0.017069113,inf,inf,inf,inf,1,1,1,1,4,1,4,5,0,0,0
78157869,0,0.0,0.0,0.46390307,0.24991691,-0.035430964,2.7567148e-05,0.00022730231,-0.25493774,-0.0013185688,0.0010277206,-0.002967559,-0.0012696198,0.0009313082,0.0062356098,0.003024282,-0.48025733,-1.3870187,0.18945515,-3.139604,0.0,0.100650966,0.002967559,0.0051711733,0.003553898,0.02581805,0.017146695,inf,inf,inf,inf,1,1,1,1,4,1,4,5,0,0,0
78261869,0,0.0,0.0,0.4638606,0.24971163,-0.03540257,2.7567148e-05,0.00022730231,-0.25493774,0.0014361715,0.004862682,-0.0052790917,-0.0035210461,0.0009313082,0.0062356098,0.003024282,0.34925896,-0.40866095,-0.23604535,-3.1400251,0.0,0.10062398,0.0052790917,0.0052783974,0.00362216,0.02616511,0.017349051,inf,inf,inf,inf,1,1,1,1,4,1,4,5,0,0,0
78357878,0,0.0,0.0,0.46372217,0.24970493,-0.035356134,2.7567148e-05,0.00022730231,-0.25493774,-0.0011886877,0.002784944,-0.0018611199,-4.8788286e-05,0.0009313082,0.0062356098,0.003024282,-0.45167342,0.5866247,0.1345552,-3.1402786,0.0,0.10062889,0.0018611199,0.0052114544,0.0035793504,0.025951818,0.017223626,inf,inf,inf,inf,1,1,1,1,4,1,4,5,0,0,0
78461918,0,0.0,0.0,0.4635308,0.24968055,-0.03528409,2.7567148e-05,0.00022730231,-0.25493774,0.00040692327,0.00432623,-0.0019468499,-9.825072e-05,0.0009313082,0.0062356098,0.003024282,0.124100864,-0.15931858,-0.05604569,-3.140374,0.0,0.10056181,0.0019468499,0.0052772313,0.003622472,0.026089627,0.017306903,inf,inf,inf,inf,1,1,1,1,4,1,4,5,0,0,0
78565904,0,0.0,0.0,0.46334362,0.24955048,-0.035179768,2.7567148e-05,0.00022730231,-0.25493774,-0.00081563235,0.0031128945,-0.0019294389,-5.173926e-05,0.0009313082,0.0062356098,0.003024282,0.02167861,-0.20254067,-0.036105648,-3.140142,0.0,0.1004978,0.0019294389,0.005340273,0.0036633841,0.026251363,0.017401803,inf,inf,inf,inf,1,1,1,1,4,1,4,5,0,0,0
78661875,0,0.0,0.0,0.46320045,0.24956726,-0.035048865,2.7567148e-05,0.00022730231,-0.25493774,1.6724978e-05,0.0029595683,-0.0009172674,0.00097470416,0.0009313082,0.0062356098,0.003024282,-0.3856561,0.1755774,-0.05168209,-3.140255,0.0,0.10040489,0.0009172674,0.0052504935,0.0036054414,0.026022378,0.01726658,inf,inf,inf,inf,1,1,1,1,4,1,4,5,0,0,0
78765869,0,0.0,0.0,0.46312577,0.24955499,-0.03494221,2.7567148e-05,0.00022730231,-0.25493774,0.0029465642,0.005449025,-0.0010328796,0.00084177835,0.0009313082,0.0062356098,0.003024282,1.715704,0.17204031,0.10681966,-3.1400928,0.0,0.10031205,0.0010328796,0.0053280024,0.003655121,0.026244253,0.017398242,inf,inf,inf,inf,1,1,1,1,4,1,4,5,0,0,0
78869869,0,0.0,0.0,0.46320823,0.24961379,-0.034967124,2.7567148e-05,0.00022730231,-0.25493774,0.0029403868,0.0015043004,-0.0033161466,-0.0014825755,0.0009313082,0.0062356098,0.003024282,0.834683,-0.755703,0.2725628,-3.13969,0.0,0.10036036,0.0033161466,0.0054019056,0.0037025923,0.026446331,0.017517576,inf,inf,inf,inf,1,1,1,1,4,1,4,5,0,0,0
78973891,0,0.0,0.0,0.46346065,0.249846,-0.035298254,2.7567148e-05,0.00022730231,-0.25493774,0.0007063525,0.008891966,-0.008538335,-0.0067669875,0.0009313082,0.0062356098,0.003024282,-1.3043154,-0.18068902,0.11311943,-3.140539,0.0,0.1006915,0.008538335,0.0054683317,0.0037456346,0.026602687,0.017608864,inf,inf,inf,inf,1,1,1,1,4,1,4,5,0,0,0
79069922,0,0.0,0.0,0.46371832,0.250167,-0.035627726,2.7567148e-05,0.00022730231,-0.25493774,-0.0019287198,-0.0017155656,-0.007211658,-0.0055710333,0.0009313082,0.0062356098,0.003024282,-1.6089458,-2.0466323,-0.454782,-3.1407397,0.0,0.10102096,0.007211658,0.0053967177,0.0036989825,0.02644556,0.017514242,inf,inf,inf,inf,1,1,1,1,4,1,4,5,0,0,0
79173872,0,0.0,0.0,0.46396145,0.25015172,-0.03583252,2.7567148e-05,0.00022730231,-0.25493774,0.0077526234,0.012255375,-0.009163275,-0.007669548,0.0009313082,0.0062356098,0.003024282,1.7632097,1.3620996,-1.1770909,-3.1406944,0.0,0.10122576,0.009163275,0.0051122983,0.0035150119,0.025692074,0.017072475,inf,inf,inf,inf,1,1,1,1,4,1,4,5,0,0,0
79277875,0,0.0,0.0,0.46405622,0.25024602,-0.035928637,2.7567148e-05,0.00022730231,-0.25493774,0.0004981343,0.0024598616,-0.008530255,-0.00708279,0.0009313082,0.0062356098,0.003024282,1.0503663,0.9096713,-3.3909085,-3.1406698,0.0,0.101321876,0.008530255,0.0051856763,0.0035628793,0.025871621,0.017175116,inf,inf,inf,inf,1,1,1,1,4,1,4,5,0,0,0
79381888,0,0.0,0.0,0.46406147,0.25022578,-0.036014803,2.7567148e-05,0.00022730231,-0.25493774,0.0011320654,0.0054194806,0.0069107427,0.008388907,0.0009313082,0.0062356098,0.003024282,0.20519187,-0.2850833,0.8981204,-3.1409013,0.0,0.10140804,-0.0069107427,0.0052655665,0.0036147628,0.0260744,0.017293844,inf,inf,inf,inf,1,1,1,1,4,1,4,5,0,0,0
79477914,0,0.0,0.0,0.46392336,0.2500784,-0.03600453,2.7567148e-05,0.00022730231,-0.25493774,-0.00032923796,-0.0013256415,-0.011023637,-0.009504433,0.0009313082,0.0062356098,0.003024282,-0.8435148,-1.0000472,-0.5118032,-3.1408508,0.0,0.10139777,0.011023637,0.0051863985,0.0035637359,0.025852745,0.017167296,inf,inf,inf,inf,1,1,1,1,4,1,4,5,0,0,0
79581891,0,0.0,0.0,0.46390906,0.2500845,-0.03628255,2.7567148e-05,0.00022730231,-0.25493774,-5.6723875e-06,-0.0025066151,-0.0057205893,-0.0042535807,0.0009313082,0.0062356098,0.003024282,-0.56622493,-2.4306722,0.74733925,-3.1409957,0.0,0.10167579,0.0057205893,0.005266003,0.00361499,0.026091075,0.017303033,inf,inf,inf,inf,1,1,1,1,4,1,4,5,0,0,0
79685868,0,0.0,0.0,0.46366572,0.24984853,-0.036495335,2.7567148e-05,0.00022730231,-0.25493774,0.0021552262,-0.005085495,-0.0024430212,-0.0010495869,0.0009313082,0.0062356098,0.003024282,-0.5074964,-3.4214342,2.403455,-3.1409807,0.0,0.101888575,0.0024430212,0.0053211604,0.0036509663,0.026218817,0.017376792,inf,inf,inf,inf,1,1,1,1,4,1,4,5,0,0,0
79781876,0,0.0,0.0,0.46365854,0.24980798,-0.036920276,2.7567148e-05,0.00022730231,-0.25493774,0.0012458157,-0.005529764,-0.0048061563,-0.003439455,0.0009313082,0.0062356098,0.003024282,-0.32279825,-4.150362,2.9425955,-3.140486,0.0,0.10231352,0.0048061563,0.0052390806,0.0035980416,0.025982475,0.017242853,inf,inf,inf,inf,1,1,1,1,4,1,4,5,0,0,0
79885895,0,0.0,0.0,0.46380508,0.24960841,-0.037329018,2.7567148e-05,0.00022730231,-0.25493774,0.001060382,0.0010456889,-0.0075039207,-0.006114736,0.0009313082,0.0062356098,0.003024282,0.6647963,-0.77042437,-2.5868902,-3.1406121,0.0,0.10272226,0.0075039207,0.0053228186,0.003651561,0.026247311,0.017393637,inf,inf,inf,inf,1,1,1,1,4,1,4,5,0,0,0
79989877,0,0.0,0.0,0.46404874,0.24943984,-0.037801642,2.7567148e-05,0.00022730231,-0.25493774,0.005801176,-0.005034763,-0.005354241,-0.003890539,0.0009313082,0.0062356098,0.003024282,0.4515137,-0.031711347,2.6955514,-3.1406245,0.0,0.10319488,0.005354241,0.005392405,0.0036967832,0.02638172,0.01747955,inf,inf,inf,inf,1,1,1,1,4,1,4,5,0,0,0
80093885,0,0.0,0.0,0.46425274,0.24931991,-0.038288,2.7567148e-05,0.00022730231,-0.25493774,0.0044281883,0.008761125,-0.014247175,-0.012663642,0.0009313082,0.0062356098,0.003024282,-0.7984667,-2.3351204,-1.9147797,-3.1406178,0.0,0.10368124,0.014247175,0.0054777735,0.003751426,0.026636735,0.017621053,inf,inf,inf,inf,1,1,1,1,4,1,4,5,0,0,0
80189875,0,0.0,0.0,0.4643874,0.2491531,-0.038707998,2.7567148e-05,0.00022730231,-0.25493774,-0.004985645,-0.015734851,-0.010896178,-0.009229642,0.0009313082,0.0062356098,0.003024282,-0.61218596,-4.26826,1.2156743,-3.1397479,0.0,0.10410124,0.010896178,0.005400548,0.003701406,0.026459794,0.017514244,inf,inf,inf,inf,1,1,1,1,4,1,4,5,0,0,0
80293869,0,0.0,0.0,0.46463907,0.24879609,-0.039104182,2.7567148e-05,0.00022730231,-0.25493774,0.0032058624,0.0024228562,-0.013775607,-0.011959276,0.0009313082,0.0062356098,0.003024282,-1.7177413,-1.4594643,-2.8645265,-3.1396883,0.0,0.10449742,0.013775607,0.0051131137,0.003515485,0.025688436,0.017071823,inf,inf,inf,inf,1,1,1,1,4,1,4,5,0,0,0
80397869,0,0.0,0.0,0.46465087,0.2487634,-0.03936525,2.7567148e-05,0.00022730231,-0.25493774,0.0074941646,-0.0027146048,-0.007537814,-0.0054727267,0.0009313082,0.0062356098,0.003024282,-0.62522113,-3.1456692,0.40367162,-3.1401262,0.0,0.104758486,0.007537814,0.005610541,0.0038357594,0.02699421,0.01783712,inf,inf,inf,inf,1,1,1,1,4,1,4,5,0,0,0
80493869,0,0.0,0.0,0.46475634,0.24844563,-0.03956147,2.7567148e-05,0.00022730231,-0.25493774,0.001610489,0.01428057,-0.0051494585,-0.0028576825,0.0009313082,0.0062356098,0.003024282,1.0962049,5.5517526,0.13971789,-3.1393442,0.0,0.104954705,0.0051494585,0.00509275,0.0035034025,0.025575548,0.017004455,inf,inf,inf,inf,1,1,1,1,4,1,4,5,0,0,0
80597892,0,0.0,0.0,0.46484965,0.24853365,-0.039663,2.7567148e-05,0.00022730231,-0.25493774,0.008271922,0.012384334,-0.006016165,-0.0035264401,0.0009313082,0.0062356098,0.003024282,1.1350797,4.002599,0.9774847,-3.1387868,0.0,0.10505624,0.006016165,0.00517351,0.003555095,0.025841149,0.017158125,inf,inf,inf,inf,1,1,1,1,4,1,4,5,0,0,0
80701869,0,0.0,0.0,0.46466684,0.24832025,-0.039522465,2.7567148e-05,0.00022730231,-0.25493774,-0.0013412548,0.022140028,0.0015260857,0.004149243,0.0009313082,0.0062356098,0.003024282,-0.14100482,6.2019815,1.136403,-3.1380806,0.0,0.10491571,-0.0015260857,0.005260963,0.0036112836,0.026085146,0.017306296,inf,inf,inf,inf,1,1,1,1,4,1,4,5,0,0,0
80797869,0,0.0,0.0,0.46459964,0.24865627,-0.039656926,2.7567148e-05,0.00022730231,-0.25493774,0.010197613,0.0003092738,-0.009602029,-0.0069533056,0.0009313082,0.0062356098,0.003024282,1.4417597,3.269359,2.3296928,-3.137675,0.0,0.10505016,0.009602029,0.005185888,0.0035630234,0.02586566,0.017175056,inf,inf,inf,inf,1,1,1,1,4,1,4,5,0,0,0
80901869,0,0.0,0.0,0.46448943,0.24829073,-0.03984056,2.7567148e-05,0.00022730231,-0.25493774,0.008725925,0.004651266,0.004269668,0.0068699843,0.0009313082,0.0062356098,0.003024282,1.2602589,0.85162735,1.2098124,-3.1365283,0.0,0.1052338,-0.004269668,0.005233153,0.0035944725,0.025947837,0.017230162,inf,inf,inf,inf,1,1,1,1,4,1,4,5,0,0,0
81005869,0,0.0,0.0,0.4639151,0.24853246,-0.039888363,2.7567148e-05,0.00022730231,-0.25493774,-0.012552279,0.008832851,-0.01256418,-0.010072751,0.0009313082,0.0062356098,0.003024282,-1.3857028,-1.5017927,-3.8235176,-3.1367164,0.0,0.10528161,0.01256418,0.0053205932,0.0036500355,0.026234224,0.017395023,inf,inf,inf,inf,1,1,1,1,4,1,4,5,0,0,0
81101937,0,0.0,0.0,0.46376693,0.24872106,-0.040260825,2.7567148e-05,0.00022730231,-0.25493774,0.0002773884,0.020300625,-0.013476863,-0.011052536,0.0009313082,0.0062356098,0.003024282,0.3158584,3.959824,-3.0090454,-3.1369302,0.0,0.10565406,0.013476863,0.005276423,0.0036209591,0.026130332,0.017336696,inf,inf,inf,inf,1,1,1,1,4,1,4,5,0,0,0
81205869,0,0.0,0.0,0.4634661,0.24939905,-0.0405012,2.7567148e-05,0.00022730231,-0.25493774,-0.0068488247,-0.0077740247,-0.0010360909,0.0013022604,0.0009313082,0.0062356098,0.003024282,-1.6341394,-3.9797184,-1.6146339,-3.1384482,0.0,0.10589444,0.0010360909,0.005343178,0.003665061,0.026283154,0.017419556,inf,inf,inf,inf,1,1,1,1,4,1,4,5,0,0,0
81309869,0,0.0,0.0,0.46201414,0.24964951,-0.03992472,2.7567148e-05,0.00022730231,-0.25493774,-0.018361475,-0.015575748,0.0070145237,0.009225542,0.0009313082,0.0062356098,0.003024282,-3.8987753,-4.3177648,0.73555154,-3.139586,0.0,0.10531796,-0.0070145237,0.0054222774,0.0037159526,0.02647928,0.017538015,inf,inf,inf,inf,1,1,1,1,4,1,4,5,0,0,0
81405869,0,0.0,0.0,0.4602043,0.24942735,-0.038979437,2.7567148e-05,0.00022730231,-0.25493774,-0.012195357,-0.010807578,-0.0012881125,0.0009207564,0.0009313082,0.0062356098,0.003024282,4.389797,2.5654407,-0.93615633,-3.1387727,0.0,0.10437268,0.0012881125,0.005319968,0.0036510136,0.026180094,0.017373495,inf,inf,inf,inf,1,1,1,1,4,1,4,5,0,0,0
81509868,0,0.0,0.0,0.45912483,0.24964686,-0.038052116,2.7567148e-05,0.00022730231,-0.25493774,-0.011878078,0.0027200398,0.0025382934,0.0048239753,0.0009313082,0.0062356098,0.003024282,4.8975153,-0.46658206,1.0461519,-3.1390593,0.0,0.10344535,-0.0025382934,0.0050341506,0.0034657612,0.02546001,0.016952142,inf,inf,inf,inf,1,1,1,1,4,1,4,5,0,0,0
81613919,0,0.0,0.0,0.45814374,0.25006267,-0.037142497,2.7567148e-05,0.00022730231,-0.25493774,-0.00016335028,0.02030164,0.013281721,0.015464506,0.0009313082,0.0062356098,0.003024282,8.131535,4.808148,3.4053965,-3.1392288,0.0,0.10253574,-0.013281721,0.0051337425,0.0035297254,0.025777172,0.017131811,inf,inf,inf,inf,1,1,1,1,4,1,4,5,0,0,0
81717096,0,0.0,0.0,0.45783958,0.25025827,-0.03642555,2.7567148e-05,0.00022730231,-0.25493774,-0.011316345,0.016974712,0.012834882,0.014705605,0.0009313082,0.0062356098,0.003024282,5.6858287,6.896892,3.5085132,-3.1380749,0.0,0.101818785,-0.012834882,0.0051823207,0.0035620194,0.025842698,0.017178275,inf,inf,inf,inf,1,1,1,1,4,1,4,5,0,0,0
81813068,0,0.0,0.0,0.4579111,0.25005928,-0.03609688,2.7567148e-05,0.00022730231,-0.25493774,-0.020743176,-0.030971315,0.00065385504,0.0021005028,0.0009313082,0.0062356098,0.003024282,-8.53025,-11.20302,-2.460062,-3.1398525,0.0,0.10149012,-0.00065385504,0.005487112,0.0037587422,0.026643422,0.01763017,inf,inf,inf,inf,1,1,1,1,4,1,4,5,0,0,0
81917869,0,0.0,0.0,0.4588409,0.25001997,-0.035655413,2.7567148e-05,0.00022730231,-0.25493774,0.00480575,0.026187874,0.016958442,0.017827379,0.0009313082,0.0062356098,0.003024282,3.1873934,6.3863025,-1.0805546,-3.1389685,0.0,0.10104865,-0.016958442,0.0051773028,0.003558087,0.025850214,0.017160987,inf,inf,inf,inf,1,1,1,1,4,1,4,5,0,0,0
82021083,0,0.0,0.0,0.4605574,0.2502296,-0.035007518,2.7567148e-05,0.00022730231,-0.25493774,-0.0060328436,0.011229469,0.0028577005,0.0031479867,0.0009313082,0.0062356098,0.003024282,-5.452131,-0.89339375,-2.6403148,-3.1397638,0.0,0.10040076,-0.0028577005,0.0052593555,0.0036118939,0.026109839,0.017330987,inf,inf,inf,inf,1,1,1,1,4,1,4,5,0,0,0
82117080,0,0.0,0.0,0.46217304,0.25064424,-0.034681365,2.7567148e-05,0.00022730231,-0.25493774,-0.0011578114,0.0065166303,-0.00035260263,-0.00055817387,0.0009313082,0.0062356098,0.003024282,-7.564509,1.6918833,-2.189062,-3.1393416,0.0,0.100074604,0.00035260263,0.005177284,0.0035585244,0.025870414,0.017191643,inf,inf,inf,inf,1,1,1,1,4,1,4,5,0,0,0
82219510,0,0.0,0.0,0.46336138,0.2508106,-0.034664903,2.7567148e-05,0.00022730231,-0.25493774,0.017706484,0.0076317037,0.0032195302,0.0024424263,0.0009313082,0.0062356098,0.003024282,5.0940933,0.13860783,2.3168314,-3.1403387,0.0,0.10005814,-0.0032195302,0.0052156,0.00358392,0.025889125,0.01720126,inf,inf,inf,inf,1,1,1,1,4,1,4,5,0,0,0
82321870,0,0.0,0.0,0.46477446,0.25021145,-0.035282142,2.7567148e-05,0.00022730231,-0.25493774,0.0028352886,-0.013810501,-0.0025708,-0.0039435015,0.0009313082,0.0062356098,0.003024282,-1.1218128,-8.300392,-1.6793497,-3.1395485,0.0,0.10067538,0.0025708,0.005277345,0.003623537,0.02610636,0.017320232,inf,inf,inf,inf,1,1,1,1,4,1,4,5,0,0,0
82425869,0,0.0,0.0,0.46535388,0.25013348,-0.0359712,2.7567148e-05,0.00022730231,-0.25493774,0.009418681,-0.00068894733,-0.007301653,-0.009225498,0.0009313082,0.0062356098,0.003024282,-1.3144591,-0.8584627,-2.497059,-3.1402972,0.0,0.101364434,0.007301653,0.005278714,0.0036239314,0.026019728,0.017251113,inf,inf,inf,inf,1,1,1,1,4,1,4,5,0,0,0
82529097,0,0.0,0.0,0.465807,0.24953638,-0.036786564,2.7567148e-05,0.00022730231,-0.25493774,0.012844501,-0.0057184882,-0.00045360695,-0.0027939486,0.0009313082,0.0062356098,0.003024282,4.114892,0.47795293,2.2625272,-3.1403537,0.0,0.1021798,0.00045360695,0.005358516,0.0036743565,0.026281036,0.017407345,inf,inf,inf,inf,1,1,1,1,4,1,4,5,0,0,0
82625869,0,0.0,0.0,0.46606275,0.2490764,-0.037601404,2.7567148e-05,0.00022730231,-0.25493774,0.014167935,-0.009100425,-0.006588771,-0.009189769,0.0009313082,0.0062356098,0.003024282,-0.7272518,-1.0001807,-4.7739677,-3.1412249,0.0,0.10299464,0.006588771,0.005292048,0.003630778,0.026160406,0.017336221,inf,inf,inf,inf,1,1,1,1,4,1,4,5,0,0,0
82729077,0,0.0,0.0,0.46581593,0.24773172,-0.038727578,2.7567148e-05,0.00022730231,-0.25493774,0.0049399617,-0.017099505,-0.0038995813,-0.0066242265,0.0009313082,0.0062356098,0.003024282,1.0492659,-4.899182,-0.83670706,3.1413147,0.0,0.10412082,0.0038995813,0.005401708,0.0037010447,0.026491951,0.017530795,inf,inf,inf,inf,1,1,1,1,4,1,4,5,0,0,0
82833111,0,0.0,0.0,0.4651837,0.24703225,-0.039978802,2.7567148e-05,0.00022730231,-0.25493774,0.0016499409,-0.011036725,-0.008385686,-0.011034537,0.0009313082,0.0062356098,0.003024282,-2.0119736,-5.72315,-0.360209,3.1403942,0.0,0.10537204,0.008385686,0.005121875,0.0035211644,0.02574384,0.017104803,inf,inf,inf,inf,1,1,1,1,4,1,4,5,0,0,0
82929068,0,0.0,0.0,0.46476588,0.24656644,-0.041002512,2.7567148e-05,0.00022730231,-0.25493774,-0.020364972,-0.00588008,-0.010903264,-0.013327506,0.0009313082,0.0062356098,0.003024282,-2.221679,-1.85605,1.1741892,3.1396668,0.0,0.10639575,0.010903264,0.005375745,0.003686676,0.026328703,0.017449329,inf,inf,inf,inf,1,1,1,1,4,1,4,5,0,0,0
83033078,0,0.0,0.0,0.4638007,0.24649195,-0.041678272,2.7567148e-05,0.00022730231,-0.25493774,-0.0032499912,0.005149828,-0.009331981,-0.011418708,0.0009313082,0.0062356098,0.003024282,-0.423677,2.3147085,-0.35125798,3.1398664,0.0,0.10707151,0.009331981,0.0054194424,0.0037147987,0.026445545,0.017513558,inf,inf,inf,inf,1,1,1,1,4,1,4,5,0,0,0
83137084,0,0.0,0.0,0.46372116,0.24657793,-0.042487893,2.7567148e-05,0.00022730231,-0.25493774,0.009954035,0.0116289565,-0.00953045,-0.01114357,0.0009313082,0.0062356098,0.003024282,2.215402,3.844887,0.33223316,3.1395056,0.0,0.10788113,0.00953045,0.005159519,0.0035454677,0.025878374,0.017189244,inf,inf,inf,inf,1,1,1,1,4,1,4,5,0,0,0
83233088,0,0.0,0.0,0.4634407,0.24741627,-0.04291237,2.7567148e-05,0.00022730231,-0.25493774,-0.010803201,0.00819331,-0.013647038,-0.014820752,0.0009313082,0.0062356098,0.003024282,-1.7112387,0.68717587,-1.9270046,3.1376014,0.0,0.10830561,0.013647038,0.0051111947,0.003514258,0.025725426,0.017094987,inf,inf,inf,inf,1,1,1,1,4,1,4,5,0,0,0
83337096,0,0.0,0.0,0.46315917,0.2481938,-0.043068446,2.7567148e-05,0.00022730231,-0.25493774,0.006830691,0.0035636798,-0.00765003,-0.008441449,0.0009313082,0.0062356098,0.003024282,2.1898954,-2.9493864,0.16962369,3.135973,0.0,0.108461685,0.00765003,0.005144455,0.0035369315,0.025728812,0.017083228,inf,inf,inf,inf,1,1,1,1,4,1,4,5,0,0,0
83441086,0,0.0,0.0,0.4627446,0.2485729,-0.042860627,2.7567148e-05,0.00022730231,-0.25493774,-0.020602617,-0.009365245,-0.0044258498,-0.0048585734,0.0009313082,0.0062356098,0.003024282,-4.417155,0.12502638,0.48106322,3.1351569,0.0,0.10825387,0.0044258498,0.005216342,0.0035838857,0.025911072,0.017209997,inf,inf,inf,inf,1,1,1,1,4,1,4,5,0,0,0
83545069,0,0.0,0.0,0.46174785,0.24833801,-0.042689655,2.7567148e-05,0.00022730231,-0.25493774,-0.009054157,0.014809104,0.004916703,0.004828621,0.0009313082,0.0062356098,0.003024282,1.6050897,2.7504857,1.2060485,3.1347458,0.0,0.10808289,-0.004916703,0.005311745,0.0036448268,0.026215622,0.017389743,inf,inf,inf,inf,1,1,1,1,4,1,4,5,0,0,0
83649077,0,0.0,0.0,0.46150643,0.24836235,-0.04341354,2.7567148e-05,0.00022730231,-0.25493774,-0.0011747734,-0.00052759645,-0.024842998,-0.024603313,0.0009313082,0.0062356098,0.003024282,-1.6859428,-2.6206758,-1.7746257,3.1352766,0.0,0.108806774,0.024842998,0.0053796363,0.0036888397,0.026403762,0.017500576,inf,inf,inf,inf,1,1,1,1,4,1,4,5,0,0,0
83745077,0,0.0,0.0,0.46254724,0.24975719,-0.0447968,2.7567148e-05,0.00022730231,-0.25493774,0.0020472612,0.021263711,-0.027779603,-0.027424384,0.0009313082,0.0062356098,0.003024282,-1.7861269,1.2020085,-1.2321047,3.1344814,0.0,0.110190034,0.027779603,0.0053029624,0.003639479,0.02619091,0.017370716,inf,inf,inf,inf,1,1,1,1,4,1,4,5,0,0,0
83849071,0,0.0,0.0,0.46510097,0.2521254,-0.048788868,2.7567148e-05,0.00022730231,-0.25493774,0.028534118,0.00956494,-0.040946987,-0.04078366,0.0009313082,0.0062356098,0.003024282,-2.5540676,-5.823472,-1.2859167,3.1361525,0.0,0.11418211,0.040946987,0.0053847157,0.0036916793,0.02640951,0.01748323,inf,inf,inf,inf,1,1,1,1,4,1,4,5,0,0,0
83953109,0,0.0,0.0,0.47011906,0.25596112,-0.051695127,2.7567148e-05,0.00022730231,-0.25493774,0.03487019,0.025093812,-0.026807094,-0.027160302,0.0009313082,0.0062356098,0.003024282,-4.278909,0.6621882,-0.2724931,3.1368172,0.0,0.11708836,0.026807094,0.0050787763,0.00349327,0.02562534,0.017006386,inf,inf,inf,inf,1,1,1,1,4,1,4,5,0,0,0
84057072,0,0.0,0.0,0.4766699,0.26077035,-0.05396447,2.7567148e-05,0.00022730231,-0.25493774,0.06041332,0.052352652,-0.010078077,-0.010646987,0.0009313082,0.0062356098,0.003024282,-1.5243671,-0.06248199,-0.49660572,3.1395319,0.0,0.119357705,0.010078077,0.0051720315,0.0035524238,0.025860507,0.017170662,inf,inf,inf,inf,1,1,1,1,4,1,4,5,0,0,0
84153069,0,0.0,0.0,0.48433036,0.267741,-0.055639423,2.7567148e-05,0.00022730231,-0.25493774,0.07146506,0.06195639,-0.038931202,-0.038964987,0.0009313082,0.0062356098,0.003024282,-3.6940298,-0.8632468,0.18446793,-3.1410334,0.0,0.12103266,0.038931202,0.005114904,0.0035161697,0.025710616,0.017081553,inf,inf,inf,inf,1,1,1,1,4,1,4,5,0,0,0
84257069,0,0.0,0.0,0.4957059,0.27839786,-0.059055813,2.7567148e-05,0.00022730231,-0.25493774,0.11761272,0.09884124,-0.052252874,-0.051299788,0.0009313082,0.0062356098,0.003024282,0.68133533,-1.046811,-2.083589,-3.1390154,0.0,0.12444905,0.052252874,0.0051717483,0.0035543435,0.025795462,0.0171475,inf,inf,inf,inf,1,1,1,1,4,1,4,5,0,0,0
84361069,0,0.0,0.0,0.51120853,0.29303354,-0.06450557,2.7567148e-05,0.00022730231,-0.25493774,0.12461319,0.109766334,-0.068694316,-0.06719886,0.0009313082,0.0062356098,0.003024282,-4.0415726,-4.763073,1.7808226,-3.1395898,0.0,0.12989882,0.068694316,0.005262222,0.0036120717,0.026105288,0.017309055,inf,inf,inf,inf,1,1,1,1,4,1,4,5,0,0,0
84465076,0,0.0,0.0,0.53051656,0.31129465,-0.07166639,2.7567148e-05,0.00022730231,-0.25493774,0.15915704,0.16038007,-0.07729084,-0.07594868,0.0009313082,0.0062356098,0.003024282,-2.4517684,-1.2809541,0.8004105,3.1402943,0.0,0.13705963,0.07729084,0.005322255,0.003650565,0.02626847,0.01738934,inf,inf,inf,inf,1,1,1,1,4,1,4,5,0,0,0
84561082,0,0.0,0.0,0.5516491,0.33145174,-0.079425946,2.7567148e-05,0.00022730231,-0.25493774,0.20234877,0.18648553,-0.07990485,-0.079118475,0.0009313082,0.0062356098,0.003024282,2.8776731,-1.4152006,0.105633244,3.1365604,0.0,0.14481919,0.07990485,0.005242634,0.0035986393,0.026053885,0.017252794,inf,inf,inf,inf,1,1,1,1,4,1,4,5,0,0,0
84665077,0,0.0,0.0,0.57791907,0.3555745,-0.08813368,2.7567148e-05,0.00022730231,-0.25493774,0.22571446,0.19529751,-0.079026155,-0.07875002,0.0009313082,0.0062356098,0.003024282,-0.25822148,-2.8373978,-0.8878846,3.1312268,0.0,0.15352692,0.079026155,0.005327363,0.0036524928,0.026292859,0.017405285,inf,inf,inf,inf,1,1,1,1,4,1,4,5,0,0,0
84769071,0,0.0,0.0,0.60636586,0.38066843,-0.09610658,2.7567148e-05,0.00022730231,-0.25493774,0.2334641,0.21118015,-0.07764039,-0.07737156,0.0009313082,0.0062356098,0.003024282,-3.9775226,0.9824484,0.21584181,3.1238213,0.0,0.16149983,0.07764039,0.00539698,0.0036983807,0.02641847,0.017494965,inf,inf,inf,inf,1,1,1,1,4,1,4,5,0,0,0
84865080,0,0.0,0.0,0.63253605,0.40117896,-0.10103377,2.7567148e-05,0.00022730231,-0.25493774,0.23709193,0.18265873,-0.044431064,-0.04338962,0.0009313082,0.0062356098,0.003024282,-2.8917983,-0.9795509,0.44856003,3.1142385,0.0,0.16642702,0.044431064,0.0053271875,0.0036540849,0.026248036,0.017413156,inf,inf,inf,inf,1,1,1,1,4,1,4,5,0,0,0
84969075,0,0.0,0.0,0.65899545,0.42028317,-0.10213757,2.7567148e-05,0.00022730231,-0.25493774,0.22532828,0.15247521,-0.010610374,-0.007759244,0.0009313082,0.0062356098,0.003024282,-0.44914043,-1.4820516,1.6994367,3.1039054,0.0,0.1675308,0.010610374,0.005415355,0.0037119717,0.026472216,0.017550232,inf,inf,inf,inf,1,1,1,1,4,1,4,5,0,0,0
85073098,0,0.0,0.0,0.68184125,0.432892,-0.098438635,2.7567148e-05,0.00022730231,-0.25493774,0.19698724,0.08598407,0.012035552,0.017680684,0.0009313082,0.0062356098,0.003024282,-4.1149974,-4.896761,-1.4406961,3.0959332,0.0,0.16383187,-0.012035552,0.005103854,0.0035121155,0.02562118,0.017067282,inf,inf,inf,inf,1,1,1,1,4,1,4,5,0,0,0
85169070,0,0.0,0.0,0.6989463,0.4378808,-0.09128377,2.7567148e-05,0.00022730231,-0.25493774,0.16524637,0.03501506,0.044832457,0.053349372,0.0009313082,0.0062356098,0.003024282,-3.9377666,0.38785538,0.40157846,3.090396,0.0,0.15667701,-0.044832457,0.005387463,0.0036973874,0.026341362,0.017494047,inf,inf,inf,inf,1,1,1,1,4,1,4,5,0,0,0
85273075,0,0.0,0.0,0.7117607,0.4345826,-0.07974781,2.7567148e-05,0.00022730231,-0.25493774,0.1227842,-0.05450262,0.07672287,0.08807589,0.0009313082,0.0062356098,0.003024282,0.12808579,-4.0608664,1.5990129,3.0868459,0.0,0.14514105,-0.07672287,0.0050757607,0.0034954585,0.025560716,0.017022535,inf,inf,inf,inf,1,1,1,1,4,1,4,5,0,0,0
85377070,0,0.0,0.0,0.71756375,0.4201037,-0.06611031,2.7567148e-05,0.00022730231,-0.25493774,0.06803801,-0.12871155,0.08427773,0.09781532,0.0009313082,0.0062356098,0.003024282,-3.1202862,-1.2514609,0.41078672,3.0891871,0.0,0.13150355,-0.08427773,0.005166113,0.0035534007,0.025850613,0.017193774,inf,inf,inf,inf,1,1,1,1,4,1,4,5,0,0,0
85473071,0,0.0,0.0,0.71667,0.39876643,-0.054461382,2.7567148e-05,0.00022730231,-0.25493774,0.0216492,-0.17952111,0.06421772,0.0789273,0.0009313082,0.0062356098,0.003024282,-4.8147564,-2.2759929,-0.1815165,3.0978463,0.0,0.11985462,-0.06421772,0.0054664374,0.0037473775,0.026630621,0.017638436,inf,inf,inf,inf,1,1,1,1,4,1,4,5,0,0,0
85577081,0,0.0,0.0,0.7089527,0.3683308,-0.044629756,2.7567148e-05,0.00022730231,-0.25493774,-0.019952497,-0.22172952,0.042037655,0.056544654,0.0009313082,0.0062356098,0.003024282,2.5400991,1.8397864,0.8259004,3.1137326,0.0,0.11002299,-0.042037655,0.0051551266,0.003545029,0.025849415,0.01716799,inf,inf,inf,inf,1,1,1,1,4,1,4,5,0,0,0
85681085,0,0.0,0.0,0.6950493,0.33418652,-0.041169647,2.7567148e-05,0.00022730231,-0.25493774,-0.08052754,-0.22822398,0.007854748,0.020419287,0.0009313082,0.0062356098,0.003024282,1.4960604,1.323068,3.7571552,3.1349332,0.0,0.10656288,-0.007854748,0.0052396483,0.0035988553,0.026092887,0.017318258,inf,inf,inf,inf,1,1,1,1,4,1,4,5,0,0,0
85785069,0,0.0,0.0,0.67652553,0.2992857,-0.045259833,2.7567148e-05,0.00022730231,-0.25493774,-0.10792916,-0.22372596,-0.055138692,-0.04628033,0.0009313082,0.0062356098,0.003024282,4.832729,4.8103228,1.0341778,-3.1275682,0.0,0.11065307,0.055138692,0.0053518927,0.0036696105,0.026487513,0.017513204,inf,inf,inf,inf,1,1,1,1,4,1,4,5,0,0,0
85889069,0,0.0,0.0,0.65493256,0.26687244,-0.05698878,2.7567148e-05,0.00022730231,-0.25493774,-0.14178331,-0.19142964,-0.09361707,-0.0897139,0.0009313082,0.0062356098,0.003024282,3.5412464,5.204049,0.467549,-3.1110995,0.0,0.122382015,0.09361707,0.005416033,0.0037114378,0.026606057,0.017560922,inf,inf,inf,inf,1,1,1,1,4,1,4,5,0,0,0
85985069,0,0.0,0.0,0.6333058,0.24269177,-0.07280349,2.7567148e-05,0.00022730231,-0.25493774,-0.17026664,-0.19249126,-0.1344617,-0.13544229,0.0009313082,0.0062356098,0.003024282,-1.3792282,-5.303991,-0.115266934,-3.0995607,0.0,0.13819674,0.1344617,0.0053087873,0.0036405441,0.026321188,0.017382847,inf,inf,inf,inf,1,1,1,1,4,1,4,5,0,0,0
86089103,0,0.0,0.0,0.60954064,0.22497492,-0.09492608,2.7567148e-05,0.00022730231,-0.25493774,-0.19037208,-0.13135661,-0.18621317,-0.19165124,0.0009313082,0.0062356098,0.003024282,-2.0224495,0.9154477,-0.08881736,-3.0910957,0.0,0.16031933,0.18621317,0.0054011596,0.0036969746,0.026619872,0.017562661,inf,inf,inf,inf,1,1,1,1,4,1,4,5,0,0,0
86193114,0,0.0,0.0,0.5861909,0.21707125,-0.12180242,2.7567148e-05,0.00022730231,-0.25493774,-0.19962828,-0.07322851,-0.219499,-0.22806956,0.0009313082,0.0062356098,0.003024282,-3.3356633,1.8054706,-0.41829038,-3.0882509,0.0,0.18719566,0.219499,0.005122685,0.003516401,0.025912294,0.01711974,inf,inf,inf,inf,1,1,1,1,4,1,4,5,0,0,0
86289068,0,0.0,0.0,0.5659268,0.21874674,-0.14841461,2.7567148e-05,0.00022730231,-0.25493774,-0.19295608,-0.019954111,-0.23334645,-0.24370022,0.0009313082,0.0062356098,0.003024282,2.012805,-1.7255315,1.2680769,-3.090556,0.0,0.21380785,0.23334645,0.0054358914,0.003715611,0.02678122,0.017576978,inf,inf,inf,inf,1,1,1,1,4,1,4,5,0,0,0
86393069,0,0.0,0.0,0.546034,0.22939129,-0.17607763,2.7567148e-05,0.00022730231,-0.25493774,-0.20962264,0.034099232,-0.2246628,-0.23556133,0.0009313082,0.0062356098,0.003024282,-4.2226434,-3.7711322,-0.92153996,-3.0973985,0.0,0.24147087,0.2246628,0.0055156914,0.0037645027,0.026938593,0.017663846,inf,inf,inf,inf,1,1,1,1,4,1,4,5,0,0,0
86497083,0,0.0,0.0,0.5277717,0.2472672,-0.19998768,2.7567148e-05,0.00022730231,-0.25493774,-0.20929371,0.09605183,-0.18934657,-0.19878769,0.0009313082,0.0062356098,0.003024282,0.6698761,-1.8708746,3.5070877,-3.1101096,0.0,0.26538092,0.18934657,0.0051969453,0.003560127,0.026046224,0.017181369,inf,inf,inf,inf,1,1,1,1,4,1,4,5,0,0,0
86593103,0,0.0,0.0,0.51175237,0.2683613,-0.216967,2.7567148e-05,0.00022730231,-0.25493774,-0.20768622,0.13609158,-0.17083977,-0.17715755,0.0009313082,0.0062356098,0.003024282,-1.206567,0.35492086,0.8835047,-3.1263092,0.0,0.28236026,0.17083977,0.00513205,0.0035195302,0.025830876,0.017083677,inf,inf,inf,inf,1,1,1,1,4,1,4,5,0,0,0
86697088,0,0.0,0.0,0.49410427,0.29252797,-0.22916266,2.7567148e-05,0.00022730231,-0.25493774,-0.22106883,0.14994885,-0.13679525,-0.13823985,0.0009313082,0.0062356098,0.003024282,-2.7102823,-0.04462575,-1.5134984,3.1368246,0.0,0.2945559,0.13679525,0.0051801666,0.0035539286,0.025854247,0.017146578,inf,inf,inf,inf,1,1,1,1,4,1,4,5,0,0,0
86801069,0,0.0,0.0,0.47531372,0.31549323,-0.23447399,2.7567148e-05,0.00022730231,-0.25493774,-0.21648118,0.14881337,-0.08794804,-0.08363259,0.0009313082,0.0062356098,0.003024282,4.640382,2.116003,-2.4747977,3.118767,0.0,0.2998672,0.08794804,0.0052335574,0.003591639,0.025978643,0.017257173,inf,inf,inf,inf,1,1,1,1,4,1,4,5,0,0,0
86905069,0,0.0,0.0,0.455421,0.33484828,-0.23369676,2.7567148e-05,0.00022730231,-0.25493774,-0.2207867,0.11999476,-0.036596306,-0.026601491,0.0009313082,0.0062356098,0.003024282,3.5923922,-2.6921704,1.3899306,3.1038866,0.0,0.29909,0.036596306,0.0053044576,0.003640894,0.026149465,0.017399527,inf,inf,inf,inf,1,1,1,1,4,1,4,5,0,0,0
87001068,0,0.0,0.0,0.43685687,0.3475891,-0.22804378,2.7567148e-05,0.00022730231,-0.25493774,-0.20953523,0.08663016,-0.0017152316,0.012901474,0.0009313082,0.0062356098,0.003024282,3.0072265,2.1018891,-1.6598085,3.0933533,0.0,0.293437,0.0017152316,0.0052368394,0.003599753,0.02598984,0.017319717,inf,inf,inf,inf,1,1,1,1,4,1,4,5,0,0,0
87105097,0,0.0,0.0,0.41791785,0.3541854,-0.21656957,2.7567148e-05,0.00022730231,-0.25493774,-0.18022305,0.04560336,0.058743868,0.07731694,0.0009313082,0.0062356098,0.003024282,1.6102169,-0.15276521,1.5363292,3.085268,0.0,0.2819628,-0.058743868,0.00528759,0.0036354044,0.026086584,0.017373547,inf,inf,inf,inf,1,1,1,1,4,1,4,5,0,0,0
87209071,0,0.0,0.0,0.40259418,0.35262746,-0.20021114,2.7567148e-05,0.00022730231,-0.25493774,-0.11680602,-0.024025962,0.11003348,0.1315395,0.0009313082,0.0062356098,0.003024282,5.119504,-2.5647526,0.42511487,3.0799024,0.0,0.26560438,-0.11003348,0.005341614,0.0036707555,0.026247242,0.017430838,inf,inf,inf,inf,1,1,1,1,4,1,4,5,0,0,0
87313106,0,0.0,0.0,0.39170364,0.33962998,-0.17910537,2.7567148e-05,0.00022730231,-0.25493774,-0.0625075,-0.10263385,0.14908086,0.17257723,0.0009313082,0.0062356098,0.003024282,4.2004905,-1.995413,-0.6677451,3.0772653,0.0,0.24449861,-0.14908086,0.00505998,0.00348528,0.025589466,0.01700838,inf,inf,inf,inf,1,1,1,1,4,1,4,5,0,0,0
87417069,0,0.0,0.0,0.38751453,0.31582242,-0.15452376,2.7567148e-05,0.00022730231,-0.25493774,0.010687653,-0.18719476,0.18221909,0.2069269,0.0009313082,0.0062356098,0.003024282,5.0572805,-4.128433,-0.65120405,3.0789614,0.0,0.219917,-0.18221909,0.005163074,0.0035491944,0.025912091,0.017172433,inf,inf,inf,inf,1,1,1,1,4,1,4,5,0,0,0
87513073,0,0.0,0.0,0.3926595,0.2847187,-0.1315371,2.7567148e-05,0.00022730231,-0.25493774,0.07540464,-0.25144455,0.18927361,0.21415931,0.0009313082,0.0062356098,0.003024282,5.0287495,-4.9966903,1.0867684,3.0864716,0.0,0.19693033,-0.18927361,0.0054655788,0.0037427614,0.026672475,0.017609755,inf,inf,inf,inf,1,1,1,1,4,1,4,5,0,0,0
87617069,0,0.0,0.0,0.410002,0.24554926,-0.1085593,2.7567148e-05,0.00022730231,-0.25493774,0.15067945,-0.28430885,0.1787122,0.20214087,0.0009313082,0.0062356098,0.003024282,1.0385352,1.9442092,2.1938932,3.1038063,0.0,0.17395255,-0.1787122,0.005139235,0.0035310127,0.02579995,0.017088035,inf,inf,inf,inf,1,1,1,1,4,1,4,5,0,0,0
87721068,0,0.0,0.0,0.43918568,0.20229322,-0.08975493,2.7567148e-05,0.00022730231,-0.25493774,0.22249113,-0.34060118,0.142014,0.16211955,0.0009313082,0.0062356098,0.003024282,-1.986231,1.3858263,-4.3590455,3.1289759,0.0,0.15514818,-0.142014,0.0052489727,0.003599464,0.026162056,0.017300833,inf,inf,inf,inf,1,1,1,1,4,1,4,5,0,0,0
87825080,0,0.0,0.0,0.47832063,0.15856087,-0.078132845,2.7567148e-05,0.00022730231,-0.25493774,0.3012572,-0.35490444,0.08302121,0.09819213,0.0009313082,0.0062356098,0.003024282,-2.2525969,-1.2433848,-3.566691,-3.1221087,0.0,0.14352608,-0.08302121,0.0053029843,0.0036348207,0.026248518,0.01734737,inf,inf,inf,inf,1,1,1,1,4,1,4,5,0,0,0
87921071,0,0.0,0.0,0.5219131,0.11930631,-0.07574838,2.7567148e-05,0.00022730231,-0.25493774,0.36852914,-0.35629496,0.030985378,0.040315647,0.0009313082,0.0062356098,0.003024282,-3.2482917,-3.0295002,-0.8266645,-3.0894732,0.0,0.14114162,-0.030985378,0.005219097,0.0035811088,0.0260253,0.017220888,inf,inf,inf,inf,1,1,1,1,4,1,4,5,0,0,0
88025077,0,0.0,0.0,0.5756287,0.080891535,-0.08237541,2.7567148e-05,0.00022730231,-0.25493774,0.4424778,-0.31069693,-0.025723936,-0.023799116,0.0009313082,0.0062356098,0.003024282,-0.9846631,-3.7512765,-1.6511264,-3.0549712,0.0,0.14776865,0.025723936,0.005301009,0.0036332256,0.026336204,0.017377535,inf,inf,inf,inf,1,1,1,1,4,1,4,5,0,0,0
88129082,0,0.0,0.0,0.6344788,0.049105518,-0.0974386,2.7567148e-05,0.00022730231,-0.25493774,0.49366868,-0.27810523,-0.085886545,-0.091589965,0.0009313082,0.0062356098,0.003024282,-1.5303398,1.7058457,2.4361334,-3.0261688,0.0,0.16283184,0.085886545,0.0054136547,0.0037032545,0.02674689,0.017579483,inf,inf,inf,inf,1,1,1,1,4,1,4,5,0,0,0
88225069,0,0.0,0.0,0.69165033,0.026420865,-0.117313206,2.7567148e-05,0.00022730231,-0.25493774,0.5436071,-0.23820351,-0.13347322,-0.14543068,0.0009313082,0.0062356098,0.003024282,-1.2476436,1.0140543,0.90133643,-3.0106459,0.0,0.18270645,0.13347322,0.0053318283,0.0036491111,0.026567476,0.017449675,inf,inf,inf,inf,1,1,1,1,4,1,4,5,0,0,0
88329069,0,0.0,0.0,0.7554522,0.008895644,-0.14279379,2.7567148e-05,0.00022730231,-0.25493774,0.59450114,-0.17389767,-0.15482996,-0.17188801,0.0009313082,0.0062356098,0.003024282,3.8773477,-0.22876197,1.3594465,-3.0063334,0.0,0.20818703,0.15482996,0.005422952,0.0037016012,0.027014468,0.017553717,inf,inf,inf,inf,1,1,1,1,4,1,4,5,0,0,0
88433069,0,0.0,0.0,0.8199602,-0.0009334751,-0.1687407,2.7567148e-05,0.00022730231,-0.25493774,0.59691805,-0.12564966,-0.15931708,-0.179101,0.0009313082,0.0062356098,0.003024282,-3.0439312,4.1085963,1.5370675,-3.0140033,0.0,0.23413394,0.15931708,0.00511737,0.0034994162,0.026253106,0.017052723,inf,inf,inf,inf,1,1,1,1,4,1,4,5,0,0,0
88529069,0,0.0,0.0,0.87869644,-0.0051567713,-0.18989472,2.7567148e-05,0.00022730231,-0.25493774,0.6133331,-0.09637988,-0.15454416,-0.1744437,0.0009313082,0.0062356098,0.003024282,1.8673818,2.547302,0.99860215,-3.0302474,0.0,0.25528795,0.15454416,0.005455015,0.0037043926,0.027248934,0.017565817,inf,inf,inf,inf,1,1,1,1,4,1,4,5,0,0,0
88632309,0,0.0,0.0,0.9386471,-0.0056964345,-0.20835014,2.7567148e-05,0.00022730231,-0.25493774,0.589133,-0.06298468,-0.14434996,-0.16162403,0.0009313082,0.0062356098,0.003024282,1.5063876,3.2568693,-0.25442454,-3.0508654,0.0,0.2737434,0.14434996,0.005514468,0.0037378194,0.027284326,0.017595734,inf,inf,inf,inf,1,1,1,1,4,1,4,5,0,0,0
88737068,0,0.0,0.0,0.99339,-0.0038469287,-0.2207979,2.7567148e-05,0.00022730231,-0.25493774,0.53770155,-0.048396505,-0.10147847,-0.11377589,0.0009313082,0.0062356098,0.003024282,-1.4397968,1.0993757,4.532283,-3.0712066,0.0,0.28619114,0.10147847,0.005204711,0.0035427778,0.026377594,0.017159672,inf,inf,inf,inf,1,1,1,1,4,1,4,5,0,0,0
88833070,0,0.0,0.0,1.0369533,-0.0015039353,-0.22682463,2.7567148e-05,0.00022730231,-0.25493774,0.48254716,-0.048123285,-0.08265918,-0.08936476,0.0009313082,0.0062356098,0.003024282,-4.284821,-3.606615,0.2856451,-3.091891,0.0,0.29221785,0.08265918,0.0051276903,0.0034972609,0.026046963,0.017062895,inf,inf,inf,inf,1,1,1,1,4,1,4,5,0,0,0
88935511,0,0.0,0.0,1.0744643,0.00034764246,-0.22772147,2.7567148e-05,0.00022730231,-0.25493774,0.40949118,-0.021552233,-0.04039892,-0.04095664,0.0009313082,0.0062356098,0.003024282,-4.7125063,-3.3882785,1.9930606,-3.1110964,0.0,0.29311472,0.04039892,0.0055299434,0.0037619967,0.026843842,0.01763471,inf,inf,inf,inf,1,1,1,1,4,1,4,5,0,0,0
89040269,0,0.0,0.0,1.1018629,0.0008658952,-0.2228947,2.7567148e-05,0.00022730231,-0.25493774,0.31837085,-0.011099384,0.008994575,0.01416568,0.0009313082,0.0062356098,0.003024282,-1.167993,-2.495333,2.243859,-3.1269765,0.0,0.28828794,-0.008994575,0.00547143,0.003736397,0.026505258,0.01753327,inf,inf,inf,inf,1,1,1,1,4,1,4,5,0,0,0
89143503,0,0.0,0.0,1.1145432,-0.00054562395,-0.21168494,2.7567148e-05,0.00022730231,-0.25493774,0.19819985,0.012732854,0.062725276,0.07287605,0.0009313082,0.0062356098,0.003024282,-3.1003168,-0.5349623,2.763461,-3.1394608,0.0,0.27707818,-0.062725276,0.005115703,0.003514772,0.025620777,0.017058592,inf,inf,inf,inf,1,1,1,1,4,1,4,5,0,0,0
89248268,0,0.0,0.0,1.1136345,-0.0035298772,-0.19539517,2.7567148e-05,0.00022730231,-0.25493774,0.09087178,0.019453533,0.09491822,0.109271035,0.0009313082,0.0062356098,0.003024282,-4.3866615,0.6404414,-0.1328373,3.133731,0.0,0.2607884,-0.09491822,0.005186621,0.003565553,0.025852606,0.01722561,inf,inf,inf,inf,1,1,1,1,4,1,4,5,0,0,0
89344343,0,0.0,0.0,1.1011678,-0.0068811155,-0.17749405,2.7567148e-05,0.00022730231,-0.25493774,0.0061715343,0.044668432,0.12469943,0.14208706,0.0009313082,0.0062356098,0.003024282,2.027123,2.7134047,-1.3137761,3.128156,0.0,0.24288729,-0.12469943,0.0051143053,0.0035209807,0.025687667,0.01712371,inf,inf,inf,inf,1,1,1,1,4,1,4,5,0,0,0
89449071,0,0.0,0.0,1.0769868,-0.010519385,-0.15494473,2.7567148e-05,0.00022730231,-0.25493774,-0.10682821,0.044323772,0.16672911,0.18604207,0.0009313082,0.0062356098,0.003024282,-0.24567738,0.9231204,0.5907877,3.1250002,0.0,0.22033797,-0.16672911,0.005196562,0.0035757318,0.02593654,0.017269192,inf,inf,inf,inf,1,1,1,1,4,1,4,5,0,0,0
89552269,0,0.0,0.0,1.0438187,-0.013143083,-0.13092873,2.7567148e-05,0.00022730231,-0.25493774,-0.20188141,0.060805924,0.17247404,0.19236393,0.0009313082,0.0062356098,0.003024282,-1.3808496,4.324262,-4.0315456,3.1195755,0.0,0.19632196,-0.17247404,0.0052649966,0.0036195826,0.026113931,0.01735106,inf,inf,inf,inf,1,1,1,1,4,1,4,5,0,0,0
89655523,0,0.0,0.0,1.0050195,-0.014388806,-0.10854442,2.7567148e-05,0.00022730231,-0.25493774,-0.24920444,0.05696427,0.17202696,0.19130577,0.0009313082,0.0062356098,0.003024282,3.6122954,1.5577413,-0.25127566,3.1137319,0.0,0.17393765,-0.17202696,0.005336535,0.0036650067,0.026299285,0.017452633,inf,inf,inf,inf,1,1,1,1,4,1,4,5,0,0,0
89752269,0,0.0,0.0,0.9656488,-0.01312297,-0.091092296,2.7567148e-05,0.00022730231,-0.25493774,-0.30890593,0.09090722,0.14817703,0.16547936,0.0009313082,0.0062356098,0.003024282,0.55863935,3.9725797,1.332581,3.107539,0.0,0.15648553,-0.14817703,0.005267361,0.0036187626,0.026153293,0.017345686,inf,inf,inf,inf,1,1,1,1,4,1,4,5,0,0,0
89856276,0,0.0,0.0,0.9224198,-0.007868421,-0.07828577,2.7567148e-05,0.00022730231,-0.25493774,-0.34280398,0.10337299,0.105188414,0.1186524,0.0009313082,0.0062356098,0.003024282,-0.7170417,0.3930535,1.7569767,3.1000578,0.0,0.14367901,-0.105188414,0.005342803,0.0036654172,0.026376517,0.01744934,inf,inf,inf,inf,1,1,1,1,4,1,4,5,0,0,0
89960269,0,0.0,0.0,0.8801012,0.0018232168,-0.073066086,2.7567148e-05,0.00022730231,-0.25493774,-0.36508685,0.13649699,0.045696087,0.053822383,0.0009313082,0.0062356098,0.003024282,-2.6685288,-0.41459066,-1.3028349,3.0948877,0.0,0.13845932,-0.045696087,0.0054448443,0.0037284147,0.026742429,0.017637704,inf,inf,inf,inf,1,1,1,1,4,1,4,5,0,0,0
90056269,0,0.0,0.0,0.8437901,0.014502896,-0.07661059,2.7567148e-05,0.00022730231,-0.25493774,-0.37371632,0.16414715,-0.017772462,-0.0154613545,0.0009313082,0.0062356098,0.003024282,-5.0867805,3.705077,-0.1259688,3.089139,0.0,0.14200383,0.017772462,0.0053504445,0.0036648666,0.026506813,0.017453924,inf,inf,inf,inf,1,1,1,1,4,1,4,5,0,0,0
90160282,0,0.0,0.0,0.80843925,0.032350775,-0.08884561,2.7567148e-05,0.00022730231,-0.25493774,-0.35264516,0.18995146,-0.08456907,-0.08893286,0.0009313082,0.0062356098,0.003024282,2.0203803,-1.7040567,-3.3507593,3.0827277,0.0,0.15423885,0.08456907,0.005440151,0.0037185466,0.026837619,0.017590286,inf,inf,inf,inf,1,1,1,1,4,1,4,5,0,0,0
90264309,0,0.0,0.0,0.7776366,0.054616593,-0.109194346,2.7567148e-05,0.00022730231,-0.25493774,-0.3544946,0.2430183,-0.12937675,-0.14016423,0.0009313082,0.0062356098,0.003024282,-0.055078343,4.355626,0.43079722,3.0806918,0.0,0.17458758,0.12937675,0.005142997,0.0035242185,0.026067927,0.01711866,inf,inf,inf,inf,1,1,1,1,4,1,4,5,0,0,0
90368310,0,0.0,0.0,0.7508458,0.0795333,-0.1351329,2.7567148e-05,0.00022730231,-0.25493774,-0.339574,0.2555462,-0.17678165,-0.19274797,0.0009313082,0.0062356098,0.003024282,2.8592806,4.868711,0.8821283,3.081637,0.0,0.20052613,0.17678165,0.005199206,0.003558397,0.026182037,0.017199084,inf,inf,inf,inf,1,1,1,1,4,1,4,5,0,0,0
90464345,0,0.0,0.0,0.7285033,0.105816856,-0.16118784,2.7567148e-05,0.00022730231,-0.25493774,-0.32471108,0.2878099,-0.19265337,-0.21164724,0.0009313082,0.0062356098,0.003024282,4.5826044,0.48515257,0.96616733,3.0841193,0.0,0.22658108,0.19265337,0.005213446,0.0035634518,0.026355313,0.017311836,inf,inf,inf,inf,1,1,1,1,4,1,4,5,0,0,0
90568269,0,0.0,0.0,0.7052116,0.13570847,-0.18868321,2.7567148e-05,0.00022730231,-0.25493774,-0.34494922,0.29504937,-0.19109237,-0.21113437,0.0009313082,0.0062356098,0.003024282,-2.2428362,-1.8016628,2.3027205,3.088192,0.0,0.25407645,0.19109237,0.005393431,0.003677529,0.026772568,0.017590381,inf,inf,inf,inf,1,1,1,1,4,1,4,5,0,0,0
90672284,0,0.0,0.0,0.68112755,0.16758531,-0.2120178,2.7567148e-05,0.00022730231,-0.25493774,-0.3348356,0.3249604,-0.17833334,-0.19665685,0.0009313082,0.0062356098,0.003024282,-1.6702112,1.5731655,-1.5451814,3.0906503,0.0,0.27741104,0.17833334,0.0051160324,0.0035057548,0.02583726,0.017091336,inf,inf,inf,inf,1,1,1,1,4,1,4,5,0,0,0
90776271,0,0.0,0.0,0.6552127,0.19956845,-0.2285415,2.7567148e-05,0.00022730231,-0.25493774,-0.33531624,0.31152394,-0.13635524,-0.1502481,0.0009313082,0.0062356098,0.003024282,2.9024813,0.1441814,-1.7431412,3.0917077,0.0,0.29393473,0.13635524,0.0051822257,0.0035529695,0.025906892,0.01716974,inf,inf,inf,inf,1,1,1,1,4,1,4,5,0,0,0
90880308,0,0.0,0.0,0.6264912,0.23049238,-0.23701318,2.7567148e-05,0.00022730231,-0.25493774,-0.34488496,0.307812,-0.085794784,-0.09319415,0.0009313082,0.0062356098,0.003024282,2.2652168,2.293056,1.3769855,3.0920167,0.0,0.30240643,0.085794784,0.0052528307,0.0036029404,0.02604797,0.017281448,inf,inf,inf,inf,1,1,1,1,4,1,4,5,0,0,0
90976268,0,0.0,0.0,0.59767264,0.2564984,-0.23832414,2.7567148e-05,0.00022730231,-0.25493774,-0.34852266,0.27514622,-0.062841065,-0.06330719,0.0009313082,0.0062356098,0.003024282,2.812781,0.21940319,-0.18167408,3.095715,0.0,0.30371737,0.062841065,0.005181235,0.0035593717,0.02584968,0.01718397,inf,inf,inf,inf,1,1,1,1,4,1,4,5,0,0,0
91080269,0,0.0,0.0,0.5636916,0.28087983,-0.23453437,2.7567148e-05,0.00022730231,-0.25493774,-0.37252924,0.23638701,-0.021146674,-0.014335584,0.0009313082,0.0062356098,0.003024282,-1.0164269,-0.022299245,1.2403088,3.1020103,0.0,0.2999276,0.021146674,0.0052144877,0.0035838464,0.02587663,0.01721287,inf,inf,inf,inf,1,1,1,1,4,1,4,5,0,0,0
91176270,0,0.0,0.0,0.53011525,0.29798055,-0.22616047,2.7567148e-05,0.00022730231,-0.25493774,-0.3926217,0.1709912,0.015059767,0.027535785,0.0009313082,0.0062356098,0.003024282,-7.1747603,-3.1212301,2.2673109,3.109665,0.0,0.2915537,-0.015059767,0.005142246,0.0035375548,0.025721485,0.017119883,inf,inf,inf,inf,1,1,1,1,4,1,4,5,0,0,0
91280295,0,0.0,0.0,0.4922088,0.31282493,-0.213313,2.7567148e-05,0.00022730231,-0.25493774,-0.36747012,0.15982953,0.05080885,0.06788081,0.0009313082,0.0062356098,0.003024282,1.6381836,-0.030478712,0.5752594,3.1193607,0.0,0.27870625,-0.05080885,0.005195444,0.0035728524,0.025846366,0.017195242,inf,inf,inf,inf,1,1,1,1,4,1,4,5,0,0,0
91384332,0,0.0,0.0,0.4537397,0.32172912,-0.19905655,2.7567148e-05,0.00022730231,-0.25493774,-0.3714683,0.11853502,0.06170983,0.081835434,0.0009313082,0.0062356098,0.003024282,-2.013069,-0.115287624,-1.1362345,3.129052,0.0,0.26444978,-0.06170983,0.005282628,0.0036292425,0.026102332,0.01736435,inf,inf,inf,inf,1,1,1,1,4,1,4,5,0,0,0
91480269,0,0.0,0.0,0.4183503,0.32642886,-0.1850644,2.7567148e-05,0.00022730231,-0.25493774,-0.36668625,0.08895245,0.076611206,0.09808052,0.0009313082,0.0062356098,0.003024282,-1.4376355,-4.3034616,-3.3451903,3.1317034,0.0,0.25045764,-0.076611206,0.0052050347,0.0035801253,0.025873547,0.01722095,inf,inf,inf,inf,1,1,1,1,4,1,4,5,0,0,0
91584292,0,0.0,0.0,0.38128048,0.3268071,-0.16932379,2.7567148e-05,0.00022730231,-0.25493774,-0.34988347,0.08635066,0.11385967,0.13532183,0.0009313082,0.0062356098,0.003024282,0.99743813,3.4768739,2.4939544,3.1296675,0.0,0.23471703,-0.11385967,0.0052906508,0.0036348952,0.02613784,0.017369453,inf,inf,inf,inf,1,1,1,1,4,1,4,5,0,0,0
91688315,0,0.0,0.0,0.34718382,0.32617393,-0.15278664,2.7567148e-05,0.00022730231,-0.25493774,-0.32895705,0.06950668,0.12295925,0.14335898,0.0009313082,0.0062356098,0.003024282,-0.5208593,5.6925335,-1.4456581,3.1212616,0.0,0.21817988,-0.12295925,0.005366954,0.0036838157,0.026334623,0.017483259,inf,inf,inf,inf,1,1,1,1,4,1,4,5,0,0,0
91784328,0,0.0,0.0,0.3187902,0.3260143,-0.13777241,2.7567148e-05,0.00022730231,-0.25493774,-0.30291596,0.06233769,0.12512219,0.14411983,0.0009313082,0.0062356098,0.003024282,-1.7620579,3.0068684,-1.0264556,3.1107285,0.0,0.20316565,-0.12512219,0.005280122,0.0036276963,0.026079064,0.017339312,inf,inf,inf,inf,1,1,1,1,4,1,4,5,0,0,0
91888281,0,0.0,0.0,0.29146793,0.32894662,-0.1224172,2.7567148e-05,0.00022730231,-0.25493774,-0.29537567,0.064883746,0.13591555,0.15313043,0.0009313082,0.0062356098,0.003024282,-4.3861723,-0.887568,2.890424,3.0957503,0.0,0.18781044,-0.13591555,0.00537798,0.0036903203,0.026384478,0.01751481,inf,inf,inf,inf,1,1,1,1,4,1,4,5,0,0,0
91992283,0,0.0,0.0,0.2670073,0.33517078,-0.108763225,2.7567148e-05,0.00022730231,-0.25493774,-0.26251867,0.06720629,0.114011504,0.12915333,0.0009313082,0.0062356098,0.003024282,-0.5183003,1.8062952,1.0301453,3.0793602,0.0,0.17415646,-0.114011504,0.0050897654,0.003503491,0.025619932,0.017049175,inf,inf,inf,inf,1,1,1,1,4,1,4,5,0,0,0
92088269,0,0.0,0.0,0.24751599,0.34429547,-0.09987938,2.7567148e-05,0.00022730231,-0.25493774,-0.2311379,0.10010901,0.0754932,0.08833256,0.0009313082,0.0062356098,0.003024282,-0.5167105,1.2363185,-0.18351927,3.0658455,0.0,0.16527262,-0.0754932,0.0053451294,0.0036698407,0.026222417,0.017403493,inf,inf,inf,inf,1,1,1,1,4,1,4,5,0,0,0
92192289,0,0.0,0.0,0.22989534,0.35886833,-0.09531656,2.7567148e-05,0.00022730231,-0.25493774,-0.19637334,0.09698077,0.039535183,0.049048968,0.0009313082,0.0062356098,0.003024282,0.27072087,-5.6481705,-2.0819616,3.0531428,0.0,0.1607098,-0.039535183,0.0054406184,0.003728994,0.026603865,0.017590964,inf,inf,inf,inf,1,1,1,1,4,1,4,5,0,0,0
92296269,0,0.0,0.0,0.21564974,0.37621227,-0.09522923,2.7567148e-05,0.00022730231,-0.25493774,-0.16782829,0.12408063,0.014837739,0.020269565,0.0009313082,0.0062356098,0.003024282,-1.5161033,-1.2955515,-0.16988446,3.042741,0.0,0.16062248,-0.014837739,0.005147969,0.0035373021,0.025920693,0.017151086,inf,inf,inf,inf,1,1,1,1,4,1,4,5,0,0,0
92392310,0,0.0,0.0,0.20522991,0.39568844,-0.09806347,2.7567148e-05,0.00022730231,-0.25493774,-0.11642011,0.15489596,-0.0032539791,-0.0014861461,0.0009313082,0.0062356098,0.003024282,3.7905605,0.08745917,-2.088138,3.0368917,0.0,0.16345671,0.0032539791,0.0053638476,0.003676846,0.026355844,0.017377136,inf,inf,inf,inf,1,1,1,1,4,1,4,5,0,0,0
92496305,0,0.0,0.0,0.1969649,0.4196386,-0.1042416,2.7567148e-05,0.00022730231,-0.25493774,-0.08158199,0.16978143,-0.030476488,-0.03199355,0.0009313082,0.0062356098,0.003024282,0.9433059,-1.2069685,1.9308518,3.033916,0.0,0.16963485,0.030476488,0.0053805215,0.003683828,0.026473278,0.017424103,inf,inf,inf,inf,1,1,1,1,4,1,4,5,0,0,0
92600275,0,0.0,0.0,0.1922344,0.44600305,-0.11353481,2.7567148e-05,0.00022730231,-0.25493774,-0.043532547,0.19643417,-0.06544197,-0.06920808,0.0009313082,0.0062356098,0.003024282,0.8032478,-0.45658523,-0.19963731,3.0330641,0.0,0.17892805,0.06544197,0.0054440326,0.0037204993,0.026754433,0.017560795,inf,inf,inf,inf,1,1,1,1,4,1,4,5,0,0,0
92704300,0,0.0,0.0,0.1917245,0.4727724,-0.12563914,2.7567148e-05,0.00022730231,-0.25493774,0.0027121454,0.19569385,-0.100921385,-0.10612041,0.0009313082,0.0062356098,0.003024282,-0.8793737,-1.3933448,-0.35546628,3.0341566,0.0,0.19103238,0.100921385,0.005138696,0.0035219265,0.02598572,0.017101826,inf,inf,inf,inf,1,1,1,1,4,1,4,5,0,0,0
92808269,0,0.0,0.0,0.19598252,0.4992333,-0.13947257,2.7567148e-05,0.00022730231,-0.25493774,0.04541991,0.19935462,-0.115125336,-0.12110566,0.0009313082,0.0062356098,0.003024282,-1.0942442,-0.81230307,0.6821522,3.0345325,0.0,0.20486581,0.115125336,0.0052104895,0.0035660705,0.026176121,0.017201638,inf,inf,inf,inf,1,1,1,1,4,1,4,5,0,0,0
92904320,0,0.0,0.0,0.20420681,0.5214107,-0.15305996,2.7567148e-05,0.00022730231,-0.25493774,0.08798504,0.15068132,-0.12572911,-0.1318081,0.0009313082,0.0062356098,0.003024282,0.10859478,-5.517439,-1.1916112,3.036886,0.0,0.2184532,0.12572911,0.0051610847,0.003532868,0.026052497,0.017144466,inf,inf,inf,inf,1,1,1,1,4,1,4,5,0,0,0
93008269,0,0.0,0.0,0.21767046,0.5418292,-0.1672388,2.7567148e-05,0.00022730231,-0.25493774,0.13095553,0.1274898,-0.13087064,-0.13629557,0.0009313082,0.0062356098,0.003024282,-1.0253061,-1.3728433,-0.14358956,3.0423105,0.0,0.23263204,0.13087064,0.005200794,0.003560369,0.0260277,0.017149368,inf,inf,inf,inf,1,1,1,1,4,1,4,5,0,0,0
93112269,0,0.0,0.0,0.23563047,0.5569067,-0.17989229,2.7567148e-05,0.00022730231,-0.25493774,0.18195075,0.07073359,-0.11585519,-0.11971693,0.0009313082,0.0062356098,0.003024282,-0.0476674,-2.7013443,-0.79555994,3.0495856,0.0,0.24528553,0.11585519,0.0052826675,0.0036134315,0.02626671,0.017308382,inf,inf,inf,inf,1,1,1,1,4,1,4,5,0,0,0
93208301,0,0.0,0.0,0.25633934,0.56439805,-0.18948057,2.7567148e-05,0.00022730231,-0.25493774,0.22618413,0.027727544,-0.105049916,-0.10685118,0.0009313082,0.0062356098,0.003024282,0.08320213,-2.942798,1.9208367,3.0591373,0.0,0.2548738,0.105049916,0.0052014072,0.0035634423,0.025991932,0.017183963,inf,inf,inf,inf,1,1,1,1,4,1,4,5,0,0,0
93312268,0,0.0,0.0,0.28328007,0.56465906,-0.1970652,2.7567148e-05,0.00022730231,-0.25493774,0.27500275,-0.030700343,-0.0869747,-0.08597463,0.0009313082,0.0062356098,0.003024282,-0.15309998,-1.805086,2.8269377,3.0713184,0.0,0.26245844,0.0869747,0.0052945674,0.0036255852,0.026220849,0.017343465,inf,inf,inf,inf,1,1,1,1,4,1,4,5,0,0,0
93416268,0,0.0,0.0,0.31477997,0.5563046,-0.20223546,2.7567148e-05,0.00022730231,-0.25493774,0.31264725,-0.09587312,-0.06724886,-0.06321242,0.0009313082,0.0062356098,0.003024282,3.1172585,1.0838629,1.1589742,3.0836308,0.0,0.2676287,0.06724886,0.0053536105,0.003667042,0.026297595,0.017421417,inf,inf,inf,inf,1,1,1,1,4,1,4,5,0,0,0
93512283,0,0.0,0.0,0.34694764,0.53958255,-0.2043301,2.7567148e-05,0.00022730231,-0.25493774,0.34628287,-0.1605349,-0.055004314,-0.048275106,0.0009313082,0.0062356098,0.003024282,1.1780709,-2.9758625,-1.8292705,3.0946548,0.0,0.26972336,0.055004314,0.0052750898,0.0036189738,0.02609299,0.01732341,inf,inf,inf,inf,1,1,1,1,4,1,4,5,0,0,0
93616270,0,0.0,0.0,0.38400188,0.51413566,-0.20302354,2.7567148e-05,0.00022730231,-0.25493774,0.36206725,-0.22449525,-0.017548518,-0.008228357,0.0009313082,0.0062356098,0.003024282,-0.42945516,1.287744,-1.9755929,3.1057878,0.0,0.26841676,0.017548518,0.005323626,0.0036529156,0.02618797,0.017383546,inf,inf,inf,inf,1,1,1,1,4,1,4,5,0,0,0
93720291,0,0.0,0.0,0.42150068,0.48072913,-0.19756897,2.7567148e-05,0.00022730231,-0.25493774,0.37201297,-0.29145724,0.019882176,0.03152996,0.0009313082,0.0062356098,0.003024282,1.3224405,-2.729864,-0.83343685,3.1173868,0.0,0.26296222,-0.019882176,0.0050532473,0.0034784407,0.025514733,0.016998844,inf,inf,inf,inf,1,1,1,1,4,1,4,5,0,0,0
93824291,0,0.0,0.0,0.4579535,0.44129226,-0.18801802,2.7567148e-05,0.00022730231,-0.25493774,0.37357885,-0.36643103,0.058214393,0.071977384,0.0009313082,0.0062356098,0.003024282,3.14874,-3.8772178,-0.04327515,3.1308272,0.0,0.25341126,-0.058214393,0.005095285,0.003507861,0.025573406,0.017040258,inf,inf,inf,inf,1,1,1,1,4,1,4,5,0,0,0
93928313,0,0.0,0.0,0.49159318,0.3973735,-0.17552665,2.7567148e-05,0.00022730231,-0.25493774,0.3222519,-0.39112884,0.079672836,0.09529103,0.0009313082,0.0062356098,0.003024282,-4.1668167,2.3125038,1.3960347,-3.1344974,0.0,0.24091989,-0.079672836,0.0051580826,0.0035492936,0.025756828,0.017147997,inf,inf,inf,inf,1,1,1,1,4,1,4,5,0,0,0
94024318,0,0.0,0.0,0.51939034,0.35530925,-0.16262323,2.7567148e-05,0.00022730231,-0.25493774,0.2988856,-0.42543545,0.09179579,0.10855744,0.0009313082,0.0062356098,0.003024282,-2.391701,-3.0546682,-1.409328,-3.115353,0.0,0.22801647,-0.09179579,0.0051034717,0.0035132985,0.02566211,0.017082362,inf,inf,inf,inf,1,1,1,1,4,1,4,5,0,0,0
94128274,0,0.0,0.0,0.54482156,0.30949563,-0.14918771,2.7567148e-05,0.00022730231,-0.25493774,0.24397859,-0.44263753,0.08204958,0.09904329,0.0009313082,0.0062356098,0.003024282,-6.931283,-4.938727,0.8530118,-3.0944123,0.0,0.21458095,-0.08204958,0.0051809805,0.0035633184,0.02589468,0.017209942,inf,inf,inf,inf,1,1,1,1,4,1,4,5,0,0,0
94232298,0,0.0,0.0,0.56500155,0.26462954,-0.1387653,2.7567148e-05,0.00022730231,-0.25493774,0.20541501,-0.43045828,0.069065474,0.08492063,0.0009313082,0.0062356098,0.003024282,-4.5743484,-3.4597373,1.3912437,-3.0747552,0.0,0.20415854,-0.069065474,0.0052377717,0.0035988966,0.026083296,0.017286418,inf,inf,inf,inf,1,1,1,1,4,1,4,5,0,0,0
94328268,0,0.0,0.0,0.578826,0.22585832,-0.13216168,2.7567148e-05,0.00022730231,-0.25493774,0.18341692,-0.393157,0.0600113,0.07350689,0.0009313082,0.0062356098,0.003024282,0.65596867,0.56681347,1.6213939,-3.0622942,0.0,0.19755492,-0.0600113,0.005178668,0.0035567833,0.026044194,0.017177507,inf,inf,inf,inf,1,1,1,1,4,1,4,5,0,0,0
94432296,0,0.0,0.0,0.5879638,0.1871486,-0.12786062,2.7567148e-05,0.00022730231,-0.25493774,0.14137314,-0.3735559,0.044705607,0.05466469,0.0009313082,0.0062356098,0.003024282,0.26120597,-3.0807219,-1.567246,-3.0544174,0.0,0.19325386,-0.044705607,0.005277185,0.003614487,0.026414435,0.01732687,inf,inf,inf,inf,1,1,1,1,4,1,4,5,0,0,0
94536269,0,0.0,0.0,0.59138185,0.15389445,-0.1260848,2.7567148e-05,0.00022730231,-0.25493774,0.09679936,-0.34429315,0.03511056,0.041294742,0.0009313082,0.0062356098,0.003024282,-0.517178,-1.3819096,-0.81566226,-3.0526772,0.0,0.19147804,-0.03511056,0.005046048,0.0034591877,0.025924977,0.01698949,inf,inf,inf,inf,1,1,1,1,4,1,4,5,0,0,0
94632268,0,0.0,0.0,0.5910041,0.12764257,-0.12595768,2.7567148e-05,0.00022730231,-0.25493774,0.07464111,-0.30386758,0.026700018,0.029785393,0.0009313082,0.0062356098,0.003024282,1.4052486,2.088719,-0.6142967,-3.0539386,0.0,0.19135092,-0.026700018,0.005428952,0.0036969632,0.02702352,0.017592411,inf,inf,inf,inf,1,1,1,1,4,1,4,5,0,0,0
94736277,0,0.0,0.0,0.58859956,0.10455731,-0.1265858,2.7567148e-05,0.00022730231,-0.25493774,0.049063537,-0.26881167,0.020747876,0.021259092,0.0009313082,0.0062356098,0.003024282,3.462415,7.1389966,-0.01525095,-3.0593925,0.0,0.19197904,-0.020747876,0.0051679458,0.003528952,0.026232665,0.017134467,inf,inf,inf,inf,1,1,1,1,4,1,4,5,0,0,0
94840269,0,0.0,0.0,0.58549154,0.085015446,-0.12835634,2.7567148e-05,0.00022730231,-0.25493774,0.032651234,-0.24999748,0.009412121,0.008298621,0.0009313082,0.0062356098,0.003024282,2.9971418,1.15617,0.7356218,-3.0642202,0.0,0.19374958,-0.009412121,0.0052364105,0.0035721832,0.026321188,0.017197266,inf,inf,inf,inf,1,1,1,1,4,1,4,5,0,0,0
94944359,0,0.0,0.0,0.5827769,0.0698358,-0.13089108,2.7567148e-05,0.00022730231,-0.25493774,0.01736295,-0.22117223,-0.016532809,-0.018522428,0.0009313082,0.0062356098,0.003024282,-2.5421057,-2.7675,-2.2246177,-3.0667994,0.0,0.19628432,0.016532809,0.0053279204,0.003629972,0.026558952,0.017334567,inf,inf,inf,inf,1,1,1,1,4,1,4,5,0,0,0
95048269,0,0.0,0.0,0.5810952,0.056020804,-0.13483457,2.7567148e-05,0.00022730231,-0.25493774,0.004453417,-0.17865014,-0.031525113,-0.033960316,0.0009313082,0.0062356098,0.003024282,-1.5559834,2.0052085,1.1190068,-3.0700965,0.0,0.20022781,0.031525113,0.005402945,0.0036793929,0.026700031,0.01746153,inf,inf,inf,inf,1,1,1,1,4,1,4,5,0,0,0
95144358,0,0.0,0.0,0.5811727,0.044580575,-0.13986906,2.7567148e-05,0.00022730231,-0.25493774,0.011982053,-0.16006565,-0.04254877,-0.04529381,0.0009313082,0.0062356098,0.003024282,0.0015526076,-2.68941,-0.590592,-3.0756452,0.0,0.2052623,0.04254877,0.0053134225,0.0036251624,0.02643068,0.017327966,inf,inf,inf,inf,1,1,1,1,4,1,4,5,0,0,0
95248271,0,0.0,0.0,0.58277184,0.032558613,-0.14615776,2.7567148e-05,0.00022730231,-0.25493774,-0.0012640712,-0.14149499,-0.050887574,-0.05394057,0.0009313082,0.0062356098,0.003024282,-2.2203116,-1.1636226,-1.5182506,-3.0820875,0.0,0.211551,0.050887574,0.0054047005,0.0036850092,0.026650505,0.017478373,inf,inf,inf,inf,1,1,1,1,4,1,4,5,0,0,0
95352269,0,0.0,0.0,0.58498126,0.020452188,-0.15231448,2.7567148e-05,0.00022730231,-0.25493774,-0.021827647,-0.13490404,-0.04447441,-0.047617793,0.0009313082,0.0062356098,0.003024282,0.7923478,2.53108,2.96724,-3.0868428,0.0,0.21770772,0.04447441,0.005110398,0.003500069,0.025831815,0.017044427,inf,inf,inf,inf,1,1,1,1,4,1,4,5,0,0,0
95448268,0,0.0,0.0,0.5865766,0.00947989,-0.15784074,2.7567148e-05,0.00022730231,-0.25493774,-0.016084976,-0.1139869,-0.06027721,-0.06309058,0.0009313082,0.0062356098,0.003024282,3.3592896,-0.20046781,-3.7790906,-3.0909815,0.0,0.22323398,0.06027721,0.00538811,0.0036807822,0.02649715,0.0174571,inf,inf,inf,inf,1,1,1,1,4,1,4,5,0,0,0
95553069,0,0.0,0.0,0.5869822,-0.0020338038,-0.16343601,2.7567148e-05,0.00022730231,-0.25493774,-0.049845837,-0.09496591,-0.05820408,-0.06012166,0.0009313082,0.0062356098,0.003024282,-1.2540274,3.2407079,0.040143974,-3.0945687,0.0,0.22882925,0.05820408,0.0054551833,0.003726159,0.026644338,0.017563032,inf,inf,inf,inf,1,1,1,1,4,1,4,5,0,0,0
95656277,0,0.0,0.0,0.58556384,-0.013897376,-0.16816173,2.7567148e-05,0.00022730231,-0.25493774,-0.066376545,-0.094600976,-0.04116044,-0.041884135,0.0009313082,0.0062356098,0.003024282,3.8808157,5.269408,0.24898422,-3.0987153,0.0,0.23355497,0.04116044,0.005133715,0.0035231556,0.02575615,0.017077126,inf,inf,inf,inf,1,1,1,1,4,1,4,5,0,0,0
95755485,0,0.0,0.0,0.5816348,-0.026411528,-0.17027766,2.7567148e-05,0.00022730231,-0.25493774,-0.09707811,-0.098183684,-0.011125738,-0.010607232,0.0009313082,0.0062356098,0.003024282,-1.1147219,-0.40866113,2.6984208,-3.1049438,0.0,0.2356709,0.011125738,0.0051132548,0.003510983,0.025792185,0.017109275,inf,inf,inf,inf,1,1,1,1,4,1,4,5,0,0,0
95859489,0,0.0,0.0,0.5738753,-0.04063428,-0.16818616,2.7567148e-05,0.00022730231,-0.25493774,-0.110647626,-0.10179733,0.012705599,0.01504941,0.0009313082,0.0062356098,0.003024282,0.9086962,-5.0796576,-0.4330528,-3.1128767,0.0,0.2335794,-0.012705599,0.005288861,0.0036263815,0.026408384,0.017529378,inf,inf,inf,inf,1,1,1,1,4,1,4,5,0,0,0
95955469,0,0.0,0.0,0.5637759,-0.0544774,-0.16186447,2.7567148e-05,0.00022730231,-0.25493774,-0.13568927,-0.089157686,0.05796526,0.0627262,0.0009313082,0.0062356098,0.003024282,2.3602808,4.1214576,1.4013547,-3.1204393,0.0,0.22725771,-0.05796526,0.005165651,0.0035505178,0.025854703,0.017210454,inf,inf,inf,inf,1,1,1,1,4,1,4,5,0,0,0
96060277,0,0.0,0.0,0.55001295,-0.06989978,-0.15052518,2.7567148e-05,0.00022730231,-0.25493774,-0.1555665,-0.0962889,0.073720254,0.081710085,0.0009313082,0.0062356098,0.003024282,-1.9868102,0.17734236,-0.7442453,-3.1283636,0.0,0.21591842,-0.073720254,0.0052480833,0.0036067013,0.026066657,0.017361479,inf,inf,inf,inf,1,1,1,1,4,1,4,5,0,0,0
96163479,0,0.0,0.0,0.5345304,-0.08610898,-0.13695325,2.7567148e-05,0.00022730231,-0.25493774,-0.14577971,-0.10821485,0.08303231,0.094274454,0.0009313082,0.0062356098,0.003024282,3.4678113,-4.7957616,-0.41569555,-3.1376078,0.0,0.20234649,-0.08303231,0.005275962,0.0036266209,0.026059061,0.017341089,inf,inf,inf,inf,1,1,1,1,4,1,4,5,0,0,0
96267494,0,0.0,0.0,0.5181055,-0.10300604,-0.12244105,2.7567148e-05,0.00022730231,-0.25493774,-0.1537395,-0.09451056,0.100436315,0.113963984,0.0009313082,0.0062356098,0.003024282,0.3574442,1.1345387,2.7316492,3.1350868,0.0,0.1878343,-0.100436315,0.0053775916,0.003692538,0.026373822,0.017521838,inf,inf,inf,inf,1,1,1,1,4,1,4,5,0,0,0
96371518,0,0.0,0.0,0.5022107,-0.11854251,-0.10882552,2.7567148e-05,0.00022730231,-0.25493774,-0.13942282,-0.07278706,0.08610249,0.10025963,0.0009313082,0.0062356098,0.003024282,-3.0183241,2.8192265,0.7220515,3.1251373,0.0,0.17421876,-0.08610249,0.005064031,0.0034880596,0.025533259,0.01699805,inf,inf,inf,inf,1,1,1,1,4,1,4,5,0,0,0
96475470,0,0.0,0.0,0.4883552,-0.1314586,-0.09788357,2.7567148e-05,0.00022730231,-0.25493774,-0.12978801,-0.05924703,0.06587571,0.079074875,0.0009313082,0.0062356098,0.003024282,-2.7571292,-2.1488624,-0.5813245,3.1184723,0.0,0.1632768,-0.06587571,0.0051232777,0.0035261263,0.025699884,0.017089313,inf,inf,inf,inf,1,1,1,1,4,1,4,5,0,0,0
96571469,0,0.0,0.0,0.47875828,-0.13877262,-0.092315905,2.7567148e-05,0.00022730231,-0.25493774,-0.11123785,-0.019260988,0.03884611,0.04985632,0.0009313082,0.0062356098,0.003024282,-1.4314708,-3.2284336,0.22650068,3.1146164,0.0,0.15770915,-0.03884611,0.0050739585,0.0034920366,0.025626361,0.017024046,inf,inf,inf,inf,1,1,1,1,4,1,4,5,0,0,0
96675489,0,0.0,0.0,0.47273546,-0.14163391,-0.09197382,2.7567148e-05,0.00022730231,-0.25493774,-0.08345969,0.041564394,-0.009368397,-0.0018184404,0.0009313082,0.0062356098,0.003024282,-4.0185804,2.8821697,-2.199326,3.111449,0.0,0.15736705,0.009368397,0.005138395,0.003532345,0.025828365,0.017106013,inf,inf,inf,inf,1,1,1,1,4,1,4,5,0,0,0
96779469,0,0.0,0.0,0.47098073,-0.13744971,-0.09669173,2.7567148e-05,0.00022730231,-0.25493774,-0.048975334,0.084538594,-0.031327356,-0.027983095,0.0009313082,0.0062356098,0.003024282,4.9078918,-3.8470066,-1.769674,3.110737,0.0,0.16208497,0.031327356,0.005220075,0.0035821411,0.02611728,0.017246548,inf,inf,inf,inf,1,1,1,1,4,1,4,5,0,0,0
97595469,0,0.0,0.0,0.4985396,0.10433474,-0.104094476,2.7567148e-05,0.00022730231,-0.25493774,0.042200264,0.35075724,0.035714313,0.045784008,0.0009313082,0.0062356098,0.003024282,-0.11510469,0.2576526,-0.90665466,3.0574644,0.0,0.16948771,-0.035714313,0.005106507,0.0035122563,0.025670098,0.01705082,inf,inf,inf,inf,1,1,1,1,4,1,4,5,0,0,0
97691469,0,0.0,0.0,0.5015826,0.138353,-0.09726354,2.7567148e-05,0.00022730231,-0.25493774,0.05894184,0.34986228,0.023433052,0.034943867,0.0009313082,0.0062356098,0.003024282,-0.09053275,3.635175,1.9154257,3.0460734,0.0,0.16265678,-0.023433052,0.0050561824,0.003477778,0.025619462,0.01698933,inf,inf,inf,inf,1,1,1,1,4,1,4,5,0,0,0
97795469,0,0.0,0.0,0.5055834,0.17226766,-0.09380559,2.7567148e-05,0.00022730231,-0.25493774,0.08041368,0.3461922,-0.0046239374,0.0063793724,0.0009313082,0.0062356098,0.003024282,-0.35553256,3.3804605,2.909674,3.0340028,0.0,0.15919882,0.0046239374,0.005132935,0.0035256753,0.025850877,0.017085612,inf,inf,inf,inf,1,1,1,1,4,1,4,5,0,0,0
97899503,0,0.0,0.0,0.5120717,0.20304027,-0.09520255,2.7567148e-05,0.00022730231,-0.25493774,0.11039588,0.31328955,-0.026102202,-0.017465802,0.0009313082,0.0062356098,0.003024282,3.8543246,-1.848707,1.4718939,3.021725,0.0,0.16059579,0.026102202,0.005252264,0.0035984113,0.026260162,0.017288333,inf,inf,inf,inf,1,1,1,1,4,1,4,5,0,0,0
98003474,0,0.0,0.0,0.52213657,0.23071544,-0.10033512,2.7567148e-05,0.00022730231,-0.25493774,0.1354029,0.30533162,-0.043157786,-0.03781011,0.0009313082,0.0062356098,0.003024282,0.6082209,-5.9841967,-0.947161,3.0132318,0.0,0.16572836,0.043157786,0.0053264154,0.0036433106,0.026443295,0.017358812,inf,inf,inf,inf,1,1,1,1,4,1,4,5,0,0,0
98099469,0,0.0,0.0,0.5352976,0.25429204,-0.1066339,2.7567148e-05,0.00022730231,-0.25493774,0.15324324,0.27801183,-0.04173782,-0.03930316,0.0009313082,0.0062356098,0.003024282,-2.4856355,-4.1823173,1.8197845,3.0102646,0.0,0.17202714,0.04173782,0.005262453,0.0035989897,0.026325716,0.017269282,inf,inf,inf,inf,1,1,1,1,4,1,4,5,0,0,0
98203471,0,0.0,0.0,0.55358714,0.27901447,-0.11414727,2.7567148e-05,0.00022730231,-0.25493774,0.1983584,0.3024388,-0.049122203,-0.048841376,0.0009313082,0.0062356098,0.003024282,0.16823432,-0.24988544,0.08128133,3.0118334,0.0,0.17954051,0.049122203,0.0053329184,0.0036421411,0.026482636,0.017352818,inf,inf,inf,inf,1,1,1,1,4,1,4,5,0,0,0
98307469,0,0.0,0.0,0.57545257,0.30398598,-0.12037625,2.7567148e-05,0.00022730231,-0.25493774,0.2347171,0.2875532,-0.047333367,-0.04779789,0.0009313082,0.0062356098,0.003024282,4.245008,4.1586046,-0.6247207,3.0208344,0.0,0.1857695,0.047333367,0.0053811083,0.003672203,0.026586635,0.017407982,inf,inf,inf,inf,1,1,1,1,4,1,4,5,0,0,0
98403521,0,0.0,0.0,0.5986668,0.32796073,-0.12489939,2.7567148e-05,0.00022730231,-0.25493774,0.2484942,0.28751653,-0.038722567,-0.038758468,0.0009313082,0.0062356098,0.003024282,1.9703748,-1.9038616,-2.0272415,3.03538,0.0,0.19029263,0.038722567,0.005299106,0.003619337,0.026362589,0.017304147,inf,inf,inf,inf,1,1,1,1,4,1,4,5,0,0,0
98507488,0,0.0,0.0,0.6269847,0.35531092,-0.12864408,2.7567148e-05,0.00022730231,-0.25493774,0.2728956,0.28286147,-0.03587049,-0.034710027,0.0009313082,0.0062356098,0.003024282,2.1735432,-1.7459134,0.31630793,3.0563176,0.0,0.19403732,0.03587049,0.0053861146,0.0036746114,0.026609719,0.017462378,inf,inf,inf,inf,1,1,1,1,4,1,4,5,0,0,0
98611499,0,0.0,0.0,0.6564051,0.38324785,-0.13048142,2.7567148e-05,0.00022730231,-0.25493774,0.26013544,0.26817712,-0.031919964,-0.02935762,0.0009313082,0.0062356098,0.003024282,-1.9053997,1.8477631,1.0770109,3.0798292,0.0,0.19587466,0.031919964,0.0054373373,0.00371036,0.026642866,0.01752215,inf,inf,inf,inf,1,1,1,1,4,1,4,5,0,0,0
98707468,0,0.0,0.0,0.6831576,0.40951696,-0.13147949,2.7567148e-05,0.00022730231,-0.25493774,0.25463393,0.26482064,-0.022273703,-0.018459782,0.0009313082,0.0062356098,0.003024282,-3.2877238,3.1654482,0.55588907,3.1015184,0.0,0.19687273,0.022273703,0.005351734,0.0036587524,0.026362067,0.017402243,inf,inf,inf,inf,1,1,1,1,4,1,4,5,0,0,0
98811476,0,0.0,0.0,0.7104526,0.43780354,-0.13287409,2.7567148e-05,0.00022730231,-0.25493774,0.26298013,0.23431453,-0.030529866,-0.025607673,0.0009313082,0.0062356098,0.003024282,1.8325298,-2.4191496,1.1060735,3.1240659,0.0,0.19826733,0.030529866,0.0054299487,0.0037126166,0.026532717,0.017540852,inf,inf,inf,inf,1,1,1,1,4,1,4,5,0,0,0
98915491,0,0.0,0.0,0.7353565,0.4661071,-0.13440762,2.7567148e-05,0.00022730231,-0.25493774,0.2382676,0.2444464,-0.031424973,-0.026007047,0.0009313082,0.0062356098,0.003024282,-3.7471678,-1.4866633,0.5023595,-3.140733,0.0,0.19980086,0.031424973,0.0051239636,0.0035199546,0.02571213,0.017076908,inf,inf,inf,inf,1,1,1,1,4,1,4,5,0,0,0
99011509,0,0.0,0.0,0.75553143,0.49138975,-0.13593414,2.7567148e-05,0.00022730231,-0.25493774,0.22986613,0.2425986,-0.037306655,-0.031944428,0.0009313082,0.0062356098,0.003024282,-2.2464008,-0.5656744,-3.8097506,-3.128904,0.0,0.20132738,0.037306655,0.0054224594,0.0037149999,0.026485985,0.01755215,inf,inf,inf,inf,1,1,1,1,4,1,4,5,0,0,0
99115475,0,0.0,0.0,0.7732845,0.5174264,-0.1371977,2.7567148e-05,0.00022730231,-0.25493774,0.20701368,0.26600012,-0.018862218,-0.0137117375,0.0009313082,0.0062356098,0.003024282,6.411733,5.3603516,-0.44320494,-3.1195192,0.0,0.20259094,0.018862218,0.0051193256,0.003520696,0.025717946,0.017074501,inf,inf,inf,inf,1,1,1,1,4,1,4,5,0,0,0
99219483,0,0.0,0.0,0.785986,0.54396796,-0.1380066,2.7567148e-05,0.00022730231,-0.25493774,0.14807177,0.2689612,-0.014345912,-0.009349942,0.0009313082,0.0062356098,0.003024282,-2.7179792,-1.1878287,-1.6152434,-3.1141415,0.0,0.20339984,0.014345912,0.0052172528,0.0035831684,0.026001276,0.017228965,inf,inf,inf,inf,1,1,1,1,4,1,4,5,0,0,0
99315469,0,0.0,0.0,0.7925801,0.5684709,-0.13810998,2.7567148e-05,0.00022730231,-0.25493774,0.10017255,0.27317327,-0.014006963,-0.00902011,0.0009313082,0.0062356098,0.003024282,-4.557194,-2.6803741,-3.0553684,-3.112989,0.0,0.20350322,0.014006963,0.005135689,0.0035295163,0.025781542,0.017080946,inf,inf,inf,inf,1,1,1,1,4,1,4,5,0,0,0
99419496,0,0.0,0.0,0.793815,0.59649503,-0.13739835,2.7567148e-05,0.00022730231,-0.25493774,0.05328109,0.31623012,0.008618193,0.013706043,0.0009313082,0.0062356098,0.003024282,1.4242911,4.7337656,0.9382903,-3.1156838,0.0,0.20279159,-0.008618193,0.005211298,0.003576645,0.0260139,0.017189829,inf,inf,inf,inf,1,1,1,1,4,1,4,5,0,0,0
99523469,0,0.0,0.0,0.78879684,0.6265795,-0.13595967,2.7567148e-05,0.00022730231,-0.25493774,-0.01962443,0.28225285,0.013711627,0.018935591,0.0009313082,0.0062356098,0.003024282,-3.066529,-0.12144483,3.771818,-3.11894,0.0,0.20135291,-0.013711627,0.005296927,0.0036295042,0.02625244,0.017330043,inf,inf,inf,inf,1,1,1,1,4,1,4,5,0,0,0
99627492,0,0.0,0.0,0.77713764,0.6563736,-0.13364412,2.7567148e-05,0.00022730231,-0.25493774,-0.071577564,0.28037256,0.0070090876,0.012298237,0.0009313082,0.0062356098,0.003024282,-1.5763369,-0.9000529,-1.1777313,-3.1244063,0.0,0.19903736,-0.0070090876,0.0053369086,0.0036552898,0.026301326,0.017363014,inf,inf,inf,inf,1,1,1,1,4,1,4,5,0,0,0
99723491,0,0.0,0.0,0.7608753,0.68437123,-0.13188623,2.7567148e-05,0.00022730231,-0.25493774,-0.13598055,0.26503828,0.015327734,0.020527683,0.0009313082,0.0062356098,0.003024282,-3.3240006,-1.2991484,0.3356708,-3.1306138,0.0,0.19727947,-0.015327734,0.005248696,0.003598326,0.026065173,0.017239988,inf,inf,inf,inf,1,1,1,1,4,1,4,5,0,0,0
99827469,0,0.0,0.0,0.7374522,0.7122162,-0.13050371,2.7567148e-05,0.00022730231,-0.25493774,-0.18039039,0.20558216,-0.008974536,-0.004281814,0.0009313082,0.0062356098,0.003024282,-0.37587178,-0.034904968,-3.7561862,-3.1396074,0.0,0.19589695,0.008974536,0.005330893,0.0036507582,0.02634069,0.01738909,inf,inf,inf,inf,1,1,1,1,4,1,4,5,0,0,0
99931509,0,0.0,0.0,0.708753,0.7357306,-0.13080133,2.7567148e-05,0.00022730231,-0.25493774,-0.23750421,0.17756474,-0.0070480783,-0.0033419735,0.0009313082,0.0062356098,0.003024282,0.80478245,-4.8981137,-1.2408714,3.1369019,0.0,0.19619457,0.0070480783,0.0054222126,0.003709406,0.026573066,0.017538685,inf,inf,inf,inf,1,1,1,1,4,1,4,5,0,0,0
100027469,0,0.0,0.0,0.6785472,0.7523921,-0.13274722,2.7567148e-05,0.00022730231,-0.25493774,-0.28450385,0.115501076,-0.023291918,-0.020893289,0.0009313082,0.0062356098,0.003024282,0.19163144,-3.2112153,-1.3934803,3.1340895,0.0,0.19814046,0.023291918,0.005360635,0.003670367,0.026401564,0.017448772,inf,inf,inf,inf,1,1,1,1,4,1,4,5,0,0,0
100131492,0,0.0,0.0,0.6435536,0.7620629,-0.13666654,2.7567148e-05,0.00022730231,-0.25493774,-0.3098207,0.070302375,-0.026782975,-0.025990127,0.0009313082,0.0062356098,0.003024282,0.02110788,2.468945,0.8722968,3.131216,0.0,0.20205978,0.026782975,0.005330421,0.003654403,0.02618149,0.017321026,inf,inf,inf,inf,1,1,1,1,4,1,4,5,0,0,0
100235469,0,0.0,0.0,0.60770434,0.7621532,-0.14130512,2.7567148e-05,0.00022730231,-0.25493774,-0.32414168,-0.0066745486,-0.01447313,-0.015270571,0.0009313082,0.0062356098,0.003024282,0.4855642,1.4600266,1.9536918,3.1317143,0.0,0.20669836,0.01447313,0.005372562,0.003681273,0.026337245,0.017420739,inf,inf,inf,inf,1,1,1,1,4,1,4,5,0,0,0
100331517,0,0.0,0.0,0.57493657,0.754654,-0.14458865,2.7567148e-05,0.00022730231,-0.25493774,-0.31466246,-0.0481787,-0.016271878,-0.018053735,0.0009313082,0.0062356098,0.003024282,4.6615343,4.350763,-0.17765158,3.1336753,0.0,0.20998189,0.016271878,0.005280367,0.003621583,0.026136708,0.017311307,inf,inf,inf,inf,1,1,1,1,4,1,4,5,0,0,0
100435489,0,0.0,0.0,0.5421995,0.7382743,-0.14725089,2.7567148e-05,0.00022730231,-0.25493774,-0.30865642,-0.12825488,-0.0025450254,-0.004502601,0.0009313082,0.0062356098,0.003024282,-1.2590238,-3.2329214,3.1804707,3.136896,0.0,0.21264413,0.0025450254,0.005327725,0.0036531172,0.026230097,0.017390478,inf,inf,inf,inf,1,1,1,1,4,1,4,5,0,0,0
100539475,0,0.0,0.0,0.5141912,0.7157645,-0.14888965,2.7567148e-05,0.00022730231,-0.25493774,-0.2815114,-0.16493116,-0.018491639,-0.019922541,0.0009313082,0.0062356098,0.003024282,-3.1311712,-2.8844693,-2.730062,3.139748,0.0,0.21428289,0.018491639,0.005396394,0.0036981495,0.026428137,0.017507285,inf,inf,inf,inf,1,1,1,1,4,1,4,5,0,0,0
100635469,0,0.0,0.0,0.49309468,0.6909148,-0.14915296,2.7567148e-05,0.00022730231,-0.25493774,-0.25511622,-0.20756258,-0.004473901,-0.005172187,0.0009313082,0.0062356098,0.003024282,-1.6692741,-6.01781,-0.31940416,-3.1395812,0.0,0.2145462,0.004473901,0.005293091,0.0036328102,0.026130037,0.017337626,inf,inf,inf,inf,1,1,1,1,4,1,4,5,0,0,0
100739469,0,0.0,0.0,0.47636905,0.66359955,-0.14945212,2.7567148e-05,0.00022730231,-0.25493774,-0.2230505,-0.20273487,-0.010780146,-0.010683104,0.0009313082,0.0062356098,0.003024282,-2.1230366,-1.8503538,1.0284356,-3.1342988,0.0,0.21484536,0.010780146,0.0053670127,0.003680399,0.0263671,0.017473863,inf,inf,inf,inf,1,1,1,1,4,1,4,5,0,0,0
100843468,0,0.0,0.0,0.46620208,0.6375097,-0.15125202,2.7567148e-05,0.00022730231,-0.25493774,-0.16972803,-0.20596479,-0.029205786,-0.028608967,0.0009313082,0.0062356098,0.003024282,0.6821616,-2.5005429,-1.1653895,-3.1289618,0.0,0.21664526,0.029205786,0.0051007024,0.0035079494,0.025688456,0.017082363,inf,inf,inf,inf,1,1,1,1,4,1,4,5,0,0,0
100939469,0,0.0,0.0,0.46222705,0.61746037,-0.15420291,2.7567148e-05,0.00022730231,-0.25493774,-0.12154295,-0.16699561,-0.03842342,-0.037914246,0.0009313082,0.0062356098,0.003024282,0.5242172,-1.4094871,-0.925052,-3.124906,0.0,0.21959615,0.03842342,0.005391746,0.0036968968,0.026417356,0.017496072,inf,inf,inf,inf,1,1,1,1,4,1,4,5,0,0,0
101043468,0,0.0,0.0,0.46315256,0.60125333,-0.15843305,2.7567148e-05,0.00022730231,-0.25493774,-0.09017547,-0.12711807,-0.039728377,-0.039846323,0.0009313082,0.0062356098,0.003024282,-5.106883,4.8836417,-0.2785195,-3.120041,0.0,0.22382629,0.039728377,0.005109924,0.0035134575,0.025712313,0.01706882,inf,inf,inf,inf,1,1,1,1,4,1,4,5,0,0,0
101147468,0,0.0,0.0,0.46800283,0.5924433,-0.16290405,2.7567148e-05,0.00022730231,-0.25493774,-0.030142564,-0.0841912,-0.036763366,-0.03759651,0.0009313082,0.0062356098,0.003024282,2.0865312,-0.35831505,-0.900039,-3.1167479,0.0,0.2282973,0.036763366,0.005180975,0.00355931,0.025855461,0.017153976,inf,inf,inf,inf,1,1,1,1,4,1,4,5,0,0,0
101251475,0,0.0,0.0,0.47550815,0.59135324,-0.16667908,2.7567148e-05,0.00022730231,-0.25493774,-0.0013357169,-0.04430683,-0.037473064,-0.038552046,0.0009313082,0.0062356098,0.003024282,-3.095588,-1.6404732,-3.686476,-3.1155758,0.0,0.23207232,0.037473064,0.005252174,0.0036044945,0.026083492,0.017279213,inf,inf,inf,inf,1,1,1,1,4,1,4,5,0,0,0
101347470,0,0.0,0.0,0.48455837,0.5964845,-0.16983342,2.7567148e-05,0.00022730231,-0.25493774,0.051958505,-0.01427628,-0.029061308,-0.02979352,0.0009313082,0.0062356098,0.003024282,3.2084754,0.023014655,0.010236721,-3.118276,0.0,0.23522666,0.029061308,0.0051983627,0.0035692607,0.025947973,0.017204717,inf,inf,inf,inf,1,1,1,1,4,1,4,5,0,0,0
101451469,0,0.0,0.0,0.4966285,0.60572696,-0.1727028,2.7567148e-05,0.00022730231,-0.25493774,0.06516465,0.01575051,-0.028530205,-0.028422225,0.0009313082,0.0062356098,0.003024282,-4.13133,4.830805,0.74080646,-3.1225524,0.0,0.23809604,0.028530205,0.005262618,0.003611208,0.02610031,0.017295226,inf,inf,inf,inf,1,1,1,1,4,1,4,5,0,0,0
101555475,0,0.0,0.0,0.51125604,0.61856604,-0.17450431,2.7567148e-05,0.00022730231,-0.25493774,0.107756145,0.011089448,-0.024891598,-0.023837049,0.0009313082,0.0062356098,0.003024282,-1.2834814,-2.4013906,-0.6337646,-3.1272142,0.0,0.23989755,0.024891598,0.005336781,0.003658909,0.02627726,0.017401583,inf,inf,inf,inf,1,1,1,1,4,1,4,5,0,0,0
101651469,0,0.0,0.0,0.5266395,0.63013166,-0.1756382,2.7567148e-05,0.00022730231,-0.25493774,0.14319521,0.0054489975,-0.013733248,-0.011877723,0.0009313082,0.0062356098,0.003024282,3.7275817,0.54049426,2.1806638,-3.1317806,0.0,0.24103144,0.013733248,0.0052550444,0.0036062424,0.026082426,0.017287126,inf,inf,inf,inf,1,1,1,1,4,1,4,5,0,0,0
101755473,0,0.0,0.0,0.5452222,0.64058286,-0.17649262,2.7567148e-05,0.00022730231,-0.25493774,0.17983201,-0.0010992269,-0.02106337,-0.018515958,0.0009313082,0.0062356098,0.003024282,1.6302328,2.5776901,0.8618884,-3.136968,0.0,0.24188586,0.02106337,0.005313938,0.0036452687,0.026192248,0.017358065,inf,inf,inf,inf,1,1,1,1,4,1,4,5,0,0,0
101859469,0,0.0,0.0,0.5651499,0.6465005,-0.17755336,2.7567148e-05,0.00022730231,-0.25493774,0.21040727,-0.0120246615,-0.027364708,-0.024411188,0.0009313082,0.0062356098,0.003024282,3.4450471,1.9071131,-2.6739588,3.1411014,0.0,0.2429466,0.027364708,0.0053946194,0.0036971543,0.02642944,0.017506754,inf,inf,inf,inf,1,1,1,1,4,1,4,5,0,0,0
101955475,0,0.0,0.0,0.58491784,0.6456233,-0.17961487,2.7567148e-05,0.00022730231,-0.25493774,0.2195609,-0.05556198,-0.03925562,-0.03629548,0.0009313082,0.0062356098,0.003024282,-0.3060586,-1.1157424,-3.0016372,3.1373887,0.0,0.24500811,0.03925562,0.005327476,0.0036539717,0.026263062,0.017408606,inf,inf,inf,inf,1,1,1,1,4,1,4,5,0,0,0
102059469,0,0.0,0.0,0.60735816,0.63731915,-0.18266383,2.7567148e-05,0.00022730231,-0.25493774,0.24036987,-0.095408425,-0.025477098,-0.022934806,0.0009313082,0.0062356098,0.003024282,6.611436,-4.239532,0.21774004,3.1336937,0.0,0.24805707,0.025477098,0.005383456,0.0036909315,0.02638489,0.017472338,inf,inf,inf,inf,1,1,1,1,4,1,4,5,0,0,0
102163469,0,0.0,0.0,0.63011324,0.6222449,-0.1857688,2.7567148e-05,0.00022730231,-0.25493774,0.23849028,-0.11538676,-0.027331278,-0.025504999,0.0009313082,0.0062356098,0.003024282,3.182478,2.2630067,2.086209,3.1308458,0.0,0.25116205,0.027331278,0.005076946,0.0034924583,0.025592258,0.01700409,inf,inf,inf,inf,1,1,1,1,4,1,4,5,0,0,0
102259488,0,0.0,0.0,0.6512042,0.6032261,-0.18935774,2.7567148e-05,0.00022730231,-0.25493774,0.22650468,-0.16235574,-0.026865033,-0.025639782,0.0009313082,0.0062356098,0.003024282,-3.7374187,-2.4835863,2.1698928,3.131467,0.0,0.25475097,0.026865033,0.005396378,0.0036983087,0.026457593,0.017528124,inf,inf,inf,inf,1,1,1,1,4,1,4,5,0,0,0
102363469,0,0.0,0.0,0.6728064,0.57744807,-0.1940623,2.7567148e-05,0.00022730231,-0.25493774,0.2148625,-0.21440056,-0.05097833,-0.050248094,0.0009313082,0.0062356098,0.003024282,-3.4957404,-4.7147655,-0.23294151,3.131722,0.0,0.25945553,0.05097833,0.005483685,0.0037552903,0.026657611,0.017653113,inf,inf,inf,inf,1,1,1,1,4,1,4,5,0,0,0
102465919,0,0.0,0.0,0.69146687,0.5483238,-0.19969513,2.7567148e-05,0.00022730231,-0.25493774,0.18519022,-0.21702217,-0.0514545,-0.051140673,0.0009313082,0.0062356098,0.003024282,-2.8449206,3.959661,2.0436642,3.1327496,0.0,0.26508838,0.0514545,0.005157489,0.0035458538,0.025781253,0.017123777,inf,inf,inf,inf,1,1,1,1,4,1,4,5,0,0,0
102563476,0,0.0,0.0,0.70673573,0.5182786,-0.20670128,2.7567148e-05,0.00022730231,-0.25493774,0.17295438,-0.25402436,-0.0644541,-0.06465654,0.0009313082,0.0062356098,0.003024282,-3.4906104,-2.6536396,1.905515,3.1361985,0.0,0.27209452,0.0644541,0.0051050805,0.003510839,0.025686655,0.017065346,inf,inf,inf,inf,1,1,1,1,4,1,4,5,0,0,0
102667469,0,0.0,0.0,0.71872556,0.48567134,-0.21455468,2.7567148e-05,0.00022730231,-0.25493774,0.13864245,-0.2526896,-0.060578946,-0.06153327,0.0009313082,0.0062356098,0.003024282,1.0470189,0.6070349,1.342901,3.141561,0.0,0.27994794,0.060578946,0.0051874076,0.003563954,0.025925936,0.017211722,inf,inf,inf,inf,1,1,1,1,4,1,4,5,0,0,0
102770679,0,0.0,0.0,0.7253075,0.45324022,-0.22172837,2.7567148e-05,0.00022730231,-0.25493774,0.08476052,-0.27347073,-0.06363974,-0.065126546,0.0009313082,0.0062356098,0.003024282,-4.3498106,-5.3435826,-2.2603674,-3.135064,0.0,0.2871216,0.06363974,0.0052419784,0.0035991017,0.02602778,0.017269708,inf,inf,inf,inf,1,1,1,1,4,1,4,5,0,0,0
102875510,0,0.0,0.0,0.72616106,0.42272696,-0.22768432,2.7567148e-05,0.00022730231,-0.25493774,0.046642933,-0.2326994,-0.034557395,-0.03593067,0.0009313082,0.0062356098,0.003024282,2.7001154,5.191915,2.9202416,-3.1309378,0.0,0.29307756,0.034557395,0.005301412,0.0036384978,0.02614928,0.017342722,inf,inf,inf,inf,1,1,1,1,4,1,4,5,0,0,0
102969907,0,0.0,0.0,0.7221803,0.39847347,-0.23047489,2.7567148e-05,0.00022730231,-0.25493774,0.011159811,-0.23653398,-0.026825627,-0.027343916,0.0009313082,0.0062356098,0.003024282,-4.5374966,0.10878549,-0.21906485,-3.1285884,0.0,0.29586813,0.026825627,0.005220735,0.0035865935,0.025920345,0.017214127,inf,inf,inf,inf,1,1,1,1,4,1,4,5,0,0,0
103070669,0,0.0,0.0,0.71358997,0.3770177,-0.2312158,2.7567148e-05,0.00022730231,-0.25493774,-0.02128003,-0.18552612,-0.016266907,-0.015142363,0.0009313082,0.0062356098,0.003024282,-1.6604064,-0.57351094,-0.5949124,-3.1274712,0.0,0.29660904,0.016266907,0.005268117,0.003618574,0.026008423,0.017288249,inf,inf,inf,inf,1,1,1,1,4,1,4,5,0,0,0
103175488,0,0.0,0.0,0.7015637,0.3602378,-0.23108022,2.7567148e-05,0.00022730231,-0.25493774,-0.04120492,-0.15457036,-0.022672797,-0.019674994,0.0009313082,0.0062356098,0.003024282,1.7392594,-1.0066128,-1.3308381,-3.1289775,0.0,0.29647344,0.022672797,0.005246898,0.0036056645,0.025862163,0.017179154,inf,inf,inf,inf,1,1,1,1,4,1,4,5,0,0,0
103277920,0,0.0,0.0,0.68764937,0.34946686,-0.23109323,2.7567148e-05,0.00022730231,-0.25493774,-0.080977336,-0.0919468,-0.01285084,-0.008505244,0.0009313082,0.0062356098,0.003024282,0.37931547,6.300175,0.649963,-3.133171,0.0,0.29648647,0.01285084,0.005359009,0.0036758017,0.026285848,0.017410414,inf,inf,inf,inf,1,1,1,1,4,1,4,5,0,0,0
103383469,0,0.0,0.0,0.6715256,0.34476143,-0.23083436,2.7567148e-05,0.00022730231,-0.25493774,-0.1090579,-0.057525378,-0.014883718,-0.010028885,0.0009313082,0.0062356098,0.003024282,-6.467656,-1.6649019,-0.6427847,-3.1390815,0.0,0.2962276,0.014883718,0.005096942,0.0035055252,0.025666965,0.017055502,inf,inf,inf,inf,1,1,1,1,4,1,4,5,0,0,0
103486709,0,0.0,0.0,0.65365463,0.3459803,-0.2304315,2.7567148e-05,0.00022730231,-0.25493774,-0.12486022,-0.016243197,-0.009880553,-0.005052592,0.0009313082,0.0062356098,0.003024282,-0.0090302965,-3.4779088,-1.0500425,3.1370208,0.0,0.29582474,0.009880553,0.005163346,0.0035489353,0.025807071,0.017134473,inf,inf,inf,inf,1,1,1,1,4,1,4,5,0,0,0
103582675,0,0.0,0.0,0.63571966,0.35165197,-0.23058936,2.7567148e-05,0.00022730231,-0.25493774,-0.14428975,0.025143337,-0.011987623,-0.0073482646,0.0009313082,0.0062356098,0.003024282,3.743427,-2.0382752,-1.1323932,3.1311884,0.0,0.2959826,0.011987623,0.0054682,0.0037463661,0.026602082,0.017611291,inf,inf,inf,inf,1,1,1,1,4,1,4,5,0,0,0
103686682,0,0.0,0.0,0.61471605,0.36158064,-0.2313037,2.7567148e-05,0.00022730231,-0.25493774,-0.18710603,0.06283391,-0.014652493,-0.01039091,0.0009313082,0.0062356098,0.003024282,0.5418409,0.10205976,2.1475058,3.1267922,0.0,0.29669696,0.014652493,0.0051273825,0.0035263172,0.025689596,0.017069831,inf,inf,inf,inf,1,1,1,1,4,1,4,5,0,0,0
103790669,0,0.0,0.0,0.592006,0.3738418,-0.2336608,2.7567148e-05,0.00022730231,-0.25493774,-0.23410547,0.087110944,-0.023393424,-0.019752974,0.0009313082,0.0062356098,0.003024282,-6.24245,0.5993786,2.224753,3.1253297,0.0,0.29905403,0.023393424,0.005201257,0.0035740063,0.025891924,0.017198797,inf,inf,inf,inf,1,1,1,1,4,1,4,5,0,0,0
103886683,0,0.0,0.0,0.5695529,0.38703853,-0.2367795,2.7567148e-05,0.00022730231,-0.25493774,-0.23485462,0.11614486,-0.03230146,-0.029468916,0.0009313082,0.0062356098,0.003024282,1.1105968,3.9050019,0.30436042,3.1251152,0.0,0.30217272,0.03230146,0.005124754,0.0035239877,0.025718482,0.017082443,inf,inf,inf,inf,1,1,1,1,4,1,4,5,0,0,0
103990679,0,0.0,0.0,0.54395777,0.4027291,-0.24084616,2.7567148e-05,0.00022730231,-0.25493774,-0.24885878,0.12681453,-0.037178207,-0.035344638,0.0009313082,0.0062356098,0.003024282,-0.45251724,-1.0751271,-1.6085986,3.1241436,0.0,0.3062394,0.037178207,0.005190058,0.003565871,0.025903193,0.017189967,inf,inf,inf,inf,1,1,1,1,4,1,4,5,0,0,0
104094669,0,0.0,0.0,0.5173557,0.41872582,-0.24583717,2.7567148e-05,0.00022730231,-0.25493774,-0.25588894,0.14793846,-0.04084373,-0.039875012,0.0009313082,0.0062356098,0.003024282,1.69407,-2.6210625,-0.8316972,3.1245003,0.0,0.31123042,0.04084373,0.0052879984,0.0036280882,0.02620328,0.01736304,inf,inf,inf,inf,1,1,1,1,4,1,4,5,0,0,0
104190680,0,0.0,0.0,0.4909266,0.43370542,-0.24927859,2.7567148e-05,0.00022730231,-0.25493774,-0.26975903,0.16757579,-0.024172684,-0.023739604,0.0009313082,0.0062356098,0.003024282,3.139943,0.9682039,-0.35233185,3.12334,0.0,0.3146718,0.024172684,0.005214262,0.0035811246,0.025964545,0.017222239,inf,inf,inf,inf,1,1,1,1,4,1,4,5,0,0,0
104294669,0,0.0,0.0,0.46129057,0.44971088,-0.25218904,2.7567148e-05,0.00022730231,-0.25493774,-0.28813353,0.19020912,-0.02026711,-0.019877646,0.0009313082,0.0062356098,0.003024282,-2.2689052,0.061946657,-0.116586745,3.122621,0.0,0.31758228,0.02026711,0.005299089,0.0036355455,0.02618095,0.017363213,inf,inf,inf,inf,1,1,1,1,4,1,4,5,0,0,0
104398669,0,0.0,0.0,0.43140024,0.4651361,-0.2545938,2.7567148e-05,0.00022730231,-0.25493774,-0.2871892,0.17192087,-0.031507663,-0.030613884,0.0009313082,0.0062356098,0.003024282,-0.14440794,2.2965598,-1.9703894,3.1216004,0.0,0.31998703,0.031507663,0.0054041767,0.003703441,0.026457276,0.01753467,inf,inf,inf,inf,1,1,1,1,4,1,4,5,0,0,0
104502675,0,0.0,0.0,0.4019887,0.4770025,-0.25600007,2.7567148e-05,0.00022730231,-0.25493774,-0.27857786,0.14898312,-0.012481607,-0.010973471,0.0009313082,0.0062356098,0.003024282,6.115437,2.2939076,-0.7303757,3.1207335,0.0,0.3213933,0.012481607,0.0054508946,0.0037353295,0.026522473,0.017565012,inf,inf,inf,inf,1,1,1,1,4,1,4,5,0,0,0
104598669,0,0.0,0.0,0.37667406,0.48602906,-0.2562484,2.7567148e-05,0.00022730231,-0.25493774,-0.28773502,0.12603223,0.00679071,0.008779409,0.0009313082,0.0062356098,0.003024282,-0.7957043,-1.4441141,2.6740246,3.1206038,0.0,0.32164165,-0.00679071,0.005346284,0.003667918,0.026236463,0.017389044,inf,inf,inf,inf,1,1,1,1,4,1,4,5,0,0,0
104702669,0,0.0,0.0,0.35125563,0.4910228,-0.25504836,2.7567148e-05,0.00022730231,-0.25493774,-0.27842918,0.056303374,0.0050473576,0.0075673126,0.0009313082,0.0062356098,0.003024282,-3.8882043,0.21212015,0.97029495,3.1235485,0.0,0.3204416,-0.0050473576,0.0054355594,0.0037246288,0.026503352,0.017561236,inf,inf,inf,inf,1,1,1,1,4,1,4,5,0,0,0
104806675,0,0.0,0.0,0.3289511,0.49034938,-0.2530419,2.7567148e-05,0.00022730231,-0.25493774,-0.23699196,0.005520003,0.016292715,0.019307094,0.0009313082,0.0062356098,0.003024282,3.4883168,0.7374913,-0.20986426,3.126793,0.0,0.31843513,-0.016292715,0.005123095,0.0035233104,0.025680339,0.017075667,inf,inf,inf,inf,1,1,1,1,4,1,4,5,0,0,0
104910674,0,0.0,0.0,0.3104599,0.48320723,-0.25071093,2.7567148e-05,0.00022730231,-0.25493774,-0.20415026,-0.043479387,0.012799823,0.016125396,0.0009313082,0.0062356098,0.003024282,-1.2916234,1.7978537,0.33045575,3.1299598,0.0,0.31610417,-0.012799823,0.005217003,0.003583806,0.025959166,0.01722956,inf,inf,inf,inf,1,1,1,1,4,1,4,5,0,0,0
105006669,0,0.0,0.0,0.29698753,0.47082978,-0.24802142,2.7567148e-05,0.00022730231,-0.25493774,-0.18515496,-0.09344413,0.024279812,0.02762117,0.0009313082,0.0062356098,0.003024282,-4.490911,-0.33632582,2.011408,3.1322496,0.0,0.31341466,-0.024279812,0.005147119,0.0035388705,0.025744326,0.017116593,inf,inf,inf,inf,1,1,1,1,4,1,4,5,0,0,0
105110675,0,0.0,0.0,0.28697094,0.4509388,-0.24531844,2.7567148e-05,0.00022730231,-0.25493774,-0.11192013,-0.124408424,0.01952968,0.022655003,0.0009313082,0.0062356098,0.003024282,5.825438,-0.0237669,-1.6180676,3.1343668,0.0,0.31071168,-0.01952968,0.005199194,0.0035731879,0.02586557,0.017183516,inf,inf,inf,inf,1,1,1,1,4,1,4,5,0,0,0
105214669,0,0.0,0.0,0.28197724,0.4261475,-0.24356833,2.7567148e-05,0.00022730231,-0.25493774,-0.08736778,-0.15260674,0.0055147223,0.008267345,0.0009313082,0.0062356098,0.003024282,-3.9623594,-3.8173857,-0.73731244,3.1374013,0.0,0.30896157,-0.0055147223,0.0052699554,0.0036187205,0.026087707,0.017305441,inf,inf,inf,inf,1,1,1,1,4,1,4,5,0,0,0
105310669,0,0.0,0.0,0.2821536,0.40187746,-0.24320695,2.7567148e-05,0.00022730231,-0.25493774,-0.027294245,-0.16024019,2.3384222e-05,0.0021066852,0.0009313082,0.0062356098,0.003024282,3.2860415,-2.0334432,-2.1611989,3.139343,0.0,0.3086002,-2.3384222e-05,0.0052237953,0.0035874932,0.026031217,0.017269624,inf,inf,inf,inf,1,1,1,1,4,1,4,5,0,0,0
105414669,0,0.0,0.0,0.28711906,0.3757451,-0.24393712,2.7567148e-05,0.00022730231,-0.25493774,-0.0037352135,-0.15833431,0.0052499166,0.0061990554,0.0009313082,0.0062356098,0.003024282,-0.5781825,-0.6229183,2.9856114,-3.1405306,0.0,0.30933034,-0.0052499166,0.005302735,0.0036385406,0.026214309,0.01736558,inf,inf,inf,inf,1,1,1,1,4,1,4,5,0,0,0
105518668,0,0.0,0.0,0.29656285,0.35370678,-0.24510652,2.7567148e-05,0.00022730231,-0.25493774,0.046891894,-0.13338755,-0.0002586166,-0.00056909857,0.0009313082,0.0062356098,0.003024282,2.5865383,1.5221089,-0.96607965,-3.1392913,0.0,0.31049976,0.0002586166,0.005367865,0.003680666,0.026320953,0.017440213,inf,inf,inf,inf,1,1,1,1,4,1,4,5,0,0,0
105622671,0,0.0,0.0,0.30994877,0.3375329,-0.24695934,2.7567148e-05,0.00022730231,-0.25493774,0.07962279,-0.10918134,-0.0023548056,-0.0036606647,0.0009313082,0.0062356098,0.003024282,-2.504298,-0.010686502,1.8128254,-3.1385565,0.0,0.3123526,0.0023548056,0.0054323594,0.0037219345,0.026506638,0.017538968,inf,inf,inf,inf,1,1,1,1,4,1,4,5,0,0,0
105718684,0,0.0,0.0,0.3244848,0.32895884,-0.24733756,2.7567148e-05,0.00022730231,-0.25493774,0.10417864,-0.07449394,0.008688628,0.0067852126,0.0009313082,0.0062356098,0.003024282,-3.2088044,1.1401752,-0.5643331,-3.133579,0.0,0.3127308,-0.008688628,0.0053419275,0.0036637723,0.026273955,0.0174077,inf,inf,inf,inf,1,1,1,1,4,1,4,5,0,0,0
105822669,0,0.0,0.0,0.341821,0.3284744,-0.2464774,2.7567148e-05,0.00022730231,-0.25493774,0.1390617,-0.028087048,0.016745256,0.014749617,0.0009313082,0.0062356098,0.003024282,1.5520794,-3.279867,-1.5011793,-3.1280427,0.0,0.31187063,-0.016745256,0.005436365,0.0037241885,0.026527593,0.017566992,inf,inf,inf,inf,1,1,1,1,4,1,4,5,0,0,0
105926689,0,0.0,0.0,0.35962996,0.3350991,-0.2448582,2.7567148e-05,0.00022730231,-0.25493774,0.13348593,0.02640404,0.021215772,0.019802434,0.0009313082,0.0062356098,0.003024282,-1.4177351,3.9291127,0.7215915,-3.123328,0.0,0.31025144,-0.021215772,0.0051426245,0.003535078,0.025762202,0.017126383,inf,inf,inf,inf,1,1,1,1,4,1,4,5,0,0,0
106022703,0,0.0,0.0,0.37545672,0.34718513,-0.24287851,2.7567148e-05,0.00022730231,-0.25493774,0.14642757,0.06268343,0.00066801906,-4.0197687e-05,0.0009313082,0.0062356098,0.003024282,-1.0537856,-0.100014865,-3.8832161,-3.119736,0.0,0.30827177,-0.00066801906,0.005468368,0.0037457698,0.02662216,0.01762754,inf,inf,inf,inf,1,1,1,1,4,1,4,5,0,0,0
106126669,0,0.0,0.0,0.39157498,0.36457402,-0.24255593,2.7567148e-05,0.00022730231,-0.25493774,0.14029104,0.09936111,-0.0012920509,-0.0015664399,0.0009313082,0.0062356098,0.003024282,1.0551816,-1.3142836,2.6881318,-3.1175835,0.0,0.3079492,0.0012920509,0.005137472,0.0035328623,0.025712628,0.017083295,inf,inf,inf,inf,1,1,1,1,4,1,4,5,0,0,0
106230686,0,0.0,0.0,0.40586197,0.38530445,-0.24501535,2.7567148e-05,0.00022730231,-0.25493774,0.1342625,0.13312785,-0.035440803,-0.036050975,0.0009313082,0.0062356098,0.003024282,1.1495205,4.409976,-2.7602084,-3.1167684,0.0,0.3104086,0.035440803,0.005198995,0.0035717553,0.025927398,0.017196955,inf,inf,inf,inf,1,1,1,1,4,1,4,5,0,0,0
106326669,0,0.0,0.0,0.41679588,0.40601984,-0.25015944,2.7567148e-05,0.00022730231,-0.25493774,0.1307088,0.14415905,-0.055923983,-0.057660703,0.0009313082,0.0062356098,0.003024282,3.0223331,-1.9175105,-1.0220644,-3.1154547,0.0,0.31555268,0.055923983,0.0051583713,0.003543484,0.025880937,0.017153645,inf,inf,inf,inf,1,1,1,1,4,1,4,5,0,0,0
106430668,0,0.0,0.0,0.42557442,0.42860928,-0.25912157,2.7567148e-05,0.00022730231,-0.25493774,0.11470959,0.15884615,-0.07249125,-0.076045744,0.0009313082,0.0062356098,0.003024282,1.5137632,2.476989,1.0310695,-3.1139421,0.0,0.3245148,0.07249125,0.0052473187,0.003599439,0.026137523,0.017286234,inf,inf,inf,inf,1,1,1,1,4,1,4,5,0,0,0
106534712,0,0.0,0.0,0.43142086,0.44991058,-0.27006203,2.7567148e-05,0.00022730231,-0.25493774,0.09509136,0.1646248,-0.08769008,-0.09314828,0.0009313082,0.0062356098,0.003024282,-2.679027,-3.4667337,-0.9396472,-3.1141129,0.0,0.33545527,0.08769008,0.005301407,0.0036340696,0.026218427,0.017332392,inf,inf,inf,inf,1,1,1,1,4,1,4,5,0,0,0
106630668,0,0.0,0.0,0.43468416,0.4679824,-0.2813125,2.7567148e-05,0.00022730231,-0.25493774,0.09667598,0.16215771,-0.0899221,-0.09666775,0.0009313082,0.0062356098,0.003024282,4.4612875,-3.6281877,-0.27320844,-3.1160047,0.0,0.34670573,0.0899221,0.005241067,0.003593985,0.026097218,0.017263288,inf,inf,inf,inf,1,1,1,1,4,1,4,5,0,0,0
106734685,0,0.0,0.0,0.43719965,0.48437864,-0.29362297,2.7567148e-05,0.00022730231,-0.25493774,0.068221495,0.16507268,-0.08966241,-0.097009234,0.0009313082,0.0062356098,0.003024282,-2.4290237,2.8058262,1.0677124,-3.1179693,0.0,0.3590162,0.08966241,0.0053158575,0.003642515,0.026269287,0.017376026,inf,inf,inf,inf,1,1,1,1,4,1,4,5,0,0,0
106838669,0,0.0,0.0,0.43964413,0.49784222,-0.30401137,2.7567148e-05,0.00022730231,-0.25493774,0.07203321,0.14328927,-0.08014093,-0.08715948,0.0009313082,0.0062356098,0.003024282,0.4079971,-4.4594436,-0.6904742,-3.120168,0.0,0.3694046,0.08014093,0.0053614127,0.003673418,0.026315281,0.017415917,inf,inf,inf,inf,1,1,1,1,4,1,4,5,0,0,0
106942671,0,0.0,0.0,0.44199273,0.5077419,-0.3118572,2.7567148e-05,0.00022730231,-0.25493774,0.049639717,0.123687044,-0.07029626,-0.07598967,0.0009313082,0.0062356098,0.003024282,-1.9355187,2.7787848,2.5507052,-3.1236436,0.0,0.37725043,0.07029626,0.0050850636,0.0034951523,0.025636775,0.017026272,inf,inf,inf,inf,1,1,1,1,4,1,4,5,0,0,0
107046669,0,0.0,0.0,0.445018,0.5142852,-0.31872746,2.7567148e-05,0.00022730231,-0.25493774,0.06851664,0.09030207,-0.078506544,-0.08217597,0.0009313082,0.0062356098,0.003024282,0.80072206,-0.81428576,-3.64204,-3.1277928,0.0,0.3841207,0.078506544,0.0051409095,0.003533299,0.025712362,0.01709624,inf,inf,inf,inf,1,1,1,1,4,1,4,5,0,0,0
107150670,0,0.0,0.0,0.448491,0.5169961,-0.32383412,2.7567148e-05,0.00022730231,-0.25493774,0.063370705,0.07520571,-0.05133224,-0.052918117,0.0009313082,0.0062356098,0.003024282,2.0855837,-0.20138074,0.8068875,-3.1325667,0.0,0.38922736,0.05133224,0.0052119135,0.0035800175,0.0259308,0.01720646,inf,inf,inf,inf,1,1,1,1,4,1,4,5,0,0,0
107246717,0,0.0,0.0,0.45208776,0.51627815,-0.32644057,2.7567148e-05,0.00022730231,-0.25493774,0.061549045,0.03722148,-0.03667128,-0.0365847,0.0009313082,0.0062356098,0.003024282,4.544697,3.0474954,0.29503545,-3.136377,0.0,0.3918338,0.03667128,0.0051308726,0.0035279004,0.025705732,0.01707809,inf,inf,inf,inf,1,1,1,1,4,1,4,5,0,0,0
107350669,0,0.0,0.0,0.45686474,0.51217574,-0.32748377,2.7567148e-05,0.00022730231,-0.25493774,0.06456986,7.5771706e-05,-0.028804693,-0.027082788,0.0009313082,0.0062356098,0.003024282,0.51445955,-0.63862187,-2.8365943,3.1413388,0.0,0.392877,0.028804693,0.005190507,0.0035670449,0.02583499,0.017169965,inf,inf,inf,inf,1,1,1,1,4,1,4,5,0,0,0
107454681,0,0.0,0.0,0.4622,0.50441045,-0.32655287,2.7567148e-05,0.00022730231,-0.25493774,0.047011342,-0.033466276,-0.007984989,-0.0048287627,0.0009313082,0.0062356098,0.003024282,-1.1413808,-3.64968,-0.22537957,3.136636,0.0,0.3919461,0.007984989,0.0052851937,0.003627998,0.026134366,0.017347315,inf,inf,inf,inf,1,1,1,1,4,1,4,5,0,0,0
107550669,0,0.0,0.0,0.46687418,0.49532312,-0.3243619,2.7567148e-05,0.00022730231,-0.25493774,0.047342014,-0.041190796,0.00016235257,0.004385973,0.0009313082,0.0062356098,0.003024282,5.4571633,3.5935504,-1.5280014,3.1321828,0.0,0.38975513,-0.00016235257,0.005230899,0.0035927969,0.02601123,0.017268578,inf,inf,inf,inf,1,1,1,1,4,1,4,5,0,0,0
107654669,0,0.0,0.0,0.4721099,0.48403397,-0.32279742,2.7567148e-05,0.00022730231,-0.25493774,0.02407528,-0.057477098,-0.008830366,-0.0038670716,0.0009313082,0.0062356098,0.003024282,-3.4746487,2.756336,0.80719864,3.1294637,0.0,0.38819066,0.008830366,0.005292921,0.0036335932,0.026125612,0.017344613,inf,inf,inf,inf,1,1,1,1,4,1,4,5,0,0,0
107758669,0,0.0,0.0,0.47651932,0.47224048,-0.32250506,2.7567148e-05,0.00022730231,-0.25493774,0.020686436,-0.072870284,-0.014772589,-0.009837353,0.0009313082,0.0062356098,0.003024282,0.3546133,1.9260828,-1.2506387,3.1295981,0.0,0.3878983,0.014772589,0.005347682,0.0036694612,0.026255095,0.017407978,inf,inf,inf,inf,1,1,1,1,4,1,4,5,0,0,0
107862675,0,0.0,0.0,0.47939956,0.46155694,-0.32282683,2.7567148e-05,0.00022730231,-0.25493774,0.02489221,-0.06980002,-0.009842862,-0.005833837,0.0009313082,0.0062356098,0.003024282,1.8756825,-2.5820708,-2.5152695,3.1311069,0.0,0.38822007,0.009842862,0.005422378,0.0037164546,0.026495216,0.017527742,inf,inf,inf,inf,1,1,1,1,4,1,4,5,0,0,0
107958669,0,0.0,0.0,0.48080724,0.4532777,-0.32411304,2.7567148e-05,0.00022730231,-0.25493774,0.028231546,-0.064440496,-0.022194374,-0.019377742,0.0009313082,0.0062356098,0.003024282,3.2161977,-1.4782425,-2.9570756,3.1342676,0.0,0.38950628,0.022194374,0.0053383014,0.003661272,0.02627525,0.01739933,inf,inf,inf,inf,1,1,1,1,4,1,4,5,0,0,0
108062669,0,0.0,0.0,0.48080873,0.4471234,-0.32686538,2.7567148e-05,0.00022730231,-0.25493774,0.0060678264,-0.054444883,-0.021027943,-0.019496782,0.0009313082,0.0062356098,0.003024282,0.77740866,-3.5805728,1.2293282,3.1376762,0.0,0.3922586,0.021027943,0.0054196455,0.0037129226,0.026499411,0.017528623,inf,inf,inf,inf,1,1,1,1,4,1,4,5,0,0,0
108166675,0,0.0,0.0,0.480029,0.4441501,-0.33081692,2.7567148e-05,0.00022730231,-0.25493774,-0.0042535136,-0.021888187,-0.020232018,-0.019936504,0.0009313082,0.0062356098,0.003024282,2.909448,6.2614193,1.3937404,3.1407032,0.0,0.39621016,0.020232018,0.005119876,0.00351901,0.025710756,0.017065134,inf,inf,inf,inf,1,1,1,1,4,1,4,5,0,0,0
108270669,0,0.0,0.0,0.47868118,0.4447831,-0.33500317,2.7567148e-05,0.00022730231,-0.25493774,-0.004923527,-0.01795246,-0.032954104,-0.033767693,0.0009313082,0.0062356098,0.003024282,-3.1006901,0.41122904,2.0486064,3.139101,0.0,0.4003964,0.032954104,0.0052251723,0.0035858199,0.026046246,0.017259365,inf,inf,inf,inf,1,1,1,1,4,1,4,5,0,0,0
108366668,0,0.0,0.0,0.477893,0.44882992,-0.33989406,2.7567148e-05,0.00022730231,-0.25493774,-0.0025187854,0.014584387,-0.044320762,-0.045841634,0.0009313082,0.0062356098,0.003024282,1.9455913,6.1281605,0.7094655,3.1326973,0.0,0.4052873,0.044320762,0.005154964,0.0035412384,0.025788942,0.017121179,inf,inf,inf,inf,1,1,1,1,4,1,4,5,0,0,0
108470694,0,0.0,0.0,0.47843087,0.45596004,-0.347887,2.7567148e-05,0.00022730231,-0.25493774,0.012075786,0.036394633,-0.081716694,-0.083783686,0.0009313082,0.0062356098,0.003024282,0.95070666,5.677477,-0.031772163,3.1248295,0.0,0.41328025,0.081716694,0.0052376683,0.0035948192,0.026018145,0.017252835,inf,inf,inf,inf,1,1,1,1,4,1,4,5,0,0,0
108574669,0,0.0,0.0,0.48098537,0.46557266,-0.3604164,2.7567148e-05,0.00022730231,-0.25493774,0.024825359,0.05118107,-0.13444662,-0.13737851,0.0009313082,0.0062356098,0.003024282,0.31907904,0.89370805,-1.5977219,3.115966,0.0,0.42580965,0.13444662,0.0053258943,0.003651374,0.02628435,0.017388403,inf,inf,inf,inf,1,1,1,1,4,1,4,5,0,0,0
108670669,0,0.0,0.0,0.48525605,0.47577512,-0.3777799,2.7567148e-05,0.00022730231,-0.25493774,0.029134495,0.050366845,-0.18059878,-0.18502559,0.0009313082,0.0062356098,0.003024282,-3.2524831,-1.0426241,0.5714955,3.1078444,0.0,0.44317314,0.18059878,0.0052325013,0.003590866,0.026024157,0.017218603,inf,inf,inf,inf,1,1,1,1,4,1,4,5,0,0,0
108774679,0,0.0,0.0,0.49089053,0.48746708,-0.40303373,2.7567148e-05,0.00022730231,-0.25493774,0.029769046,0.06868874,-0.22708069,-0.23408206,0.0009313082,0.0062356098,0.003024282,-3.145012,2.2528684,1.3671736,3.1010835,0.0,0.46842697,0.22708069,0.0053064884,0.0036364596,0.026293568,0.017336084,inf,inf,inf,inf,1,1,1,1,4,1,4,5,0,0,0
108878668,0,0.0,0.0,0.496927,0.49819854,-0.4333938,2.7567148e-05,0.00022730231,-0.25493774,0.033138875,0.06253368,-0.25657162,-0.26660582,0.0009313082,0.0062356098,0.003024282,1.2829181,-3.9749274,1.3368208,3.097098,0.0,0.49878705,0.25657162,0.0053819963,0.0036818357,0.026556063,0.017461387,inf,inf,inf,inf,1,1,1,1,4,1,4,5,0,0,0
108982678,0,0.0,0.0,0.50242203,0.50835073,-0.46563056,2.7567148e-05,0.00022730231,-0.25493774,0.023128977,0.04820104,-0.26614663,-0.2787873,0.0009313082,0.0062356098,0.003024282,-0.51327413,-5.2511897,-1.9500142,3.0945253,0.0,0.5310238,0.26614663,0.005465846,0.0037333693,0.026738552,0.017575813,inf,inf,inf,inf,1,1,1,1,4,1,4,5,0,0,0
109086675,0,0.0,0.0,0.5069661,0.51559615,-0.49687004,2.7567148e-05,0.00022730231,-0.25493774,0.010877782,0.03780419,-0.2561287,-0.26961812,0.0009313082,0.0062356098,0.003024282,-3.252522,-0.46715802,1.6569253,3.0941494,0.0,0.56226325,0.2561287,0.005142768,0.0035266466,0.025832912,0.017076027,inf,inf,inf,inf,1,1,1,1,4,1,4,5,0,0,0
109182669,0,0.0,0.0,0.510239,0.5199115,-0.5233248,2.7567148e-05,0.00022730231,-0.25493774,0.016136061,0.030286983,-0.24450535,-0.25685257,0.0009313082,0.0062356098,0.003024282,-0.24774101,-3.1936495,1.860056,3.0952055,0.0,0.58871806,0.24450535,0.0054519004,0.0037260142,0.02661433,0.017555628,inf,inf,inf,inf,1,1,1,1,4,1,4,5,0,0,0
109285108,0,0.0,0.0,0.51247317,0.5215846,-0.5471938,2.7567148e-05,0.00022730231,-0.25493774,0.0078445235,0.012879772,-0.21957003,-0.22873554,0.0009313082,0.0062356098,0.003024282,1.5134068,-3.382767,1.3839563,3.0961485,0.0,0.6125871,0.21957003,0.005132909,0.0035236443,0.02574087,0.017070146,inf,inf,inf,inf,1,1,1,1,4,1,4,5,0,0,0
109389869,0,0.0,0.0,0.5129165,0.5207147,-0.5666703,2.7567148e-05,0.00022730231,-0.25493774,0.005924923,0.0019356635,-0.2011981,-0.20602894,0.0009313082,0.0062356098,0.003024282,0.37677518,-3.089784,-1.7710073,3.0989583,0.0,0.6320635,0.2011981,0.0052245604,0.0035842103,0.025983842,0.01723238,inf,inf,inf,inf,1,1,1,1,4,1,4,5,0,0,0
109493910,0,0.0,0.0,0.5117504,0.51726454,-0.581439,2.7567148e-05,0.00022730231,-0.25493774,-0.0026374313,-0.027865564,-0.17576066,-0.17575777,0.0009313082,0.0062356098,0.003024282,-1.0585965,-0.2702206,-0.48567197,3.1016917,0.0,0.6468322,0.17576066,0.00528767,0.003627276,0.026123825,0.017326703,inf,inf,inf,inf,1,1,1,1,4,1,4,5,0,0,0
109598669,0,0.0,0.0,0.5086916,0.5114293,-0.59245265,2.7567148e-05,0.00022730231,-0.25493774,-0.010855884,-0.037557166,-0.14538078,-0.14083256,0.0009313082,0.0062356098,0.003024282,0.9753839,-3.8713863,0.6010892,3.1054182,0.0,0.65784585,0.14538078,0.0053792614,0.0036873983,0.026373416,0.017482186,inf,inf,inf,inf,1,1,1,1,4,1,4,5,0,0,0
109697869,0,0.0,0.0,0.5053138,0.50432986,-0.6011736,2.7567148e-05,0.00022730231,-0.25493774,-0.011021363,-0.05515688,-0.13726985,-0.12934273,0.0009313082,0.0062356098,0.003024282,0.8446956,-0.5497156,0.45924532,3.1096888,0.0,0.66656685,0.13726985,0.0053077997,0.0036418855,0.026195157,0.017386645,inf,inf,inf,inf,1,1,1,1,4,1,4,5,0,0,0
109801905,0,0.0,0.0,0.50212616,0.49436644,-0.60962445,2.7567148e-05,0.00022730231,-0.25493774,-0.0046175257,-0.077040054,-0.13000652,-0.11983922,0.0009313082,0.0062356098,0.003024282,2.1741126,-1.1475658,0.34424374,3.1136162,0.0,0.6750177,0.13000652,0.005103297,0.0035098444,0.025856841,0.017212681,inf,inf,inf,inf,1,1,1,1,4,1,4,5,0,0,0
109905870,0,0.0,0.0,0.50001603,0.48224726,-0.6186264,2.7567148e-05,0.00022730231,-0.25493774,-0.010999193,-0.09982408,-0.121725224,-0.11087325,0.0009313082,0.0062356098,0.003024282,-0.7590979,-0.23507135,-1.0024258,3.1169505,0.0,0.6840197,0.121725224,0.005152196,0.0035432964,0.02586161,0.01720816,inf,inf,inf,inf,1,1,1,1,4,1,4,5,0,0,0
110001885,0,0.0,0.0,0.49912181,0.46955147,-0.6277809,2.7567148e-05,0.00022730231,-0.25493774,-0.0077133793,-0.10921563,-0.1187944,-0.10849812,0.0009313082,0.0062356098,0.003024282,0.79637986,0.74439365,1.0090355,3.1210003,0.0,0.6931741,0.1187944,0.0050739883,0.0034928399,0.025619043,0.017043019,inf,inf,inf,inf,1,1,1,1,4,1,4,5,0,0,0
110105885,0,0.0,0.0,0.49923408,0.45447943,-0.63899285,2.7567148e-05,0.00022730231,-0.25493774,0.0010473274,-0.12677296,-0.12203491,-0.11324963,0.0009313082,0.0062356098,0.003024282,0.32612103,-1.4584936,0.287612,3.1256142,0.0,0.7043861,0.12203491,0.005149912,0.0035417532,0.025780646,0.01713285,inf,inf,inf,inf,1,1,1,1,4,1,4,5,0,0,0
110209869,0,0.0,0.0,0.50088173,0.43784478,-0.65211046,2.7567148e-05,0.00022730231,-0.25493774,-0.00028677288,-0.12903206,-0.13170858,-0.12495642,0.0009313082,0.0062356098,0.003024282,-3.6130931,2.6664345,-1.8605295,3.1304398,0.0,0.71750367,0.13170858,0.005235857,0.0035962267,0.026033547,0.017276151,inf,inf,inf,inf,1,1,1,1,4,1,4,5,0,0,0
110306669,0,0.0,0.0,0.5032517,0.42266423,-0.6647913,2.7567148e-05,0.00022730231,-0.25493774,0.010208053,-0.1392955,-0.12103369,-0.11632729,0.0009313082,0.0062356098,0.003024282,-1.2587705,-2.3199272,0.45760235,3.135466,0.0,0.73018456,0.12103369,0.005143202,0.003536291,0.025760952,0.01710033,inf,inf,inf,inf,1,1,1,1,4,1,4,5,0,0,0
110409121,0,0.0,0.0,0.50610703,0.40693036,-0.67811996,2.7567148e-05,0.00022730231,-0.25493774,0.011888721,-0.13859627,-0.112543285,-0.10974694,0.0009313082,0.0062356098,0.003024282,-0.57177126,0.36119062,0.8140763,-3.1412618,0.0,0.7435132,0.112543285,0.0051966696,0.0035704398,0.025888015,0.017179916,inf,inf,inf,inf,1,1,1,1,4,1,4,5,0,0,0
110513869,0,0.0,0.0,0.50869656,0.39160764,-0.69199413,2.7567148e-05,0.00022730231,-0.25493774,0.016014632,-0.1385335,-0.12763548,-0.12614042,0.0009313082,0.0062356098,0.003024282,1.7175881,-0.028732898,-2.0820985,-3.1336744,0.0,0.7573874,0.12763548,0.0052627707,0.0036128778,0.026089277,0.017305177,inf,inf,inf,inf,1,1,1,1,4,1,4,5,0,0,0
110609869,0,0.0,0.0,0.51091254,0.37710795,-0.70540774,2.7567148e-05,0.00022730231,-0.25493774,0.023816569,-0.15325102,-0.14550348,-0.14487158,0.0009313082,0.0062356098,0.003024282,2.2427452,-1.6946986,-3.235103,-3.1281388,0.0,0.77080095,0.14550348,0.005198068,0.0035709734,0.025913207,0.017197708,inf,inf,inf,inf,1,1,1,1,4,1,4,5,0,0,0
110713875,0,0.0,0.0,0.5129364,0.36071292,-0.7215279,2.7567148e-05,0.00022730231,-0.25493774,-0.002423599,-0.17506619,-0.14303727,-0.14326929,0.0009313082,0.0062356098,0.003024282,-4.113757,-4.2648516,0.13582018,-3.12468,0.0,0.78692114,0.14303727,0.005272986,0.0036188646,0.026118955,0.017307237,inf,inf,inf,inf,1,1,1,1,4,1,4,5,0,0,0
110817869,0,0.0,0.0,0.5131675,0.34331486,-0.73766726,2.7567148e-05,0.00022730231,-0.25493774,-0.0061549544,-0.18074377,-0.14259821,-0.1438894,0.0009313082,0.0062356098,0.003024282,-0.6611723,-0.14830135,-1.3969057,-3.1245556,0.0,0.80306053,0.14259821,0.005376807,0.0036842062,0.026447242,0.017482977,inf,inf,inf,inf,1,1,1,1,4,1,4,5,0,0,0
110921883,0,0.0,0.0,0.511185,0.32535502,-0.75295115,2.7567148e-05,0.00022730231,-0.25493774,-0.018846488,-0.1740637,-0.13434868,-0.13650775,0.0009313082,0.0062356098,0.003024282,-0.8733294,0.35408399,-2.4944677,-3.1264513,0.0,0.81834435,0.13434868,0.005442342,0.0037262747,0.026565565,0.01755155,inf,inf,inf,inf,1,1,1,1,4,1,4,5,0,0,0
111017875,0,0.0,0.0,0.50715446,0.30856976,-0.7656361,2.7567148e-05,0.00022730231,-0.25493774,-0.04251251,-0.17603123,-0.104936205,-0.107386,0.0009313082,0.0062356098,0.003024282,-2.4554274,-0.59210896,1.6335394,-3.1304393,0.0,0.8310293,0.104936205,0.0053453394,0.0036640791,0.02627475,0.017385555,inf,inf,inf,inf,1,1,1,1,4,1,4,5,0,0,0
111121890,0,0.0,0.0,0.50043267,0.28941506,-0.7769924,2.7567148e-05,0.00022730231,-0.25493774,-0.06511902,-0.17178978,-0.10273977,-0.10476245,0.0009313082,0.0062356098,0.003024282,1.1530089,3.5106122,0.10735433,-3.1407769,0.0,0.84238565,0.10273977,0.0050613093,0.003480245,0.02555935,0.016971353,inf,inf,inf,inf,1,1,1,1,4,1,4,5,0,0,0
111225869,0,0.0,0.0,0.49139717,0.26941413,-0.7875292,2.7567148e-05,0.00022730231,-0.25493774,-0.073871724,-0.1802311,-0.10915816,-0.11015807,0.0009313082,0.0062356098,0.003024282,2.1891441,-1.2220691,-0.7265604,3.1292279,0.0,0.85292244,0.10915816,0.0051466506,0.003535843,0.025781943,0.017119942,inf,inf,inf,inf,1,1,1,1,4,1,4,5,0,0,0
111321875,0,0.0,0.0,0.48141417,0.25027972,-0.7980264,2.7567148e-05,0.00022730231,-0.25493774,-0.09715341,-0.17835848,-0.11386778,-0.113962814,0.0009313082,0.0062356098,0.003024282,-1.3295097,4.0489054,1.7104243,3.1190536,0.0,0.86341965,0.11386778,0.005417954,0.0037124155,0.026440263,0.017509826,inf,inf,inf,inf,1,1,1,1,4,1,4,5,0,0,0
111425881,0,0.0,0.0,0.46904543,0.23145902,-0.80971074,2.7567148e-05,0.00022730231,-0.25493774,-0.09882512,-0.1679042,-0.11955536,-0.119329005,0.0009313082,0.0062356098,0.003024282,0.9841478,-1.1378708,0.15899746,3.109778,0.0,0.87510395,0.11955536,0.0054475456,0.0037328734,0.026482968,0.017519882,inf,inf,inf,inf,1,1,1,1,4,1,4,5,0,0,0
111529868,0,0.0,0.0,0.45538953,0.21367122,-0.82243097,2.7567148e-05,0.00022730231,-0.25493774,-0.107508,-0.155496,-0.12282874,-0.12301151,0.0009313082,0.0062356098,0.003024282,-1.1897025,3.545565,1.0875746,3.1051211,0.0,0.8878242,0.12282874,0.005447199,0.003732669,0.026475636,0.01751929,inf,inf,inf,inf,1,1,1,1,4,1,4,5,0,0,0
111625875,0,0.0,0.0,0.4418201,0.1987277,-0.8350606,2.7567148e-05,0.00022730231,-0.25493774,-0.1125362,-0.1472693,-0.1375021,-0.13839288,0.0009313082,0.0062356098,0.003024282,-0.95989805,-0.06630401,-4.052419,3.104206,0.0,0.9004538,0.1375021,0.0053482,0.0036672067,0.026321497,0.017419672,inf,inf,inf,inf,1,1,1,1,4,1,4,5,0,0,0
111729869,0,0.0,0.0,0.42663413,0.18318607,-0.8493602,2.7567148e-05,0.00022730231,-0.25493774,-0.12928127,-0.14149474,-0.123589195,-0.12530278,0.0009313082,0.0062356098,0.003024282,-2.1147773,1.9929318,2.8718865,3.1042204,0.0,0.91475344,0.123589195,0.0054105944,0.003706464,0.026503548,0.017523173,inf,inf,inf,inf,1,1,1,1,4,1,4,5,0,0,0
111833869,0,0.0,0.0,0.41193345,0.17011705,-0.86383885,2.7567148e-05,0.00022730231,-0.25493774,-0.12421618,-0.12486577,-0.12002863,-0.12234505,0.0009313082,0.0062356098,0.003024282,4.066506,-2.3821466,2.0942194,3.1029181,0.0,0.9292321,0.12002863,0.005104269,0.003508249,0.025707886,0.01705037,inf,inf,inf,inf,1,1,1,1,4,1,4,5,0,0,0
111929887,0,0.0,0.0,0.39855248,0.15919976,-0.87532365,2.7567148e-05,0.00022730231,-0.25493774,-0.14817238,-0.121716104,-0.09425702,-0.09678791,0.0009313082,0.0062356098,0.003024282,-2.0282383,0.51990116,0.6135915,3.1034815,0.0,0.94071686,0.09425702,0.005380132,0.0036863647,0.02640716,0.017465416,inf,inf,inf,inf,1,1,1,1,4,1,4,5,0,0,0
112033869,0,0.0,0.0,0.38396785,0.14939913,-0.8831231,2.7567148e-05,0.00022730231,-0.25493774,-0.15767361,-0.102837354,-0.05211645,-0.054186042,0.0009313082,0.0062356098,0.003024282,-1.213094,0.12037003,0.5896035,3.1026237,0.0,0.94851637,0.05211645,0.0050929193,0.0035004695,0.025659563,0.017036773,inf,inf,inf,inf,1,1,1,1,4,1,4,5,0,0,0
112137894,0,0.0,0.0,0.3688246,0.14088102,-0.88554114,2.7567148e-05,0.00022730231,-0.25493774,-0.15669002,-0.08577624,-0.013546919,-0.013958278,0.0009313082,0.0062356098,0.003024282,1.7184968,1.4658297,0.84693146,3.1010342,0.0,0.9509344,0.013546919,0.0051620444,0.00354652,0.025790134,0.017138114,inf,inf,inf,inf,1,1,1,1,4,1,4,5,0,0,0
112233888,0,0.0,0.0,0.35422087,0.13427556,-0.8832506,2.7567148e-05,0.00022730231,-0.25493774,-0.16845828,-0.072246015,0.0067004524,0.008808986,0.0009313082,0.0062356098,0.003024282,-2.827248,1.3713255,-1.9992841,3.0993452,0.0,0.9486438,-0.0067004524,0.005078479,0.0034940464,0.025533423,0.017004967,inf,inf,inf,inf,1,1,1,1,4,1,4,5,0,0,0
112337869,0,0.0,0.0,0.33761203,0.12840153,-0.87725186,2.7567148e-05,0.00022730231,-0.25493774,-0.16859484,-0.06032592,0.036767744,0.041902073,0.0009313082,0.0062356098,0.003024282,-3.0780234,1.7538899,1.4993904,3.0981305,0.0,0.9426451,-0.036767744,0.005148112,0.0035405133,0.02570832,0.017109832,inf,inf,inf,inf,1,1,1,1,4,1,4,5,0,0,0
112441881,0,0.0,0.0,0.3208384,0.1236266,-0.8693288,2.7567148e-05,0.00022730231,-0.25493774,-0.15293483,-0.055894278,0.03841424,0.045943707,0.0009313082,0.0062356098,0.003024282,-0.117660664,-2.4621193,-0.58462965,3.0987175,0.0,0.93472207,-0.03841424,0.00520777,0.0035802906,0.02584354,0.017182987,inf,inf,inf,inf,1,1,1,1,4,1,4,5,0,0,0
112545897,0,0.0,0.0,0.30477768,0.120161474,-0.86108774,2.7567148e-05,0.00022730231,-0.25493774,-0.143059,-0.036128014,0.046044197,0.05465598,0.0009313082,0.0062356098,0.003024282,-0.08969632,-3.3009849,-0.8770885,3.1016507,0.0,0.926481,-0.046044197,0.0052904696,0.0036329913,0.02612364,0.01734417,inf,inf,inf,inf,1,1,1,1,4,1,4,5,0,0,0
112649904,0,0.0,0.0,0.29001957,0.118321285,-0.8534251,2.7567148e-05,0.00022730231,-0.25493774,-0.12626675,-0.010667645,0.059423737,0.06765353,0.0009313082,0.0062356098,0.003024282,1.4587404,2.66896,0.20911534,3.106494,0.0,0.91881835,-0.059423737,0.005397679,0.003700872,0.026450727,0.017523702,inf,inf,inf,inf,1,1,1,1,4,1,4,5,0,0,0
112745869,0,0.0,0.0,0.27845928,0.11738455,-0.8476177,2.7567148e-05,0.00022730231,-0.25493774,-0.11114903,-0.014054363,0.044384412,0.05124287,0.0009313082,0.0062356098,0.003024282,-1.0259086,-2.256175,-2.0897663,3.111672,0.0,0.91301095,-0.044384412,0.0053292853,0.0036561117,0.026258098,0.017399512,inf,inf,inf,inf,1,1,1,1,4,1,4,5,0,0,0
112849877,0,0.0,0.0,0.26849514,0.1171069,-0.8430908,2.7567148e-05,0.00022730231,-0.25493774,-0.09538198,-0.010547763,0.047448892,0.052202206,0.0009313082,0.0062356098,0.003024282,-0.57342565,-0.2662828,0.94575316,3.1176405,0.0,0.908484,-0.047448892,0.005417387,0.00371222,0.026485674,0.017530547,inf,inf,inf,inf,1,1,1,1,4,1,4,5,0,0,0
112953882,0,0.0,0.0,0.26080388,0.116508625,-0.84021795,2.7567148e-05,0.00022730231,-0.25493774,-0.08933292,-0.0081039965,0.045015316,0.04733751,0.0009313082,0.0062356098,0.003024282,-1.6538858,2.8112876,1.1173731,3.124931,0.0,0.90561116,-0.045015316,0.005491778,0.0037598074,0.026675543,0.017628428,inf,inf,inf,inf,1,1,1,1,4,1,4,5,0,0,0
113049901,0,0.0,0.0,0.25527716,0.11591561,-0.8386086,2.7567148e-05,0.00022730231,-0.25493774,-0.08225313,-0.0014694033,0.035546355,0.03565893,0.0009313082,0.0062356098,0.003024282,-2.2669888,3.3843305,-0.26281804,3.1312454,0.0,0.90400183,-0.035546355,0.005385723,0.0036916428,0.026367484,0.017452199,inf,inf,inf,inf,1,1,1,1,4,1,4,5,0,0,0
113153893,0,0.0,0.0,0.25055835,0.11492948,-0.83779347,2.7567148e-05,0.00022730231,-0.25493774,-0.06615871,-0.0057130926,0.04063645,0.03872909,0.0009313082,0.0062356098,0.003024282,0.7289062,1.6974508,3.7038646,3.1371934,0.0,0.9031867,-0.04063645,0.005089967,0.0034998758,0.025631608,0.017014246,inf,inf,inf,inf,1,1,1,1,4,1,4,5,0,0,0
113257907,0,0.0,0.0,0.24676354,0.11351833,-0.83619964,2.7567148e-05,0.00022730231,-0.25493774,-0.046025068,-0.010221734,0.046596576,0.043177806,0.0009313082,0.0062356098,0.003024282,5.7277884,-1.716052,0.9928984,3.14018,0.0,0.90159285,-0.046596576,0.0051565086,0.0035428943,0.025791897,0.017113036,inf,inf,inf,inf,1,1,1,1,4,1,4,5,0,0,0
113353869,0,0.0,0.0,0.24399023,0.112010576,-0.83417976,2.7567148e-05,0.00022730231,-0.25493774,-0.0497984,-0.003944089,0.03905548,0.034894537,0.0009313082,0.0062356098,0.003024282,-2.6420128,-4.206547,-0.81923807,3.1396844,0.0,0.89957297,-0.03905548,0.0051053683,0.0035091327,0.02568197,0.01705434,inf,inf,inf,inf,1,1,1,1,4,1,4,5,0,0,0
113457894,0,0.0,0.0,0.24092786,0.111048825,-0.8313639,2.7567148e-05,0.00022730231,-0.25493774,-0.038533505,0.024687856,0.040741157,0.036514137,0.0009313082,0.0062356098,0.003024282,0.9081752,3.210275,2.037957,3.1372406,0.0,0.8967571,-0.040741157,0.005183015,0.003559957,0.025864411,0.017168619,inf,inf,inf,inf,1,1,1,1,4,1,4,5,0,0,0
113561869,0,0.0,0.0,0.2377454,0.11127615,-0.8288573,2.7567148e-05,0.00022730231,-0.25493774,-0.017634824,0.048235994,0.033216633,0.0292857,0.0009313082,0.0062356098,0.003024282,2.2381198,4.124405,-0.3255023,3.136452,0.0,0.8942505,-0.033216633,0.0052461014,0.0036016298,0.026010148,0.017242707,inf,inf,inf,inf,1,1,1,1,4,1,4,5,0,0,0
113665886,0,0.0,0.0,0.23542483,0.11349756,-0.82803464,2.7567148e-05,0.00022730231,-0.25493774,-0.013312606,0.044557784,-0.0011957397,-0.004996778,0.0009313082,0.0062356098,0.003024282,-1.2069837,-0.1881854,-0.82688856,3.132275,0.0,0.89342785,0.0011957397,0.0053077596,0.003641378,0.02617822,0.017339306,inf,inf,inf,inf,1,1,1,1,4,1,4,5,0,0,0
113761885,0,0.0,0.0,0.23488608,0.11781584,-0.8301505,2.7567148e-05,0.00022730231,-0.25493774,0.006889696,0.080953084,-0.021088632,-0.025237462,0.0009313082,0.0062356098,0.003024282,-0.24218355,1.7920064,-0.031285327,3.126547,0.0,0.8955437,0.021088632,0.0052333297,0.003592691,0.026005495,0.017229157,inf,inf,inf,inf,1,1,1,1,4,1,4,5,0,0,0
113865890,0,0.0,0.0,0.23650955,0.12642941,-0.8349834,2.7567148e-05,0.00022730231,-0.25493774,0.033451095,0.10269197,-0.030140942,-0.03538589,0.0009313082,0.0062356098,0.003024282,3.6172063,1.3580436,-0.53296536,3.1201315,0.0,0.9003767,0.030140942,0.005323126,0.0036488397,0.026312448,0.017386347,inf,inf,inf,inf,1,1,1,1,4,1,4,5,0,0,0
