timestamp,ref_timestamp,ref_lat,ref_lon,x,y,z,delta_xy[0],delta_xy[1],delta_z,vx,vy,vz,z_deriv,delta_vxy[0],delta_vxy[1],delta_vz,ax,ay,az,yaw,ref_alt,dist_bottom,dist_bottom_rate,eph,epv,evh,evv,vxy_max,vz_max,hagl_min,hagl_max,xy_valid,z_valid,v_xy_valid,v_z_valid,xy_reset_counter,z_reset_counter,vxy_reset_counter,vz_reset_counter,xy_global,z_global,dist_bottom_valid
294777869,0,0.0,0.0,0.11823275,0.42537665,-0.035438884,2.259016e-05,-3.349781e-05,-0.36287126,0.001064835,0.0003999821,-0.0012963178,-0.0007638895,0.0029474539,-0.00021841089,1.5556272e-05,-0.0039118202,0.0071095657,-0.017033273,-3.112947,0.0,0.10027985,0.0012963178,0.0052826228,0.0037173077,0.025579318,0.017871147,inf,inf,inf,inf,1,1,1,1,4,1,4,5,0,0,0
294873869,0,0.0,0.0,0.118409604,0.42535207,-0.035499614,2.259016e-05,-3.349781e-05,-0.36287126,0.0008139105,0.00089581526,-0.0017142377,-0.0011706165,0.0029474539,-0.00021841089,1.5556272e-05,-0.0031804217,0.003358203,0.017390864,-3.112964,0.0,0.100321636,0.0017142377,0.0054010404,0.0037982892,0.026292728,0.018357787,inf,inf,inf,inf,1,1,1,1,4,1,4,5,0,0,0
294977881,0,0.0,0.0,0.11855582,0.42537317,-0.0355077,2.259016e-05,-3.349781e-05,-0.36287126,0.00085784425,0.0010805266,-0.0006180028,-5.1487936e-05,0.0029474539,-0.00021841089,1.5556272e-05,0.006353082,0.008945882,0.014568169,-3.1129417,0.0,0.10033005,0.0006180028,0.0054483064,0.0038294536,0.026772618,0.01866936,inf,inf,inf,inf,1,1,1,1,4,1,4,5,0,0,0
295081869,0,0.0,0.0,0.11868866,0.42537743,-0.035410214,2.259016e-05,-3.349781e-05,-0.36287126,0.001236551,0.0016903281,-0.00046293082,0.00013737494,0.0029474539,-0.00021841089,1.5556272e-05,0.109535314,0.1474166,-0.0017786104,-3.112226,0.0,0.10022959,0.00046293082,0.0054844134,0.0038532445,0.026865121,0.018736843,inf,inf,inf,inf,1,1,1,1,4,1,4,5,0,0,0
295185888,0,0.0,0.0,0.11879871,0.42544794,-0.035323255,2.259016e-05,-3.349781e-05,-0.36287126,0.0015260129,0.0012357306,-0.00095546653,-0.00031933218,0.0029474539,-0.00021841089,1.5556272e-05,0.3524426,0.1797666,-0.020031998,-3.112681,0.0,0.100230984,0.00095546653,0.005180006,0.0036417628,0.026010614,0.01816011,inf,inf,inf,inf,1,1,1,1,4,1,4,5,0,0,0
295289868,0,0.0,0.0,0.11889384,0.4254561,-0.03525838,2.259016e-05,-3.349781e-05,-0.36287126,0.0012435542,0.002356103,-0.0006646688,-1.5664627e-05,0.0029474539,-0.00021841089,1.5556272e-05,-0.02827205,-0.01980849,0.003510564,-3.1144848,0.0,0.10025127,0.0006646688,0.0052569793,0.0036954903,0.026150486,0.018258799,inf,inf,inf,inf,1,1,1,1,4,1,4,5,0,0,0
295385869,0,0.0,0.0,0.11897029,0.4256192,-0.035192553,2.259016e-05,-3.349781e-05,-0.36287126,0.0013487496,0.0026643022,-0.00047135443,0.00016817401,0.0029474539,-0.00021841089,1.5556272e-05,-0.13263594,-0.014504738,-0.08859821,-3.1129599,0.0,0.10011478,0.00047135443,0.0051719085,0.00363676,0.025861062,0.01806296,inf,inf,inf,inf,1,1,1,1,4,1,4,5,0,0,0
295489082,0,0.0,0.0,0.1189968,0.4257345,-0.035144243,2.259016e-05,-3.349781e-05,-0.36287126,0.0017211884,0.0010368642,-8.222248e-05,0.0005009747,0.0029474539,-0.00021841089,1.5556272e-05,0.13690022,-0.052559517,0.016532877,-3.1130326,0.0,0.1,8.222248e-05,0.0052120397,0.003665063,0.025907956,0.018097045,inf,inf,inf,inf,1,1,1,1,4,1,4,5,0,0,0
295593096,0,0.0,0.0,0.11896919,0.42573962,-0.03510292,2.259016e-05,-3.349781e-05,-0.36287126,0.00011152937,0.00090505613,0.0003381876,0.00086359936,0.0029474539,-0.00021841089,1.5556272e-05,0.094246954,0.020081993,0.03769476,-3.11367,0.0,0.1,-0.0003381876,0.0053098416,0.0037329737,0.02622344,0.01831378,inf,inf,inf,inf,1,1,1,1,4,1,4,5,0,0,0
295697085,0,0.0,0.0,0.118781716,0.42578968,-0.035042375,2.259016e-05,-3.349781e-05,-0.36287126,-0.0028147765,-0.0042787897,0.00033659104,0.00081821036,0.0029474539,-0.00021841089,1.5556272e-05,-0.419641,-0.08730077,0.03756576,-3.1136122,0.0,0.1,-0.00033659104,0.0053783753,0.0037808886,0.026357885,0.0184103,inf,inf,inf,inf,1,1,1,1,4,1,4,5,0,0,0
295801069,0,0.0,0.0,0.118511274,0.42573145,-0.03493844,2.259016e-05,-3.349781e-05,-0.36287126,0.00019273255,-0.0001100755,0.002031059,0.0024672356,0.0029474539,-0.00021841089,1.5556272e-05,0.05381986,-0.8493888,0.12988031,-3.1120336,0.0,0.1,-0.002031059,0.0054571703,0.003835868,0.026574707,0.01855943,inf,inf,inf,inf,1,1,1,1,4,1,4,5,0,0,0
295897071,0,0.0,0.0,0.1184142,0.4255453,-0.034788176,2.259016e-05,-3.349781e-05,-0.36287126,-6.1244005e-05,-0.0016552582,0.0025615888,0.0029632028,0.0029474539,-0.00021841089,1.5556272e-05,0.43994904,-0.15510188,0.3119956,-3.1126814,0.0,0.1,-0.0025615888,0.005353479,0.0037639895,0.026280496,0.018355511,inf,inf,inf,inf,1,1,1,1,4,1,4,5,0,0,0
296001093,0,0.0,0.0,0.11829599,0.42551816,-0.034632985,2.259016e-05,-3.349781e-05,-0.36287126,-3.3118547e-05,-0.00033962584,0.00023966814,0.00058079243,0.0029474539,-0.00021841089,1.5556272e-05,0.14925474,0.21343891,-0.15361603,-3.113773,0.0,0.1,-0.00023966814,0.0050651096,0.0035632926,0.025563978,0.017865421,inf,inf,inf,inf,1,1,1,1,4,1,4,5,0,0,0
296105083,0,0.0,0.0,0.118212566,0.4253649,-0.03450093,2.259016e-05,-3.349781e-05,-0.36287126,-0.001252924,0.0005528879,0.0029900023,0.0032341573,0.0029474539,-0.00021841089,1.5556272e-05,-0.12818538,-0.8403943,-0.11346371,-3.1132958,0.0,0.1,-0.0029900023,0.0051635583,0.003631626,0.025848579,0.018059334,inf,inf,inf,inf,1,1,1,1,4,1,4,5,0,0,0
296201097,0,0.0,0.0,0.11817068,0.42528123,-0.034445576,2.259016e-05,-3.349781e-05,-0.36287126,-0.00028909897,0.00048364865,0.0014194872,0.0015505869,0.0029474539,-0.00021841089,1.5556272e-05,0.3912246,0.052605193,0.019167377,-3.1133373,0.0,0.1,-0.0014194872,0.005446555,0.003828503,0.026532754,0.018526766,inf,inf,inf,inf,1,1,1,1,4,1,4,5,0,0,0
296304288,0,0.0,0.0,0.118072435,0.42534566,-0.03455721,2.259016e-05,-3.349781e-05,-0.36287126,-0.0016810581,0.000870106,-0.0002074065,-0.00020658625,0.0029474539,-0.00021841089,1.5556272e-05,-0.19766764,0.041630957,-0.13498612,-3.1136596,0.0,0.1,0.0002074065,0.005142029,0.003616778,0.025741985,0.017985756,inf,inf,inf,inf,1,1,1,1,4,1,4,5,0,0,0
296408293,0,0.0,0.0,0.11802319,0.42537636,-0.03482439,2.259016e-05,-3.349781e-05,-0.36287126,-0.001727586,0.0023842866,-0.0017080944,-0.0018317818,0.0029474539,-0.00021841089,1.5556272e-05,-0.0723434,-0.097145036,-0.11647544,-3.1135218,0.0,0.1,0.0017080944,0.005196811,0.0036548954,0.025872892,0.018074935,inf,inf,inf,inf,1,1,1,1,4,1,4,5,0,0,0
296512311,0,0.0,0.0,0.11808294,0.4254903,-0.035198357,2.259016e-05,-3.349781e-05,-0.36287126,-0.0015440886,-0.002379153,-0.0029368245,-0.0031339691,0.0029474539,-0.00021841089,1.5556272e-05,-0.33888903,-0.73270935,-0.35047936,-3.113371,0.0,0.1,0.0029368245,0.005296585,0.0037241834,0.026186822,0.018292597,inf,inf,inf,inf,1,1,1,1,4,1,4,5,0,0,0
296608269,0,0.0,0.0,0.11818224,0.42553315,-0.035616,2.259016e-05,-3.349781e-05,-0.36287126,-0.00074174406,0.0005893998,-0.0043812348,-0.004587263,0.0029474539,-0.00021841089,1.5556272e-05,-0.64940774,0.015007126,-0.29735684,-3.113718,0.0,0.100184605,0.0043812348,0.005234965,0.0036814178,0.02601608,0.018175583,inf,inf,inf,inf,1,1,1,1,4,1,4,5,0,0,0
296712284,0,0.0,0.0,0.118371636,0.42559296,-0.036089048,2.259016e-05,-3.349781e-05,-0.36287126,0.0005097919,0.0020339745,-0.0037280826,-0.0038992562,0.0029474539,-0.00021841089,1.5556272e-05,0.09434761,0.007890972,0.3335362,-3.1133463,0.0,0.10051545,0.0037280826,0.005325215,0.00374416,0.026250325,0.018333703,inf,inf,inf,inf,1,1,1,1,4,1,4,5,0,0,0
296816270,0,0.0,0.0,0.11861645,0.42562145,-0.03650702,2.259016e-05,-3.349781e-05,-0.36287126,0.0007677676,0.0038293633,-0.0058736335,-0.0059069716,0.0029474539,-0.00021841089,1.5556272e-05,-0.3244736,0.8073343,-0.30213687,-3.113598,0.0,0.100902796,0.0058736335,0.005401655,0.0037972587,0.026441159,0.018465623,inf,inf,inf,inf,1,1,1,1,4,1,4,5,0,0,0
296912276,0,0.0,0.0,0.11881605,0.42567584,-0.036853157,2.259016e-05,-3.349781e-05,-0.36287126,0.0008322487,0.004721116,-0.0053206556,-0.005166789,0.0029474539,-0.00021841089,1.5556272e-05,-0.1456861,0.42972115,-0.23240218,-3.1135838,0.0,0.10130652,0.0053206556,0.0052826977,0.0037147393,0.026088154,0.018223684,inf,inf,inf,inf,1,1,1,1,4,1,4,5,0,0,0
297019475,0,0.0,0.0,0.11898522,0.42575,-0.03715375,2.259016e-05,-3.349781e-05,-0.36287126,0.000926565,0.0023970332,-0.005591858,-0.005184027,0.0029474539,-0.00021841089,1.5556272e-05,-0.41768026,0.09355652,-0.22796927,-3.113601,0.0,0.10159533,0.005591858,0.005362636,0.0037700895,0.026352925,0.01840325,inf,inf,inf,inf,1,1,1,1,4,1,4,5,0,0,0
297115468,0,0.0,0.0,0.11906958,0.42578447,-0.037338138,2.259016e-05,-3.349781e-05,-0.36287126,0.00035499452,0.0024408316,-0.0054729627,-0.004829569,0.0029474539,-0.00021841089,1.5556272e-05,-0.7830215,-0.013637875,-0.166383,-3.1136625,0.0,0.10172934,0.0054729627,0.005313229,0.0037356077,0.026246056,0.018330414,inf,inf,inf,inf,1,1,1,1,4,1,4,5,0,0,0
297219469,0,0.0,0.0,0.11920135,0.4258042,-0.03746421,2.259016e-05,-3.349781e-05,-0.36287126,0.0030241746,0.0033766397,-0.005657659,-0.0047758417,0.0029474539,-0.00021841089,1.5556272e-05,0.36614275,0.33293796,0.1009187,-3.1117458,0.0,0.10173689,0.005657659,0.0054521374,0.0038315153,0.026707916,0.018630125,inf,inf,inf,inf,1,1,1,1,4,1,4,5,0,0,0
297323475,0,0.0,0.0,0.119374156,0.42574632,-0.03754765,2.259016e-05,-3.349781e-05,-0.36287126,0.0022730012,0.0037022012,-0.004722828,-0.0036056763,0.0029474539,-0.00021841089,1.5556272e-05,-0.33598477,1.1992284,-0.06611964,-3.1126354,0.0,0.101867825,0.004722828,0.0051349844,0.0036109379,0.02579084,0.018008577,inf,inf,inf,inf,1,1,1,1,4,1,4,5,0,0,0
297427469,0,0.0,0.0,0.119547896,0.42574546,-0.037576046,2.259016e-05,-3.349781e-05,-0.36287126,0.0040144436,-0.000584988,-0.005985646,-0.0046197274,0.0029474539,-0.00021841089,1.5556272e-05,0.7099595,-0.8582388,0.50561327,-3.113411,0.0,0.1019949,0.005985646,0.0052126744,0.0036649178,0.025966447,0.018131644,inf,inf,inf,inf,1,1,1,1,4,1,4,5,0,0,0
297523492,0,0.0,0.0,0.11967689,0.42574036,-0.037569143,2.259016e-05,-3.349781e-05,-0.36287126,-5.0991297e-05,0.00077695143,-0.0051138606,-0.0035064025,0.0029474539,-0.00021841089,1.5556272e-05,-0.0026761135,-1.212187,0.13180532,-3.112672,0.0,0.102086104,0.0051138606,0.005118863,0.003599977,0.02568523,0.017941482,inf,inf,inf,inf,1,1,1,1,4,1,4,5,0,0,0
297627491,0,0.0,0.0,0.11976534,0.425661,-0.037556075,2.259016e-05,-3.349781e-05,-0.36287126,0.005741195,0.0025514266,-0.0044406266,-0.0026279038,0.0029474539,-0.00021841089,1.5556272e-05,0.42521197,0.5843932,0.042003624,-3.1132982,0.0,0.10204389,0.0044406266,0.005206223,0.0036607133,0.025961017,0.018132888,inf,inf,inf,inf,1,1,1,1,4,1,4,5,0,0,0
297731469,0,0.0,0.0,0.119755566,0.4256782,-0.037575956,2.259016e-05,-3.349781e-05,-0.36287126,0.0018304643,-0.00014627472,-0.005268672,-0.003309371,0.0029474539,-0.00021841089,1.5556272e-05,0.019201154,-1.0894039,0.17072253,-3.1132047,0.0,0.10191259,0.005268672,0.0055796104,0.003920835,0.026762145,0.018681359,inf,inf,inf,inf,1,1,1,1,4,1,4,5,0,0,0
297834691,0,0.0,0.0,0.1197569,0.42569634,-0.037574142,2.259016e-05,-3.349781e-05,-0.36287126,0.0027358427,0.0007705311,-0.005531928,-0.0034350357,0.0029474539,-0.00021841089,1.5556272e-05,0.3920344,0.43033123,0.18365961,-3.1127002,0.0,0.10192913,0.005531928,0.005200536,0.0036574246,0.025853248,0.018059446,inf,inf,inf,inf,1,1,1,1,4,1,4,5,0,0,0
297930689,0,0.0,0.0,0.119718015,0.42553928,-0.037604276,2.259016e-05,-3.349781e-05,-0.36287126,0.0018149946,7.608144e-05,-0.0062579717,-0.0040457025,0.0029474539,-0.00021841089,1.5556272e-05,-0.49347004,0.6289235,-0.15474875,-3.1130273,0.0,0.1019128,0.0062579717,0.0051044896,0.003590509,0.025645114,0.01791652,inf,inf,inf,inf,1,1,1,1,4,1,4,5,0,0,0
298034669,0,0.0,0.0,0.11965909,0.42545083,-0.0376235,2.259016e-05,-3.349781e-05,-0.36287126,0.0024974705,0.0015198407,-0.006425885,-0.004060622,0.0029474539,-0.00021841089,1.5556272e-05,0.30686566,-0.094498694,-0.18733513,-3.1128774,0.0,0.10208087,0.006425885,0.0051361974,0.003612681,0.02572318,0.017974254,inf,inf,inf,inf,1,1,1,1,4,1,4,5,0,0,0
298138683,0,0.0,0.0,0.11962667,0.42537242,-0.03754091,2.259016e-05,-3.349781e-05,-0.36287126,0.0024026278,5.3340656e-05,-0.0039045694,-0.0013863783,0.0029474539,-0.00021841089,1.5556272e-05,0.72497714,-0.45306963,0.34173954,-3.1128778,0.0,0.10190286,0.0039045694,0.0051950775,0.003653689,0.025898388,0.018092806,inf,inf,inf,inf,1,1,1,1,4,1,4,5,0,0,0
298234675,0,0.0,0.0,0.11956974,0.4252978,-0.037431363,2.259016e-05,-3.349781e-05,-0.36287126,0.00068187184,0.00043294055,-0.0054253386,-0.0027832359,0.0029474539,-0.00021841089,1.5556272e-05,-0.11450536,-0.008669429,0.046813067,-3.1131747,0.0,0.10181859,0.0054253386,0.005139343,0.0036147411,0.025793225,0.018020922,inf,inf,inf,inf,1,1,1,1,4,1,4,5,0,0,0
298338669,0,0.0,0.0,0.11947952,0.425189,-0.037313435,2.259016e-05,-3.349781e-05,-0.36287126,0.0023886198,0.002108672,-0.00616559,-0.0034176041,0.0029474539,-0.00021841089,1.5556272e-05,-0.37773734,0.35327128,-0.34954944,-3.11317,0.0,0.10172759,0.00616559,0.005218635,0.0036698463,0.025998889,0.018160526,inf,inf,inf,inf,1,1,1,1,4,1,4,5,0,0,0
298442686,0,0.0,0.0,0.11942018,0.42505035,-0.037206616,2.259016e-05,-3.349781e-05,-0.36287126,0.0012002356,-0.0025302744,-0.0044730324,-0.0016575778,0.0029474539,-0.00021841089,1.5556272e-05,0.31476027,-0.67533714,-0.18782032,-3.1129239,0.0,0.101627335,0.0044730324,0.0052840505,0.0037154027,0.026129944,0.018250115,inf,inf,inf,inf,1,1,1,1,4,1,4,5,0,0,0
298537882,0,0.0,0.0,0.11941082,0.42489064,-0.037063807,2.259016e-05,-3.349781e-05,-0.36287126,0.00219035,-0.0019845574,-0.005049056,-0.0021964582,0.0029474539,-0.00021841089,1.5556272e-05,0.17048451,-0.949575,-0.17968203,-3.113339,0.0,0.10146539,0.005049056,0.005230687,0.0036781263,0.02602752,0.018180985,inf,inf,inf,inf,1,1,1,1,4,1,4,5,0,0,0
298641869,0,0.0,0.0,0.11935873,0.42485917,-0.03690006,2.259016e-05,-3.349781e-05,-0.36287126,0.0038669356,0.00012630603,-0.0035717282,-0.0007198276,0.0029474539,-0.00021841089,1.5556272e-05,0.59722406,0.5366256,0.15131915,-3.1132882,0.0,0.10121528,0.0035717282,0.005289828,0.003719412,0.026131613,0.018252123,inf,inf,inf,inf,1,1,1,1,4,1,4,5,0,0,0
298745875,0,0.0,0.0,0.11937443,0.424829,-0.03668282,2.259016e-05,-3.349781e-05,-0.36287126,0.0006154424,-0.0005590881,-0.003192615,-0.00032641183,0.0029474539,-0.00021841089,1.5556272e-05,-0.1890489,-1.0663035,-0.09537382,-3.1131368,0.0,0.101128824,0.003192615,0.0053331833,0.003749716,0.026212862,0.018313065,inf,inf,inf,inf,1,1,1,1,4,1,4,5,0,0,0
298849869,0,0.0,0.0,0.11929763,0.4248302,-0.036395747,2.259016e-05,-3.349781e-05,-0.36287126,0.0017974125,0.002708576,-0.00089948415,0.0019729459,0.0029474539,-0.00021841089,1.5556272e-05,0.4139777,1.4979154,0.2030738,-3.113184,0.0,0.100911215,0.00089948415,0.0054145036,0.0038063838,0.0264613,0.01848238,inf,inf,inf,inf,1,1,1,1,4,1,4,5,0,0,0
298945869,0,0.0,0.0,0.11918319,0.42487845,-0.03609435,2.259016e-05,-3.349781e-05,-0.36287126,-2.6286303e-05,9.27627e-05,-0.0012605598,0.0015774791,0.0029474539,-0.00021841089,1.5556272e-05,-0.25980988,0.0667611,-0.051973954,-3.1133676,0.0,0.100662366,0.0012605598,0.0053346925,0.003750996,0.026255175,0.01834059,inf,inf,inf,inf,1,1,1,1,4,1,4,5,0,0,0
299049875,0,0.0,0.0,0.11900742,0.42492825,-0.035685815,2.259016e-05,-3.349781e-05,-0.36287126,0.0010271599,0.000113842,-0.00021168117,0.002562787,0.0029474539,-0.00021841089,1.5556272e-05,0.6498288,-0.153007,0.0042056344,-3.1134856,0.0,0.10039679,0.00021168117,0.005059798,0.0035597042,0.02556187,0.017866435,inf,inf,inf,inf,1,1,1,1,4,1,4,5,0,0,0
299153868,0,0.0,0.0,0.118824795,0.4249525,-0.035346042,2.259016e-05,-3.349781e-05,-0.36287126,-0.00085408246,0.0012884369,0.0002876134,0.0029554076,0.0029474539,-0.00021841089,1.5556272e-05,-0.12445089,0.5792083,-0.041700337,-3.1133661,0.0,0.10009161,-0.0002876134,0.005130068,0.0036086615,0.025719022,0.017973986,inf,inf,inf,inf,1,1,1,1,4,1,4,5,0,0,0
299257869,0,0.0,0.0,0.11864374,0.4249431,-0.0350936,2.259016e-05,-3.349781e-05,-0.36287126,0.00017664318,0.0010349863,-0.00084454153,0.0016418605,0.0029474539,-0.00021841089,1.5556272e-05,0.25187272,0.48798922,0.30654994,-3.1134033,0.0,0.1,0.00084454153,0.005192383,0.0036520606,0.025865925,0.018074017,inf,inf,inf,inf,1,1,1,1,4,1,4,5,0,0,0
299355469,0,0.0,0.0,0.11845727,0.4248712,-0.03498559,2.259016e-05,-3.349781e-05,-0.36287126,0.00025087243,-0.0016957857,-0.0023036744,-2.4412737e-05,0.0029474539,-0.00021841089,1.5556272e-05,0.9449582,-0.10054404,0.07225387,-3.1137772,0.0,0.1,0.0023036744,0.0051350696,0.0036120699,0.025737733,0.017984875,inf,inf,inf,inf,1,1,1,1,4,1,4,5,0,0,0
299457069,0,0.0,0.0,0.11828184,0.42477012,-0.035028085,2.259016e-05,-3.349781e-05,-0.36287126,-0.003148504,0.00064539217,-0.0020063408,3.0243304e-05,0.0029474539,-0.00021841089,1.5556272e-05,-0.77771795,0.2730239,-0.16683252,-3.1134088,0.0,0.1,0.0020063408,0.005194599,0.0036535333,0.025872756,0.018076422,inf,inf,inf,inf,1,1,1,1,4,1,4,5,0,0,0
299561069,0,0.0,0.0,0.11814833,0.42471644,-0.035242274,2.259016e-05,-3.349781e-05,-0.36287126,0.0017978797,0.00017857677,-0.0018004811,1.1562969e-05,0.0029474539,-0.00021841089,1.5556272e-05,1.3920481,0.24350469,0.36068067,-3.1130707,0.0,0.1,0.0018004811,0.005258682,0.003698013,0.026092904,0.018228583,inf,inf,inf,inf,1,1,1,1,4,1,4,5,0,0,0
299665094,0,0.0,0.0,0.11803983,0.42470223,-0.035501275,2.259016e-05,-3.349781e-05,-0.36287126,-0.002745742,-0.0007145184,-0.0025279897,-0.00086988247,0.0029474539,-0.00021841089,1.5556272e-05,-0.3962566,-0.2859626,-0.05039785,-3.1138647,0.0,0.10002379,0.0025279897,0.005326762,0.003745482,0.026254604,0.018343057,inf,inf,inf,inf,1,1,1,1,4,1,4,5,0,0,0
299761068,0,0.0,0.0,0.11792908,0.42477125,-0.035652075,2.259016e-05,-3.349781e-05,-0.36287126,-0.0022239978,-0.00082532596,-0.002589442,-0.0009931545,0.0029474539,-0.00021841089,1.5556272e-05,-0.13046454,-0.5349215,-0.15835339,-3.113684,0.0,0.100151256,0.002589442,0.0052644936,0.0037021958,0.026098628,0.018234614,inf,inf,inf,inf,1,1,1,1,4,1,4,5,0,0,0
299865073,0,0.0,0.0,0.11780594,0.42487854,-0.03567808,2.259016e-05,-3.349781e-05,-0.36287126,-0.00053731445,0.00058904814,-0.0030249178,-0.0014302299,0.0029474539,-0.00021841089,1.5556272e-05,0.47499114,0.29700243,-0.29278085,-3.113566,0.0,0.100217886,0.0030249178,0.0053370716,0.0037527177,0.026263561,0.01834716,inf,inf,inf,inf,1,1,1,1,4,1,4,5,0,0,0
299969070,0,0.0,0.0,0.11770968,0.42502156,-0.03560463,2.259016e-05,-3.349781e-05,-0.36287126,-0.0020461653,0.0013490381,-0.0007899306,0.0008057821,0.0029474539,-0.00021841089,1.5556272e-05,0.46555027,-0.49268752,0.042821176,-3.1133063,0.0,0.100089684,0.0007899306,0.005419884,0.003810235,0.026485037,0.01849621,inf,inf,inf,inf,1,1,1,1,4,1,4,5,0,0,0
300065069,0,0.0,0.0,0.11780038,0.42513633,-0.03551482,2.259016e-05,-3.349781e-05,-0.36287126,-0.00013392053,0.00021042311,-0.0022514088,-0.0006462909,0.0029474539,-0.00021841089,1.5556272e-05,0.036646742,-0.010656339,0.3223179,-3.1148405,0.0,0.100105256,0.0022514088,0.0053547863,0.0037649258,0.026318612,0.01838411,inf,inf,inf,inf,1,1,1,1,4,1,4,5,0,0,0
300168275,0,0.0,0.0,0.11780875,0.42538968,-0.035385456,2.259016e-05,-3.349781e-05,-0.36287126,-0.0015749711,0.004225353,-0.0006904743,0.0008777223,0.0029474539,-0.00021841089,1.5556272e-05,-0.43973997,0.31539905,0.20247468,-3.1143718,0.0,0.1,0.0006904743,0.0054142294,0.0038062898,0.026456857,0.018477615,inf,inf,inf,inf,1,1,1,1,4,1,4,5,0,0,0
300272307,0,0.0,0.0,0.11792665,0.42563546,-0.035285994,2.259016e-05,-3.349781e-05,-0.36287126,-0.0014990972,0.0049066544,-0.00016258839,0.0013396787,0.0029474539,-0.00021841089,1.5556272e-05,0.00843237,-0.17215121,-0.2907953,-3.1134865,0.0,0.1,0.00016258839,0.005473352,0.0038473306,0.026580753,0.018567372,inf,inf,inf,inf,1,1,1,1,4,1,4,5,0,0,0
300376280,0,0.0,0.0,0.11797902,0.42598644,-0.03530744,2.259016e-05,-3.349781e-05,-0.36287126,0.0010789715,0.0016595552,-0.0013530309,-8.964014e-06,0.0029474539,-0.00021841089,1.5556272e-05,0.7745346,-0.25394648,-0.39854518,-3.1141646,0.0,0.1,0.0013530309,0.0051680245,0.0036352647,0.025826136,0.018049521,inf,inf,inf,inf,1,1,1,1,4,1,4,5,0,0,0
300480294,0,0.0,0.0,0.11795787,0.4262399,-0.035325456,2.259016e-05,-3.349781e-05,-0.36287126,-0.0033782916,0.0046782936,-0.00052629126,0.0007138098,0.0029474539,-0.00021841089,1.5556272e-05,-0.641132,-0.16905329,0.4370021,-3.1141388,0.0,0.1,0.00052629126,0.0052286163,0.0036774434,0.025987228,0.01815954,inf,inf,inf,inf,1,1,1,1,4,1,4,5,0,0,0
300576295,0,0.0,0.0,0.11799783,0.4263723,-0.03526595,2.259016e-05,-3.349781e-05,-0.36287126,-0.0031856555,0.002612899,-0.0013763201,-0.00018974039,0.0029474539,-0.00021841089,1.5556272e-05,-0.48297712,-0.5792026,-0.24201341,-3.1136653,0.0,0.1,0.0013763201,0.0051553873,0.003626445,0.025801685,0.01803058,inf,inf,inf,inf,1,1,1,1,4,1,4,5,0,0,0
300680269,0,0.0,0.0,0.117938824,0.42642212,-0.03521024,2.259016e-05,-3.349781e-05,-0.36287126,-0.0002632653,0.0016827908,-2.9045113e-06,0.0011555069,0.0029474539,-0.00021841089,1.5556272e-05,0.30513206,0.010906332,0.12867893,-3.1137404,0.0,0.1,2.9045113e-06,0.005203805,0.003660212,0.025890494,0.018090568,inf,inf,inf,inf,1,1,1,1,4,1,4,5,0,0,0
300784291,0,0.0,0.0,0.11797471,0.4263802,-0.0351497,2.259016e-05,-3.349781e-05,-0.36287126,0.0011713245,0.005603279,-0.0003099167,0.00079173886,0.0029474539,-0.00021841089,1.5556272e-05,0.6543853,0.6519353,-0.46652287,-3.1139777,0.0,0.1,0.0003099167,0.005291579,0.003721037,0.026168535,0.018281834,inf,inf,inf,inf,1,1,1,1,4,1,4,5,0,0,0
300887469,0,0.0,0.0,0.11803343,0.4263128,-0.035053592,2.259016e-05,-3.349781e-05,-0.36287126,-0.0028121679,0.0042405953,0.0020768505,0.0031097196,0.0029474539,-0.00021841089,1.5556272e-05,-0.8797719,0.9119552,0.48819882,-3.1134913,0.0,0.1,-0.0020768505,0.0053656935,0.0037725423,0.026339712,0.018398628,inf,inf,inf,inf,1,1,1,1,4,1,4,5,0,0,0
300991475,0,0.0,0.0,0.118159406,0.42612034,-0.03501942,2.259016e-05,-3.349781e-05,-0.36287126,0.0010054815,-0.0010005131,-0.0023650518,-0.0014075944,0.0029474539,-0.00021841089,1.5556272e-05,0.09708336,-0.39300063,0.20219697,-3.113864,0.0,0.1,0.0023650518,0.005468133,0.0038436092,0.026623402,0.018592639,inf,inf,inf,inf,1,1,1,1,4,1,4,5,0,0,0
301087482,0,0.0,0.0,0.11833729,0.4259781,-0.035065163,2.259016e-05,-3.349781e-05,-0.36287126,0.0034369752,0.0017602892,-0.0009035191,-3.3398188e-05,0.0029474539,-0.00021841089,1.5556272e-05,0.8107558,0.45501488,0.117470495,-3.114217,0.0,0.1,0.0009035191,0.005351667,0.0037629923,0.026250483,0.018345272,inf,inf,inf,inf,1,1,1,1,4,1,4,5,0,0,0
301191468,0,0.0,0.0,0.11845663,0.4257586,-0.035144024,2.259016e-05,-3.349781e-05,-0.36287126,-0.0011880642,0.0033638878,-0.002342679,-0.0015541308,0.0029474539,-0.00021841089,1.5556272e-05,-0.0072882953,0.26957673,-0.28257033,-3.1134982,0.0,0.1,0.002342679,0.005447242,0.0038295365,0.026534438,0.018534714,inf,inf,inf,inf,1,1,1,1,4,1,4,5,0,0,0
301295495,0,0.0,0.0,0.1185577,0.42558748,-0.03528387,2.259016e-05,-3.349781e-05,-0.36287126,0.00012229219,0.00024477358,-0.0005619219,0.00017324739,0.0029474539,-0.00021841089,1.5556272e-05,0.22654666,-0.049691394,0.17098212,-3.1140165,0.0,0.1,0.0005619219,0.0051281075,0.0036075965,0.0256969,0.017958587,inf,inf,inf,inf,1,1,1,1,4,1,4,5,0,0,0
301391469,0,0.0,0.0,0.11861342,0.42540914,-0.03542406,2.259016e-05,-3.349781e-05,-0.36287126,0.0015348408,0.0014679986,-0.0038297288,-0.0031400004,0.0029474539,-0.00021841089,1.5556272e-05,0.8220871,0.36374983,-0.32015562,-3.1137505,0.0,0.1,0.0038297288,0.0054378626,0.003822846,0.026527002,0.018526703,inf,inf,inf,inf,1,1,1,1,4,1,4,5,0,0,0
301495469,0,0.0,0.0,0.11864116,0.4252268,-0.035510786,2.259016e-05,-3.349781e-05,-0.36287126,-0.0020266478,0.0011767889,-0.00031647642,0.00034543674,0.0029474539,-0.00021841089,1.5556272e-05,-1.135361,0.76567584,-0.4303339,-3.1135304,0.0,0.1,0.00031647642,0.0051254067,0.003605527,0.025700547,0.017960142,inf,inf,inf,inf,1,1,1,1,4,1,4,5,0,0,0
301599503,0,0.0,0.0,0.11866296,0.42516887,-0.03560996,2.259016e-05,-3.349781e-05,-0.36287126,0.0021889901,0.0010599821,-0.0027297197,-0.0020381957,0.0029474539,-0.00021841089,1.5556272e-05,1.189731,0.32259732,-0.06259414,-3.1140327,0.0,0.10006765,0.0027297197,0.005202718,0.0036592507,0.025903812,0.018099668,inf,inf,inf,inf,1,1,1,1,4,1,4,5,0,0,0
301700295,0,0.0,0.0,0.11865534,0.42496145,-0.03566617,2.259016e-05,-3.349781e-05,-0.36287126,-9.950448e-05,0.0016859199,-0.00048022834,0.00024167335,0.0029474539,-0.00021841089,1.5556272e-05,-0.05930208,1.3359765,0.619882,-3.1140118,0.0,0.10007745,0.00048022834,0.0052685165,0.003705098,0.02604605,0.018198121,inf,inf,inf,inf,1,1,1,1,4,1,4,5,0,0,0
301802669,0,0.0,0.0,0.11870115,0.42472726,-0.035727493,2.259016e-05,-3.349781e-05,-0.36287126,-0.00052400207,-0.0020091913,-0.002262874,-0.0015045282,0.0029474539,-0.00021841089,1.5556272e-05,-0.22317894,0.0389788,-0.02970832,-3.113324,0.0,0.10019248,0.002262874,0.0053026564,0.0037289124,0.026105357,0.018242734,inf,inf,inf,inf,1,1,1,1,4,1,4,5,0,0,0
301898669,0,0.0,0.0,0.11871256,0.42446208,-0.03573591,2.259016e-05,-3.349781e-05,-0.36287126,0.0038274985,-0.0019843644,-0.0014180382,-0.0006341923,0.0029474539,-0.00021841089,1.5556272e-05,1.3555044,-0.09130195,-0.243469,-3.114132,0.0,0.100161135,0.0014180382,0.0052068173,0.003662729,0.025868308,0.018091694,inf,inf,inf,inf,1,1,1,1,4,1,4,5,0,0,0
302002715,0,0.0,0.0,0.118754655,0.42423934,-0.035655953,2.259016e-05,-3.349781e-05,-0.36287126,-0.00267795,-0.0023203255,0.00058079377,0.0014052552,0.0029474539,-0.00021841089,1.5556272e-05,-1.1960396,-1.0174732,0.011894456,-3.1141741,0.0,0.1001272,-0.00058079377,0.0052772244,0.0037123451,0.026066983,0.018234234,inf,inf,inf,inf,1,1,1,1,4,1,4,5,0,0,0
302106685,0,0.0,0.0,0.11872598,0.424079,-0.03546966,2.259016e-05,-3.349781e-05,-0.36287126,-0.0003716269,-0.0013465757,0.0015856222,0.0024781502,0.0029474539,-0.00021841089,1.5556272e-05,-0.6547215,0.98803395,0.5793357,-3.1138818,0.0,0.10007275,-0.0015856222,0.0053543462,0.0037663677,0.02625907,0.018361626,inf,inf,inf,inf,1,1,1,1,4,1,4,5,0,0,0
302202669,0,0.0,0.0,0.118670516,0.42408425,-0.03518828,2.259016e-05,-3.349781e-05,-0.36287126,0.0005614176,-0.00031699793,0.0025847906,0.0035219654,0.0029474539,-0.00021841089,1.5556272e-05,0.32249513,0.62279075,-0.13187905,-3.1136994,0.0,0.1,-0.0025847906,0.0053066453,0.0037328799,0.026194101,0.018309845,inf,inf,inf,inf,1,1,1,1,4,1,4,5,0,0,0
302306669,0,0.0,0.0,0.11867253,0.42410532,-0.03487064,2.259016e-05,-3.349781e-05,-0.36287126,-0.0003427149,-0.0006745743,0.0006605746,0.0015965465,0.0029474539,-0.00021841089,1.5556272e-05,0.04430412,-0.09676411,-0.43512046,-3.1135466,0.0,0.1,-0.0006605746,0.0053862818,0.0037880924,0.026368229,0.01842653,inf,inf,inf,inf,1,1,1,1,4,1,4,5,0,0,0
302410669,0,0.0,0.0,0.118576705,0.4241532,-0.034622572,2.259016e-05,-3.349781e-05,-0.36287126,-0.00053750904,-0.0010952615,0.0035958411,0.004438934,0.0029474539,-0.00021841089,1.5556272e-05,0.38741902,0.35186777,0.5064407,-3.1140819,0.0,0.1,-0.0035958411,0.0054340702,0.0038212403,0.026437497,0.018472692,inf,inf,inf,inf,1,1,1,1,4,1,4,5,0,0,0
302509878,0,0.0,0.0,0.118542135,0.42428207,-0.034542356,2.259016e-05,-3.349781e-05,-0.36287126,0.00105982,0.002135668,-6.334737e-05,0.00065148016,0.0029474539,-0.00021841089,1.5556272e-05,0.5817333,1.0265206,0.20397343,-3.1141503,0.0,0.1,6.334737e-05,0.005011945,0.0035269456,0.025436109,0.017784016,inf,inf,inf,inf,1,1,1,1,4,1,4,5,0,0,0
302613915,0,0.0,0.0,0.1185726,0.42448568,-0.034593288,2.259016e-05,-3.349781e-05,-0.36287126,0.0020191479,-0.002041544,-0.0012910401,-0.000762982,0.0029474539,-0.00021841089,1.5556272e-05,0.6402349,-1.102546,-0.53571737,-3.1134486,0.0,0.1,0.0012910401,0.0051099327,0.0035949796,0.02571382,0.017972348,inf,inf,inf,inf,1,1,1,1,4,1,4,5,0,0,0
302717875,0,0.0,0.0,0.118614405,0.42457393,-0.034640707,2.259016e-05,-3.349781e-05,-0.36287126,-0.001017392,0.0015516559,0.0025209466,0.0028831172,0.0029474539,-0.00021841089,1.5556272e-05,-0.33264217,0.43293676,0.012555459,-3.1135166,0.0,0.1,-0.0025209466,0.005221604,0.0036720978,0.026105175,0.018225333,inf,inf,inf,inf,1,1,1,1,4,1,4,5,0,0,0
302821869,0,0.0,0.0,0.11876333,0.42470497,-0.034708466,2.259016e-05,-3.349781e-05,-0.36287126,0.0007349296,-0.00076653564,-0.0004731708,-0.00024263271,0.0029474539,-0.00021841089,1.5556272e-05,-0.089529745,-0.72911453,-0.3403638,-3.1137993,0.0,0.1,0.0004731708,0.0052865976,0.0037169086,0.02620023,0.018295122,inf,inf,inf,inf,1,1,1,1,4,1,4,5,0,0,0
302917870,0,0.0,0.0,0.11880916,0.42479306,-0.034843966,2.259016e-05,-3.349781e-05,-0.36287126,-0.00014928343,-0.0018985844,-0.0020198247,-0.0018802063,0.0029474539,-0.00021841089,1.5556272e-05,-0.5289674,-0.27580518,-0.14766422,-3.1141887,0.0,0.1,0.0020198247,0.0051976047,0.0036551403,0.025910167,0.018099418,inf,inf,inf,inf,1,1,1,1,4,1,4,5,0,0,0
303021875,0,0.0,0.0,0.118842855,0.42485818,-0.034857765,2.259016e-05,-3.349781e-05,-0.36287126,0.00016840865,0.0030296452,0.0010492672,0.0011721238,0.0029474539,-0.00021841089,1.5556272e-05,0.3559511,0.4090662,0.01727564,-3.1134055,0.0,0.1,-0.0010492672,0.005286799,0.0037171992,0.026153956,0.018266696,inf,inf,inf,inf,1,1,1,1,4,1,4,5,0,0,0
303125881,0,0.0,0.0,0.11878221,0.424919,-0.03484565,2.259016e-05,-3.349781e-05,-0.36287126,0.002362304,6.1359286e-05,0.0018296469,0.0019132722,0.0029474539,-0.00021841089,1.5556272e-05,0.14883648,0.17788719,-0.07430397,-3.113551,0.0,0.1,-0.0018296469,0.0053582755,0.0037671686,0.02629377,0.018365385,inf,inf,inf,inf,1,1,1,1,4,1,4,5,0,0,0
303221869,0,0.0,0.0,0.118650965,0.4249862,-0.03489578,2.259016e-05,-3.349781e-05,-0.36287126,-0.00023518494,0.0007283864,0.0004630816,0.0004908872,0.0029474539,-0.00021841089,1.5556272e-05,-0.21605,0.8981307,0.22789213,-3.1137738,0.0,0.1,-0.0004630816,0.0052894587,0.003719408,0.026134793,0.018258324,inf,inf,inf,inf,1,1,1,1,4,1,4,5,0,0,0
303325089,0,0.0,0.0,0.11853551,0.42504176,-0.034874614,2.259016e-05,-3.349781e-05,-0.36287126,-0.0010327656,0.002133601,0.0003877874,0.0004005601,0.0029474539,-0.00021841089,1.5556272e-05,0.15111469,0.19135682,-0.15638514,-3.113339,0.0,0.1,-0.0003877874,0.005327873,0.0037463733,0.026192596,0.018296998,inf,inf,inf,inf,1,1,1,1,4,1,4,5,0,0,0
303429069,0,0.0,0.0,0.118396156,0.42519465,-0.034809835,2.259016e-05,-3.349781e-05,-0.36287126,-0.00033182793,-0.0007896148,0.0002200072,0.00022116583,0.0029474539,-0.00021841089,1.5556272e-05,0.0041175173,-0.6411217,-0.11263142,-3.1136875,0.0,0.1,-0.0002200072,0.0053810617,0.0037833098,0.026349518,0.01840755,inf,inf,inf,inf,1,1,1,1,4,1,4,5,0,0,0
303533069,0,0.0,0.0,0.11827903,0.42538768,-0.034781184,2.259016e-05,-3.349781e-05,-0.36287126,-0.0020087552,-0.000103729995,0.0017637615,0.0017032458,0.0029474539,-0.00021841089,1.5556272e-05,-0.15935022,-0.5062488,0.44276348,-3.1137686,0.0,0.1,-0.0017637615,0.005472394,0.0038468563,0.026618639,0.01859133,inf,inf,inf,inf,1,1,1,1,4,1,4,5,0,0,0
303629075,0,0.0,0.0,0.11821734,0.42549384,-0.034733072,2.259016e-05,-3.349781e-05,-0.36287126,-0.0021218741,0.00019234732,0.00084655243,0.0007363178,0.0029474539,-0.00021841089,1.5556272e-05,-0.4541538,-0.86026764,-0.6046115,-3.1138308,0.0,0.1,-0.00084655243,0.005398382,0.003795383,0.026445432,0.018471459,inf,inf,inf,inf,1,1,1,1,4,1,4,5,0,0,0
303733081,0,0.0,0.0,0.118120044,0.4255637,-0.034673344,2.259016e-05,-3.349781e-05,-0.36287126,0.00016420255,-0.0009519395,0.001809108,0.0016299507,0.0029474539,-0.00021841089,1.5556272e-05,0.052739885,-0.6230996,-0.1867758,-3.1136837,0.0,0.1,-0.001809108,0.005082405,0.0035756754,0.025582017,0.017880134,inf,inf,inf,inf,1,1,1,1,4,1,4,5,0,0,0
303837081,0,0.0,0.0,0.11805744,0.42561755,-0.0345697,2.259016e-05,-3.349781e-05,-0.36287126,-0.0013613494,0.0028274641,0.0028232299,0.0025938738,0.0029474539,-0.00021841089,1.5556272e-05,0.10571882,0.30864105,-0.39379033,-3.1137755,0.0,0.1,-0.0028232299,0.005155539,0.0036264395,0.025795657,0.01802736,inf,inf,inf,inf,1,1,1,1,4,1,4,5,0,0,0
303933087,0,0.0,0.0,0.11806632,0.42558038,-0.03443679,2.259016e-05,-3.349781e-05,-0.36287126,-0.0014466436,0.0052623795,0.002988574,0.0027049705,0.0029474539,-0.00021841089,1.5556272e-05,-0.47015366,1.1791923,0.023419091,-3.114088,0.0,0.1,-0.002988574,0.0051060882,0.0035918944,0.02568958,0.01795221,inf,inf,inf,inf,1,1,1,1,4,1,4,5,0,0,0
304036275,0,0.0,0.0,0.118159875,0.42565432,-0.034337364,2.259016e-05,-3.349781e-05,-0.36287126,0.0002384071,-9.91279e-05,0.0013486531,0.0009965274,0.0029474539,-0.00021841089,1.5556272e-05,-0.33640993,-0.39466324,0.12702395,-3.1133633,0.0,0.1,-0.0013486531,0.0051517575,0.0036238509,0.025754234,0.017997347,inf,inf,inf,inf,1,1,1,1,4,1,4,5,0,0,0
304140282,0,0.0,0.0,0.11835661,0.42557865,-0.0341831,2.259016e-05,-3.349781e-05,-0.36287126,-0.000978109,0.0009843454,0.004375746,0.0039477977,0.0029474539,-0.00021841089,1.5556272e-05,-0.117453545,0.53541213,0.52750784,-3.1136522,0.0,0.1,-0.004375746,0.0052134423,0.0036668251,0.025912149,0.01810681,inf,inf,inf,inf,1,1,1,1,4,1,4,5,0,0,0
304236277,0,0.0,0.0,0.118613675,0.425402,-0.033992823,2.259016e-05,-3.349781e-05,-0.36287126,0.00035948903,0.00043080308,0.0054678884,0.0049506943,0.0029474539,-0.00021841089,1.5556272e-05,0.1473515,-0.023857107,-0.12653674,-3.113506,0.0,0.1,-0.0054678884,0.0051471964,0.0036207717,0.02578213,0.01801573,inf,inf,inf,inf,1,1,1,1,4,1,4,5,0,0,0
304340269,0,0.0,0.0,0.118785344,0.42527753,-0.033840336,2.259016e-05,-3.349781e-05,-0.36287126,0.0024407331,-0.0003901672,0.005156303,0.0045082886,0.0029474539,-0.00021841089,1.5556272e-05,-0.50331783,-0.20800413,-0.22103721,-3.1133249,0.0,0.1,-0.005156303,0.0052236016,0.0036739241,0.025985992,0.018162426,inf,inf,inf,inf,1,1,1,1,4,1,4,5,0,0,0
304444319,0,0.0,0.0,0.118866466,0.42512733,-0.03367235,2.259016e-05,-3.349781e-05,-0.36287126,-0.0014810457,0.00013113268,0.0049815583,0.0041948133,0.0029474539,-0.00021841089,1.5556272e-05,0.06596468,0.14120555,0.010729147,-3.113752,0.0,0.1,-0.0049815583,0.0053190365,0.0037403551,0.026238365,0.018334312,inf,inf,inf,inf,1,1,1,1,4,1,4,5,0,0,0
304548269,0,0.0,0.0,0.11890595,0.42504248,-0.033479072,2.259016e-05,-3.349781e-05,-0.36287126,0.0017011,0.0011717178,0.0051286565,0.0041940687,0.0029474539,-0.00021841089,1.5556272e-05,0.2660633,-0.08432239,-0.015095551,-3.1132238,0.0,0.1,-0.0051286565,0.0053960443,0.0037939704,0.026416013,0.018454168,inf,inf,inf,inf,1,1,1,1,4,1,4,5,0,0,0
304644288,0,0.0,0.0,0.11887322,0.424963,-0.033398926,2.259016e-05,-3.349781e-05,-0.36287126,0.00051660987,-0.0008621815,0.0018498745,0.0007848455,0.0029474539,-0.00021841089,1.5556272e-05,-0.67797804,0.18563402,-0.24045701,-3.113308,0.0,0.1,-0.0018498745,0.005311654,0.0037353048,0.026190765,0.018299432,inf,inf,inf,inf,1,1,1,1,4,1,4,5,0,0,0
304747522,0,0.0,0.0,0.11886418,0.42497545,-0.033476815,2.259016e-05,-3.349781e-05,-0.36287126,-0.00075351767,-0.0013815381,0.0035363082,0.002296645,0.0029474539,-0.00021841089,1.5556272e-05,0.23313513,-0.38166037,-0.018172707,-3.1134539,0.0,0.1,-0.0035363082,0.005369618,0.003775694,0.026312415,0.01838006,inf,inf,inf,inf,1,1,1,1,4,1,4,5,0,0,0
304852269,0,0.0,0.0,0.11879965,0.42503604,-0.03365628,2.259016e-05,-3.349781e-05,-0.36287126,0.0016777663,0.0020595323,0.004966468,0.0035222303,0.0029474539,-0.00021841089,1.5556272e-05,0.28936365,0.19381256,0.19633274,-3.113321,0.0,0.1,-0.004966468,0.005466811,0.0038429624,0.02661029,0.018583601,inf,inf,inf,inf,1,1,1,1,4,1,4,5,0,0,0
305762669,0,0.0,0.0,0.11797542,0.4249197,-0.03627234,2.259016e-05,-3.349781e-05,-0.36287126,-0.005757773,0.00063749746,-0.0021926945,-0.0031648525,0.0029474539,-0.00021841089,1.5556272e-05,-1.134623,0.5085789,0.40851256,-3.1131775,0.0,0.100736275,0.0021926945,0.0052629244,0.0037011465,0.026047694,0.018204113,inf,inf,inf,inf,1,1,1,1,4,1,4,5,0,0,0
305866686,0,0.0,0.0,0.117821805,0.42473313,-0.036366336,2.259016e-05,-3.349781e-05,-0.36287126,0.0007539885,-0.0025842155,-0.002720899,-0.003489466,0.0029474539,-0.00021841089,1.5556272e-05,0.5097726,-0.043723475,0.4122624,-3.1131413,0.0,0.10083445,0.002720899,0.0053673238,0.0037738762,0.0263477,0.01840747,inf,inf,inf,inf,1,1,1,1,4,1,4,5,0,0,0
305962669,0,0.0,0.0,0.11774162,0.4245614,-0.036471426,2.259016e-05,-3.349781e-05,-0.36287126,-0.0023042324,-0.0034495108,-0.00032223403,-0.0008974287,0.0029474539,-0.00021841089,1.5556272e-05,-0.049497064,-0.26115826,0.48322222,-3.1133547,0.0,0.10093117,0.00032223403,0.005281364,0.0037142457,0.026104152,0.018240493,inf,inf,inf,inf,1,1,1,1,4,1,4,5,0,0,0
306066668,0,0.0,0.0,0.117765136,0.42447823,-0.036583748,2.259016e-05,-3.349781e-05,-0.36287126,-0.0026766786,0.00014066443,-0.0030777587,-0.0034575083,0.0029474539,-0.00021841089,1.5556272e-05,-0.6075258,0.52171475,0.3573219,-3.1129026,0.0,0.10111335,0.0030777587,0.0053597735,0.0037687363,0.02631671,0.018385563,inf,inf,inf,inf,1,1,1,1,4,1,4,5,0,0,0
306170675,0,0.0,0.0,0.11775759,0.4243608,-0.036674574,2.259016e-05,-3.349781e-05,-0.36287126,4.8085687e-05,-0.0025841475,-0.0043780557,-0.004564234,0.0029474539,-0.00021841089,1.5556272e-05,0.44178882,-0.11845885,0.06629439,-3.1130219,0.0,0.10117028,0.0043780557,0.00544855,0.0038302736,0.026566163,0.018555464,inf,inf,inf,inf,1,1,1,1,4,1,4,5,0,0,0
306266668,0,0.0,0.0,0.11785783,0.42436188,-0.036776427,2.259016e-05,-3.349781e-05,-0.36287126,-0.00033532572,-0.004600901,-0.0028851074,-0.0029103972,0.0029474539,-0.00021841089,1.5556272e-05,0.7957044,-0.37441486,0.0911643,-3.11321,0.0,0.10120948,0.0028851074,0.0053714914,0.0037766283,0.026370158,0.018421303,inf,inf,inf,inf,1,1,1,1,4,1,4,5,0,0,0
306370713,0,0.0,0.0,0.11799071,0.4243586,-0.036917493,2.259016e-05,-3.349781e-05,-0.36287126,-0.002608221,-0.00093036884,-0.00349879,-0.0033459885,0.0029474539,-0.00021841089,1.5556272e-05,-0.49340442,-0.07778801,0.2381998,-3.1128209,0.0,0.101381496,0.00349879,0.005434549,0.0038205555,0.026490195,0.018501507,inf,inf,inf,inf,1,1,1,1,4,1,4,5,0,0,0
306469900,0,0.0,0.0,0.11802292,0.4242106,-0.036943056,2.259016e-05,-3.349781e-05,-0.36287126,-6.908095e-05,-0.0037396317,-0.0044395695,-0.00412466,0.0029474539,-0.00021841089,1.5556272e-05,0.85523164,-0.12937689,-0.28848296,-3.1129985,0.0,0.10134346,0.0044395695,0.0050140335,0.0035278085,0.025458498,0.017793657,inf,inf,inf,inf,1,1,1,1,4,1,4,5,0,0,0
306573884,0,0.0,0.0,0.118029855,0.42416075,-0.036939822,2.259016e-05,-3.349781e-05,-0.36287126,-0.004162919,-0.0010958595,-0.0027635943,-0.0022937113,0.0029474539,-0.00021841089,1.5556272e-05,-0.9210881,0.8348377,-0.16559458,-3.1133258,0.0,0.10131376,0.0027635943,0.0051118964,0.0035959368,0.025729554,0.017981216,inf,inf,inf,inf,1,1,1,1,4,1,4,5,0,0,0
306677869,0,0.0,0.0,0.1179366,0.42410585,-0.036851387,2.259016e-05,-3.349781e-05,-0.36287126,-0.0033687402,0.0005991359,-0.0034857302,-0.0028190485,0.0029474539,-0.00021841089,1.5556272e-05,-0.19704284,0.30520964,-0.5696975,-3.1130888,0.0,0.10140982,0.0034857302,0.0052164546,0.0036680978,0.026054507,0.018189099,inf,inf,inf,inf,1,1,1,1,4,1,4,5,0,0,0
306773916,0,0.0,0.0,0.1178745,0.42406604,-0.036739428,2.259016e-05,-3.349781e-05,-0.36287126,-0.0033807994,-0.00073269376,-0.0028409122,-0.0020225164,0.0029474539,-0.00021841089,1.5556272e-05,-0.28436792,0.687803,-0.18308735,-3.1130805,0.0,0.10120277,0.0028409122,0.0051223775,0.003602495,0.025741,0.017979162,inf,inf,inf,inf,1,1,1,1,4,1,4,5,0,0,0
306877869,0,0.0,0.0,0.11782364,0.4241348,-0.036669943,2.259016e-05,-3.349781e-05,-0.36287126,-0.0018260134,-0.0033740308,-0.0011958407,-0.0002766835,0.0029474539,-0.00021841089,1.5556272e-05,-0.48020914,0.26133952,0.46810427,-3.1128705,0.0,0.10117473,0.0011958407,0.005190091,0.003649593,0.025895867,0.018086676,inf,inf,inf,inf,1,1,1,1,4,1,4,5,0,0,0
306981904,0,0.0,0.0,0.11779177,0.42431384,-0.036578927,2.259016e-05,-3.349781e-05,-0.36287126,-0.0007396502,-0.0019707321,-0.0033623935,-0.0023512943,0.0029474539,-0.00021841089,1.5556272e-05,0.49355412,-0.6424706,0.57985425,-3.1128623,0.0,0.101078525,0.0033623935,0.00526947,0.003704849,0.026108244,0.018233657,inf,inf,inf,inf,1,1,1,1,4,1,4,5,0,0,0
307085903,0,0.0,0.0,0.117818154,0.42450762,-0.036409505,2.259016e-05,-3.349781e-05,-0.36287126,-0.0027097738,-0.0018961488,-0.0017711837,-0.00070248346,0.0029474539,-0.00021841089,1.5556272e-05,-0.48742315,-1.0551349,-0.2598404,-3.1139333,0.0,0.100866266,0.0017711837,0.0053552673,0.003764598,0.026327264,0.01838565,inf,inf,inf,inf,1,1,1,1,4,1,4,5,0,0,0
307189072,0,0.0,0.0,0.11791646,0.42475083,-0.036155753,2.259016e-05,-3.349781e-05,-0.36287126,-0.0027878569,-0.0007017685,0.000110938476,0.001204904,0.0029474539,-0.00021841089,1.5556272e-05,-0.5120434,-0.46060252,-0.16575427,-3.113468,0.0,0.10061251,-0.000110938476,0.005428738,0.003815892,0.026502857,0.018505266,inf,inf,inf,inf,1,1,1,1,4,1,4,5,0,0,0
307285077,0,0.0,0.0,0.11800093,0.4248309,-0.035909634,2.259016e-05,-3.349781e-05,-0.36287126,-0.0004102295,0.002412552,0.00184252,0.002967568,0.0029474539,-0.00021841089,1.5556272e-05,-0.30279472,1.2098997,-0.09559387,-3.1132247,0.0,0.10048686,-0.00184252,0.005340779,0.0037549308,0.026262227,0.018343266,inf,inf,inf,inf,1,1,1,1,4,1,4,5,0,0,0
307389069,0,0.0,0.0,0.11803933,0.42495754,-0.035626598,2.259016e-05,-3.349781e-05,-0.36287126,-0.004369376,-0.0032296865,0.00033088992,0.0014312848,0.0029474539,-0.00021841089,1.5556272e-05,-0.9477054,-1.7160553,0.30271804,-3.113346,0.0,0.10023057,-0.00033088992,0.0053603137,0.0037689842,0.026269568,0.018353166,inf,inf,inf,inf,1,1,1,1,4,1,4,5,0,0,0
307493090,0,0.0,0.0,0.118145,0.4249745,-0.035360076,2.259016e-05,-3.349781e-05,-0.36287126,-0.0018418767,0.0016818929,0.0006826928,0.0017225037,0.0029474539,-0.00021841089,1.5556272e-05,-0.42354387,0.9372898,0.21204892,-3.1138778,0.0,0.10005299,-0.0006826928,0.005078647,0.0035729473,0.02559797,0.017892027,inf,inf,inf,inf,1,1,1,1,4,1,4,5,0,0,0
307597083,0,0.0,0.0,0.11820099,0.42504588,-0.0350686,2.259016e-05,-3.349781e-05,-0.36287126,-0.0004217112,1.12239995e-05,0.00064213807,0.0015971841,0.0029474539,-0.00021841089,1.5556272e-05,0.19262306,-0.08955413,-0.2257737,-3.1130626,0.0,0.1,-0.00064213807,0.0051693623,0.0036359436,0.025858121,0.018067779,inf,inf,inf,inf,1,1,1,1,4,1,4,5,0,0,0
307701088,0,0.0,0.0,0.1182704,0.42501444,-0.034858894,2.259016e-05,-3.349781e-05,-0.36287126,0.0011035226,0.00016144858,0.0027541304,0.0035881149,0.0029474539,-0.00021841089,1.5556272e-05,0.6204148,0.81781673,0.0026385682,-3.1135738,0.0,0.1,-0.0027541304,0.0052253143,0.0036749959,0.025943656,0.018125027,inf,inf,inf,inf,1,1,1,1,4,1,4,5,0,0,0
307797069,0,0.0,0.0,0.118361175,0.42500964,-0.03476587,2.259016e-05,-3.349781e-05,-0.36287126,0.00036607977,-0.0030461398,0.0012935648,0.001984198,0.0029474539,-0.00021841089,1.5556272e-05,-0.14964074,-0.4618464,0.1777773,-3.113329,0.0,0.1,-0.0012935648,0.005166633,0.0036339962,0.025827168,0.018045887,inf,inf,inf,inf,1,1,1,1,4,1,4,5,0,0,0
307900270,0,0.0,0.0,0.118379466,0.42499414,-0.034713384,2.259016e-05,-3.349781e-05,-0.36287126,-0.0011040366,-0.0014237114,0.0024285645,0.0029456248,0.0029474539,-0.00021841089,1.5556272e-05,0.17161211,0.13213953,0.1563745,-3.1131423,0.0,0.1,-0.0024285645,0.0052254554,0.0036749574,0.025951236,0.018131422,inf,inf,inf,inf,1,1,1,1,4,1,4,5,0,0,0
308004334,0,0.0,0.0,0.11837477,0.4249021,-0.034594536,2.259016e-05,-3.349781e-05,-0.36287126,-0.001251846,0.0005132612,0.00085755397,0.0012053769,0.0029474539,-0.00021841089,1.5556272e-05,-0.087856464,0.47580883,-0.25617018,-3.114105,0.0,0.1,-0.00085755397,0.0053173066,0.003738652,0.026230618,0.018320866,inf,inf,inf,inf,1,1,1,1,4,1,4,5,0,0,0
308100269,0,0.0,0.0,0.11833804,0.4249436,-0.034486406,2.259016e-05,-3.349781e-05,-0.36287126,-0.0022612854,0.001951902,0.0019363953,0.002166511,0.0029474539,-0.00021841089,1.5556272e-05,0.41390005,-0.07093629,-0.17668498,-3.1133678,0.0,0.1,-0.0019363953,0.0052004224,0.0036576954,0.02586401,0.018077105,inf,inf,inf,inf,1,1,1,1,4,1,4,5,0,0,0
308204281,0,0.0,0.0,0.1182524,0.42498478,-0.034477074,2.259016e-05,-3.349781e-05,-0.36287126,-0.0016848128,0.0008303359,0.002308191,0.0024053322,0.0029474539,-0.00021841089,1.5556272e-05,-0.045860898,-0.080520496,0.41787934,-3.1133623,0.0,0.1,-0.002308191,0.005288928,0.00371927,0.026154608,0.018275125,inf,inf,inf,inf,1,1,1,1,4,1,4,5,0,0,0
308308277,0,0.0,0.0,0.11813636,0.42515403,-0.034606192,2.259016e-05,-3.349781e-05,-0.36287126,-0.0016340662,0.0030036324,-0.0012234723,-0.0012582865,0.0029474539,-0.00021841089,1.5556272e-05,0.0037574728,0.72731084,0.12967855,-3.113733,0.0,0.1,0.0012234723,0.0053780423,0.0037812905,0.02637126,0.018422052,inf,inf,inf,inf,1,1,1,1,4,1,4,5,0,0,0
308412269,0,0.0,0.0,0.11803011,0.4253321,-0.03482663,2.259016e-05,-3.349781e-05,-0.36287126,-0.0011232729,-0.00024648235,0.0007202105,0.00053695875,0.0029474539,-0.00021841089,1.5556272e-05,0.36760768,-0.13990645,0.18185766,-3.1134834,0.0,0.1,-0.0007202105,0.005473433,0.0038474705,0.02662784,0.0185951,inf,inf,inf,inf,1,1,1,1,4,1,4,5,0,0,0
308508269,0,0.0,0.0,0.11789943,0.4254337,-0.035168145,2.259016e-05,-3.349781e-05,-0.36287126,-0.005294407,0.00030933073,-0.0018595712,-0.0021446967,0.0029474539,-0.00021841089,1.5556272e-05,-1.195127,0.117584884,-0.2056159,-3.1133966,0.0,0.1,0.0018595712,0.005358682,0.0037678764,0.026266227,0.01834771,inf,inf,inf,inf,1,1,1,1,4,1,4,5,0,0,0
308612275,0,0.0,0.0,0.11778406,0.4254771,-0.03557149,2.259016e-05,-3.349781e-05,-0.36287126,-0.0028466075,0.006557215,-0.003571202,-0.0038685808,0.0029474539,-0.00021841089,1.5556272e-05,0.3129567,1.4489387,0.06521729,-3.1134102,0.0,0.10009074,0.003571202,0.005048445,0.0035519707,0.02547502,0.017804375,inf,inf,inf,inf,1,1,1,1,4,1,4,5,0,0,0
308716269,0,0.0,0.0,0.11770311,0.42551556,-0.035957467,2.259016e-05,-3.349781e-05,-0.36287126,-0.0019149658,-0.0008391523,-0.0023594738,-0.0026301164,0.0029474539,-0.00021841089,1.5556272e-05,-0.16668598,-0.22836918,-0.39487875,-3.1132827,0.0,0.100332096,0.0023594738,0.005138368,0.003614242,0.025776971,0.018010037,inf,inf,inf,inf,1,1,1,1,4,1,4,5,0,0,0
308819470,0,0.0,0.0,0.11766878,0.42545113,-0.036288586,2.259016e-05,-3.349781e-05,-0.36287126,-0.0036999453,0.0005975186,-0.0018819426,-0.0020203865,0.0029474539,-0.00021841089,1.5556272e-05,-0.32099575,-0.26041633,0.39494485,-3.1133883,0.0,0.10074164,0.0018819426,0.0051892507,0.003649616,0.025840722,0.01806432,inf,inf,inf,inf,1,1,1,1,4,1,4,5,0,0,0
308923468,0,0.0,0.0,0.11774213,0.42534032,-0.036478773,2.259016e-05,-3.349781e-05,-0.36287126,-0.0021709164,-0.0020106267,-0.002834372,-0.002802123,0.0029474539,-0.00021841089,1.5556272e-05,-0.7216879,-0.71622044,0.09576997,-3.1140447,0.0,0.100863904,0.002834372,0.0052885422,0.0037188597,0.026135275,0.018262424,inf,inf,inf,inf,1,1,1,1,4,1,4,5,0,0,0
309027470,0,0.0,0.0,0.11786552,0.42520505,-0.036510766,2.259016e-05,-3.349781e-05,-0.36287126,0.0004673923,0.00059008173,-0.0022562072,-0.0020419045,0.0029474539,-0.00021841089,1.5556272e-05,0.5705029,0.48717898,-0.00011838243,-3.1135526,0.0,0.10088703,0.0022562072,0.0053476403,0.003760181,0.02626553,0.018349431,inf,inf,inf,inf,1,1,1,1,4,1,4,5,0,0,0
309123469,0,0.0,0.0,0.11807772,0.42507398,-0.036364663,2.259016e-05,-3.349781e-05,-0.36287126,-0.00073657255,-0.0028985809,-0.0006125867,-0.00023320536,0.0029474539,-0.00021841089,1.5556272e-05,-0.52403617,0.22465615,0.053245705,-3.113154,0.0,0.10078588,0.0006125867,0.005269965,0.0037061535,0.026080221,0.018223943,inf,inf,inf,inf,1,1,1,1,4,1,4,5,0,0,0
309227469,0,0.0,0.0,0.1184087,0.42502835,-0.036114372,2.259016e-05,-3.349781e-05,-0.36287126,0.0016833805,0.0020367668,-0.0014040616,-0.0008606451,0.0029474539,-0.00021841089,1.5556272e-05,0.2654763,0.30920407,-0.34925717,-3.1133354,0.0,0.100675456,0.0014040616,0.0053374395,0.0037531033,0.026254637,0.018342253,inf,inf,inf,inf,1,1,1,1,4,1,4,5,0,0,0
309331469,0,0.0,0.0,0.11872331,0.42497963,-0.03580341,2.259016e-05,-3.349781e-05,-0.36287126,0.0005150703,0.00046942398,0.0003117507,0.000957619,0.0029474539,-0.00021841089,1.5556272e-05,0.04447611,0.7461426,-0.13640942,-3.1134691,0.0,0.10043737,-0.0003117507,0.0054192836,0.0038099382,0.026484607,0.018497191,inf,inf,inf,inf,1,1,1,1,4,1,4,5,0,0,0
309427469,0,0.0,0.0,0.118989214,0.42499626,-0.03560747,2.259016e-05,-3.349781e-05,-0.36287126,0.0020139653,-0.0016771572,-0.0012780754,-0.0006321067,0.0029474539,-0.00021841089,1.5556272e-05,0.38780645,0.1764453,0.51907253,-3.113453,0.0,0.10011661,0.0012780754,0.0053577367,0.0037669977,0.026354404,0.018408924,inf,inf,inf,inf,1,1,1,1,4,1,4,5,0,0,0
309530669,0,0.0,0.0,0.11902169,0.42505282,-0.035492055,2.259016e-05,-3.349781e-05,-0.36287126,0.0024400419,0.002060009,0.00019340913,0.0007610491,0.0029474539,-0.00021841089,1.5556272e-05,0.9670264,0.58793503,-0.35949054,-3.1130276,0.0,0.100003146,-0.00019340913,0.0054474343,0.0038293833,0.026557706,0.018548684,inf,inf,inf,inf,1,1,1,1,4,1,4,5,0,0,0
309634669,0,0.0,0.0,0.11903199,0.42515144,-0.035471372,2.259016e-05,-3.349781e-05,-0.36287126,-0.0021084393,0.0029337408,-0.0017027142,-0.0011760897,0.0029474539,-0.00021841089,1.5556272e-05,-0.3784885,-0.29677334,-0.020911047,-3.1133122,0.0,0.100177206,0.0017027142,0.0051289382,0.0036080107,0.02569984,0.0179587,inf,inf,inf,inf,1,1,1,1,4,1,4,5,0,0,0
309738669,0,0.0,0.0,0.11895445,0.4252885,-0.03542863,2.259016e-05,-3.349781e-05,-0.36287126,0.002107575,-0.00077099336,-0.00092104106,-0.00040112407,0.0029474539,-0.00021841089,1.5556272e-05,0.5947715,-0.7751798,-0.541821,-3.1136048,0.0,0.10012028,0.00092104106,0.0051827347,0.0036455337,0.025836878,0.018058488,inf,inf,inf,inf,1,1,1,1,4,1,4,5,0,0,0
309842680,0,0.0,0.0,0.118732885,0.4253579,-0.035480615,2.259016e-05,-3.349781e-05,-0.36287126,-0.0014416145,0.00034379045,0.0009285595,0.0013885851,0.0029474539,-0.00021841089,1.5556272e-05,-0.3511778,-0.20395076,0.41716525,-3.11374,0.0,0.10004574,-0.0009285595,0.0052982927,0.0037257855,0.026204534,0.018308904,inf,inf,inf,inf,1,1,1,1,4,1,4,5,0,0,0
309938688,0,0.0,0.0,0.11865535,0.42544755,-0.03555457,2.259016e-05,-3.349781e-05,-0.36287126,-0.0034243453,0.00030661488,-0.0023297495,-0.0019110008,0.0029474539,-0.00021841089,1.5556272e-05,-1.1938397,-0.5039615,-0.5957977,-3.1138182,0.0,0.10021053,0.0023297495,0.005216106,0.0036688175,0.025927244,0.018117545,inf,inf,inf,inf,1,1,1,1,4,1,4,5,0,0,0
310042669,0,0.0,0.0,0.118517675,0.42547077,-0.035639744,2.259016e-05,-3.349781e-05,-0.36287126,0.00042194294,0.000705017,0.0002679123,0.0006690051,0.0029474539,-0.00021841089,1.5556272e-05,0.36456716,-0.42013565,0.15149911,-3.1133924,0.0,0.10013577,-0.0002679123,0.0052979467,0.003725615,0.026170883,0.01828248,inf,inf,inf,inf,1,1,1,1,4,1,4,5,0,0,0
310146702,0,0.0,0.0,0.1185015,0.4254698,-0.035731506,2.259016e-05,-3.349781e-05,-0.36287126,-0.0015025277,-0.00027092625,-0.0007785027,-0.00037497818,0.0029474539,-0.00021841089,1.5556272e-05,0.2205551,-0.6447667,0.4160198,-3.1132543,0.0,0.10031915,0.0007785027,0.005385326,0.003786273,0.02640009,0.018441958,inf,inf,inf,inf,1,1,1,1,4,1,4,5,0,0,0
310246694,0,0.0,0.0,0.11853958,0.4254415,-0.03571322,2.259016e-05,-3.349781e-05,-0.36287126,-0.0006969014,-0.0018938158,0.0001635671,0.000603692,0.0029474539,-0.00021841089,1.5556272e-05,0.09652265,-0.72318316,0.22781666,-3.113322,0.0,0.100254945,-0.0001635671,0.005289298,0.003719586,0.026118949,0.018247545,inf,inf,inf,inf,1,1,1,1,4,1,4,5,0,0,0
310349869,0,0.0,0.0,0.11853335,0.42540908,-0.035634182,2.259016e-05,-3.349781e-05,-0.36287126,-0.00011739897,0.0010059506,-0.00095622387,-0.0004959704,0.0029474539,-0.00021841089,1.5556272e-05,0.11834895,0.35607934,-0.14259206,-3.1132438,0.0,0.10022489,0.00095622387,0.0050283098,0.0035377797,0.025489591,0.017817158,inf,inf,inf,inf,1,1,1,1,4,1,4,5,0,0,0
310445875,0,0.0,0.0,0.11854669,0.42529884,-0.035496276,2.259016e-05,-3.349781e-05,-0.36287126,-0.002646945,0.0018445327,0.0008959082,0.0013799133,0.0029474539,-0.00021841089,1.5556272e-05,-0.82413965,0.8888395,0.21302414,-3.1131601,0.0,0.10007471,-0.0008959082,0.005396647,0.0037934023,0.026611278,0.018570665,inf,inf,inf,inf,1,1,1,1,4,1,4,5,0,0,0
310549870,0,0.0,0.0,0.11854309,0.42517355,-0.0353334,2.259016e-05,-3.349781e-05,-0.36287126,-0.00013108324,-0.0027590117,-0.0006936906,-0.00021713927,0.0029474539,-0.00021841089,1.5556272e-05,0.14387147,-0.8692005,0.12194743,-3.1129396,0.0,0.1,0.0006936906,0.0054744105,0.0038470558,0.02672915,0.0186541,inf,inf,inf,inf,1,1,1,1,4,1,4,5,0,0,0
310653868,0,0.0,0.0,0.11858201,0.42500603,-0.03518273,2.259016e-05,-3.349781e-05,-0.36287126,0.001457995,-0.0005037256,0.0016628932,0.002091795,0.0029474539,-0.00021841089,1.5556272e-05,0.61755747,-0.102102764,-0.048280176,-3.1132734,0.0,0.1,-0.0016628932,0.0051422617,0.0036164713,0.025764283,0.017996285,inf,inf,inf,inf,1,1,1,1,4,1,4,5,0,0,0
310749886,0,0.0,0.0,0.11859296,0.4249074,-0.035081066,2.259016e-05,-3.349781e-05,-0.36287126,0.00189364,0.0012783973,0.0039431043,0.0043093334,0.0029474539,-0.00021841089,1.5556272e-05,0.57911557,0.42662963,0.5129928,-3.1131625,0.0,0.1,-0.0039431043,0.0050703874,0.0035665103,0.02557832,0.017873254,inf,inf,inf,inf,1,1,1,1,4,1,4,5,0,0,0
310853868,0,0.0,0.0,0.1186295,0.42486218,-0.03491336,2.259016e-05,-3.349781e-05,-0.36287126,-0.0023699275,-0.002437099,0.00026196535,0.0006069286,0.0029474539,-0.00021841089,1.5556272e-05,-0.47266337,-1.006802,-0.564805,-3.1132562,0.0,0.1,-0.00026196535,0.005133565,0.0036106263,0.025722917,0.017973874,inf,inf,inf,inf,1,1,1,1,4,1,4,5,0,0,0
310957869,0,0.0,0.0,0.118630566,0.42485765,-0.034756195,2.259016e-05,-3.349781e-05,-0.36287126,7.233025e-05,-0.001507342,0.0038942804,0.004154792,0.0029474539,-0.00021841089,1.5556272e-05,0.39226785,0.37244323,0.51667255,-3.113064,0.0,0.1,-0.0038942804,0.005193343,0.0036523638,0.025874143,0.018076358,inf,inf,inf,inf,1,1,1,1,4,1,4,5,0,0,0
311060316,0,0.0,0.0,0.11858632,0.42496404,-0.034619186,2.259016e-05,-3.349781e-05,-0.36287126,-0.0022832844,0.0033561853,-0.00016267193,-2.6538519e-05,0.0029474539,-0.00021841089,1.5556272e-05,-0.65327996,1.1579719,-0.22020431,-3.113413,0.0,0.1,0.00016267193,0.005248285,0.0036907382,0.025996264,0.018160917,inf,inf,inf,inf,1,1,1,1,4,1,4,5,0,0,0
311157069,0,0.0,0.0,0.118494384,0.42508072,-0.034482166,2.259016e-05,-3.349781e-05,-0.36287126,-0.0039638747,0.0013771668,0.0028111674,0.0028642612,0.0029474539,-0.00021841089,1.5556272e-05,-0.40736306,-0.5591704,-0.050609082,-3.1126277,0.0,0.1,-0.0028111674,0.0051615345,0.0036303897,0.025796454,0.018022826,inf,inf,inf,inf,1,1,1,1,4,1,4,5,0,0,0
311261090,0,0.0,0.0,0.1184581,0.42519554,-0.03436388,2.259016e-05,-3.349781e-05,-0.36287126,0.0026603953,-0.00095788727,0.0035021128,0.003434233,0.0029474539,-0.00021841089,1.5556272e-05,1.3427948,-0.27662426,0.2523412,-3.1130712,0.0,0.1,-0.0035021128,0.0052174483,0.003669381,0.025973506,0.01814927,inf,inf,inf,inf,1,1,1,1,4,1,4,5,0,0,0
311365073,0,0.0,0.0,0.1183824,0.42537525,-0.034237448,2.259016e-05,-3.349781e-05,-0.36287126,-0.0040590395,0.0040327306,0.0042097904,0.0040085763,0.0029474539,-0.00021841089,1.5556272e-05,-1.1272317,0.6936432,0.17550182,-3.1131625,0.0,0.1,-0.0042097904,0.0053015086,0.0037278566,0.026211256,0.01831302,inf,inf,inf,inf,1,1,1,1,4,1,4,5,0,0,0
311461101,0,0.0,0.0,0.11829708,0.425522,-0.034107666,2.259016e-05,-3.349781e-05,-0.36287126,-0.0026035372,0.002372893,0.0028026928,0.0024681368,0.0029474539,-0.00021841089,1.5556272e-05,-0.6465958,-0.04046166,-0.4754565,-3.113078,0.0,0.1,-0.0028026928,0.0052541215,0.0036948097,0.026099283,0.018233629,inf,inf,inf,inf,1,1,1,1,4,1,4,5,0,0,0
311565076,0,0.0,0.0,0.11813281,0.42568484,-0.03401239,2.259016e-05,-3.349781e-05,-0.36287126,-0.0034300205,0.00311969,0.003522654,0.0030523879,0.0029474539,-0.00021841089,1.5556272e-05,-0.0038056371,0.19497108,-0.5879417,-3.113192,0.0,0.1,-0.003522654,0.005319753,0.0037405458,0.026227351,0.018318672,inf,inf,inf,inf,1,1,1,1,4,1,4,5,0,0,0
311669081,0,0.0,0.0,0.118026376,0.4258138,-0.033904534,2.259016e-05,-3.349781e-05,-0.36287126,-0.0014321249,0.00078204344,0.004172438,0.003550793,0.0029474539,-0.00021841089,1.5556272e-05,0.34503913,-0.38909057,0.16229545,-3.1127706,0.0,0.1,-0.004172438,0.0053773173,0.0037806195,0.026342573,0.018399004,inf,inf,inf,inf,1,1,1,1,4,1,4,5,0,0,0
311765072,0,0.0,0.0,0.11797479,0.42594537,-0.033742193,2.259016e-05,-3.349781e-05,-0.36287126,-0.0008901044,0.0015630705,0.0032619913,0.0025437677,0.0029474539,-0.00021841089,1.5556272e-05,0.41285118,-0.084149614,-0.3704156,-3.1125743,0.0,0.1,-0.0032619913,0.005316976,0.0037384997,0.026224963,0.018318042,inf,inf,inf,inf,1,1,1,1,4,1,4,5,0,0,0
311868277,0,0.0,0.0,0.11805958,0.4260357,-0.03359361,2.259016e-05,-3.349781e-05,-0.36287126,-0.000655755,0.0053602285,0.0035159858,0.0026755827,0.0029474539,-0.00021841089,1.5556272e-05,0.26738906,0.28741792,-0.55708,-3.1126816,0.0,0.1,-0.0035159858,0.005397915,0.0037947248,0.02644288,0.018466977,inf,inf,inf,inf,1,1,1,1,4,1,4,5,0,0,0
311972268,0,0.0,0.0,0.118339285,0.42596713,-0.033509754,2.259016e-05,-3.349781e-05,-0.36287126,0.00156884,-0.00019134715,0.005584524,0.0045975926,0.0029474539,-0.00021841089,1.5556272e-05,-0.17054753,0.21982855,-0.08818422,-3.1129856,0.0,0.1,-0.005584524,0.0054671005,0.0038428965,0.02659754,0.018573966,inf,inf,inf,inf,1,1,1,1,4,1,4,5,0,0,0
312076272,0,0.0,0.0,0.11870047,0.42580473,-0.033485256,2.259016e-05,-3.349781e-05,-0.36287126,0.0016286828,0.00017275155,0.004156976,0.002993401,0.0029474539,-0.00021841089,1.5556272e-05,0.07583081,0.479571,-0.41038674,-3.1126788,0.0,0.1,-0.004156976,0.0051735328,0.0036389208,0.025862316,0.018071128,inf,inf,inf,inf,1,1,1,1,4,1,4,5,0,0,0
312180269,0,0.0,0.0,0.118964754,0.4254959,-0.033585306,2.259016e-05,-3.349781e-05,-0.36287126,0.0028795328,-0.00086403725,0.005026484,0.0037036613,0.0029474539,-0.00021841089,1.5556272e-05,0.6544088,-0.7659505,0.48880178,-3.113336,0.0,0.1,-0.005026484,0.0052431007,0.003687396,0.026042772,0.018198228,inf,inf,inf,inf,1,1,1,1,4,1,4,5,0,0,0
312276269,0,0.0,0.0,0.119248256,0.42530733,-0.03376461,2.259016e-05,-3.349781e-05,-0.36287126,0.0028726154,-0.0016526899,0.0014585363,-2.400799e-05,0.0029474539,-0.00021841089,1.5556272e-05,0.8058285,-0.7468043,0.03792175,-3.1129298,0.0,0.1,-0.0014585363,0.0051455963,0.0036197505,0.025732763,0.017984185,inf,inf,inf,inf,1,1,1,1,4,1,4,5,0,0,0
312380280,0,0.0,0.0,0.119436555,0.42506507,-0.033934,2.259016e-05,-3.349781e-05,-0.36287126,0.004357757,-0.0044471375,0.0019084488,0.00030893693,0.0029474539,-0.00021841089,1.5556272e-05,0.19271404,-1.5056115,-0.28263682,-3.1129184,0.0,0.1,-0.0019084488,0.0052168705,0.003669178,0.025962826,0.018138912,inf,inf,inf,inf,1,1,1,1,4,1,4,5,0,0,0
312484287,0,0.0,0.0,0.11950169,0.4248973,-0.034097426,2.259016e-05,-3.349781e-05,-0.36287126,0.00050530606,-0.000109019435,-0.0009186088,-0.0025849182,0.0029474539,-0.00021841089,1.5556272e-05,0.0059564356,-0.28555602,-0.7844688,-3.113711,0.0,0.1,0.0009186088,0.0052994876,0.003726492,0.026190171,0.018295936,inf,inf,inf,inf,1,1,1,1,4,1,4,5,0,0,0
312587508,0,0.0,0.0,0.11960149,0.42486262,-0.034356322,2.259016e-05,-3.349781e-05,-0.36287126,0.004713569,-0.00051368284,0.00095504173,-0.0007205832,0.0029474539,-0.00021841089,1.5556272e-05,0.15833926,0.06889808,-0.43310073,-3.113544,0.0,0.1,-0.00095504173,0.005404284,0.003799231,0.026476337,0.018490685,inf,inf,inf,inf,1,1,1,1,4,1,4,5,0,0,0
312683469,0,0.0,0.0,0.119565,0.424729,-0.034694258,2.259016e-05,-3.349781e-05,-0.36287126,0.0053470004,-0.0061319643,-0.0021195554,-0.0037928077,0.0029474539,-0.00021841089,1.5556272e-05,0.6032201,-0.97952205,0.09917367,-3.1128626,0.0,0.1,0.0021195554,0.005298564,0.0037259497,0.026134105,0.018258015,inf,inf,inf,inf,1,1,1,1,4,1,4,5,0,0,0
312787469,0,0.0,0.0,0.11952907,0.4247467,-0.034983102,2.259016e-05,-3.349781e-05,-0.36287126,-0.0009449867,-0.00064847426,-0.0006827508,-0.0023362553,0.0029474539,-0.00021841089,1.5556272e-05,-0.5630536,-0.30188364,-0.3081006,-3.1132777,0.0,0.1,0.0006827508,0.0053891735,0.003788769,0.02640396,0.018444335,inf,inf,inf,inf,1,1,1,1,4,1,4,5,0,0,0
312891491,0,0.0,0.0,0.11945854,0.42462835,-0.03524156,2.259016e-05,-3.349781e-05,-0.36287126,0.0024305019,0.0037490355,-0.00080628495,-0.0024012534,0.0029474539,-0.00021841089,1.5556272e-05,0.7092777,1.2459563,-0.6748914,-3.1134398,0.0,0.1,0.00080628495,0.00546223,0.003839761,0.026580868,0.018564524,inf,inf,inf,inf,1,1,1,1,4,1,4,5,0,0,0
312987469,0,0.0,0.0,0.11931283,0.42468852,-0.035511963,2.259016e-05,-3.349781e-05,-0.36287126,-1.598091e-05,-0.0014475405,-0.001744816,-0.0032410237,0.0029474539,-0.00021841089,1.5556272e-05,-0.122782186,-0.32839662,0.46399042,-3.1127408,0.0,0.10004363,0.001744816,0.005372794,0.003777732,0.026331667,0.01839602,inf,inf,inf,inf,1,1,1,1,4,1,4,5,0,0,0
313091469,0,0.0,0.0,0.11917293,0.4248234,-0.035678476,2.259016e-05,-3.349781e-05,-0.36287126,0.0015908079,-0.0014001649,-0.002149548,-0.0034855667,0.0029474539,-0.00021841089,1.5556272e-05,0.6021995,-0.8702631,-0.5356999,-3.11347,0.0,0.100248635,0.002149548,0.005453737,0.003833914,0.026567608,0.018556237,inf,inf,inf,inf,1,1,1,1,4,1,4,5,0,0,0
313195468,0,0.0,0.0,0.1189777,0.42494175,-0.03577557,2.259016e-05,-3.349781e-05,-0.36287126,-0.0017328269,0.0011847911,-0.0017453822,-0.0029069677,0.0029474539,-0.00021841089,1.5556272e-05,-1.1503106,0.11065352,-0.57480806,-3.1135252,0.0,0.10040933,0.0017453822,0.0051485235,0.003621608,0.02578268,0.018016808,inf,inf,inf,inf,1,1,1,1,4,1,4,5,0,0,0
313291469,0,0.0,0.0,0.11881203,0.42503363,-0.03576125,2.259016e-05,-3.349781e-05,-0.36287126,-0.0017322763,0.0029203088,-0.00047569908,-0.0014413478,0.0029474539,-0.00021841089,1.5556272e-05,-0.24059615,0.6006533,0.20063023,-3.1134448,0.0,0.10048881,0.00047569908,0.005456529,0.0038357088,0.026588622,0.018569758,inf,inf,inf,inf,1,1,1,1,4,1,4,5,0,0,0
313395469,0,0.0,0.0,0.11873577,0.42526647,-0.035740845,2.259016e-05,-3.349781e-05,-0.36287126,0.00035662873,0.0009542981,-0.00044331633,-0.0012549013,0.0029474539,-0.00021841089,1.5556272e-05,0.14287119,-0.43190876,-0.030252213,-3.1132762,0.0,0.1004658,0.00044331633,0.0051468704,0.0036204306,0.025756339,0.01799901,inf,inf,inf,inf,1,1,1,1,4,1,4,5,0,0,0
313498669,0,0.0,0.0,0.118606925,0.42540014,-0.035718985,2.259016e-05,-3.349781e-05,-0.36287126,0.002444692,0.0011046281,-0.0007827613,-0.0014673361,0.0029474539,-0.00021841089,1.5556272e-05,0.32414356,-0.24561857,0.21169327,-3.1133862,0.0,0.10041421,0.0007827613,0.0052154693,0.0036681632,0.02593456,0.018120699,inf,inf,inf,inf,1,1,1,1,4,1,4,5,0,0,0
313602668,0,0.0,0.0,0.11859689,0.4256606,-0.035726525,2.259016e-05,-3.349781e-05,-0.36287126,0.00038302198,0.0030102604,-0.0012401249,-0.0018592682,0.0029474539,-0.00021841089,1.5556272e-05,0.6438676,-0.02418122,-0.5448911,-3.1133897,0.0,0.10039026,0.0012401249,0.0053012813,0.0037277408,0.02617817,0.018292584,inf,inf,inf,inf,1,1,1,1,4,1,4,5,0,0,0
313698700,0,0.0,0.0,0.11859603,0.42582992,-0.035795968,2.259016e-05,-3.349781e-05,-0.36287126,0.0010857469,0.0015276379,0.00019939817,-0.00034013568,0.0029474539,-0.00021841089,1.5556272e-05,-0.14139694,-1.382227,0.42141798,-3.1135097,0.0,0.100480914,-0.00019939817,0.0052416627,0.0036864488,0.026038336,0.01819856,inf,inf,inf,inf,1,1,1,1,4,1,4,5,0,0,0
313802678,0,0.0,0.0,0.118628636,0.42599177,-0.03589056,2.259016e-05,-3.349781e-05,-0.36287126,0.0013855622,0.003036307,-0.0034364557,-0.003925781,0.0029474539,-0.00021841089,1.5556272e-05,-0.33201018,0.78388137,-0.13398339,-3.1130514,0.0,0.10045731,0.0034364557,0.005293364,0.0037226295,0.026123507,0.018254105,inf,inf,inf,inf,1,1,1,1,4,1,4,5,0,0,0
313906688,0,0.0,0.0,0.11870608,0.42595342,-0.036047347,2.259016e-05,-3.349781e-05,-0.36287126,0.0012453726,0.00047328835,-0.0036309403,-0.004061395,0.0029474539,-0.00021841089,1.5556272e-05,0.7654898,-0.52075493,-0.52341735,-3.1129208,0.0,0.10055374,0.0036309403,0.005385059,0.0037861755,0.02641584,0.018450093,inf,inf,inf,inf,1,1,1,1,4,1,4,5,0,0,0
314002669,0,0.0,0.0,0.1188099,0.42594638,-0.036218807,2.259016e-05,-3.349781e-05,-0.36287126,0.00054477266,0.0014858573,-0.0030226293,-0.0033820912,0.0029474539,-0.00021841089,1.5556272e-05,-0.29494274,-0.86966294,0.45507672,-3.1132069,0.0,0.10066417,0.0030226293,0.005276009,0.003710426,0.026086485,0.01822675,inf,inf,inf,inf,1,1,1,1,4,1,4,5,0,0,0
314106669,0,0.0,0.0,0.11885807,0.4258899,-0.03633888,2.259016e-05,-3.349781e-05,-0.36287126,0.00042783082,-4.5818324e-05,-0.00093600014,-0.0011781933,0.0029474539,-0.00021841089,1.5556272e-05,-0.27781343,-0.4802828,0.27520853,-3.1125486,0.0,0.10083149,0.00093600014,0.0053392667,0.003754318,0.026256828,0.018341893,inf,inf,inf,inf,1,1,1,1,4,1,4,5,0,0,0
314209880,0,0.0,0.0,0.11887392,0.42590487,-0.036365878,2.259016e-05,-3.349781e-05,-0.36287126,0.0008220297,0.004051035,-0.0012528116,-0.0013059402,0.0029474539,-0.00021841089,1.5556272e-05,0.6277346,-0.19935597,0.06756993,-3.1133134,0.0,0.100994885,0.0012528116,0.0051089944,0.0035937172,0.025760418,0.01800079,inf,inf,inf,inf,1,1,1,1,4,1,4,5,0,0,0
314305871,0,0.0,0.0,0.11880704,0.42600825,-0.036344137,2.259016e-05,-3.349781e-05,-0.36287126,0.0006138142,0.006051901,0.0012061832,0.0013024564,0.0029474539,-0.00021841089,1.5556272e-05,-0.19784902,0.8273001,0.18681824,-3.113439,0.0,0.10092549,-0.0012061832,0.0051220334,0.003602614,0.025815723,0.018039972,inf,inf,inf,inf,1,1,1,1,4,1,4,5,0,0,0
314409882,0,0.0,0.0,0.118708305,0.42610937,-0.036324415,2.259016e-05,-3.349781e-05,-0.36287126,0.00081095163,8.8379005e-05,-0.0040852297,-0.0038951535,0.0029474539,-0.00021841089,1.5556272e-05,-0.14260456,-1.3262304,-0.7292564,-3.1127791,0.0,0.1008856,0.0040852297,0.0052102027,0.0036643816,0.02596448,0.018147511,inf,inf,inf,inf,1,1,1,1,4,1,4,5,0,0,0
314513869,0,0.0,0.0,0.11872324,0.4260798,-0.036225054,2.259016e-05,-3.349781e-05,-0.36287126,0.0021485281,0.0018498818,-0.00083322776,-0.0005693518,0.0029474539,-0.00021841089,1.5556272e-05,0.5250132,0.7562305,-0.2894318,-3.1129053,0.0,0.10069242,0.00083322776,0.0053005926,0.0037274787,0.026170166,0.018286489,inf,inf,inf,inf,1,1,1,1,4,1,4,5,0,0,0
314617868,0,0.0,0.0,0.118789725,0.4260625,-0.03603565,2.259016e-05,-3.349781e-05,-0.36287126,-0.0016154068,0.002359875,0.0015935045,0.0019179895,0.0029474539,-0.00021841089,1.5556272e-05,-0.76291525,-0.36615658,0.2991301,-3.1132977,0.0,0.10050457,-0.0015935045,0.005391335,0.0037905937,0.026411807,0.018450247,inf,inf,inf,inf,1,1,1,1,4,1,4,5,0,0,0
314721900,0,0.0,0.0,0.11875537,0.42595226,-0.035811502,2.259016e-05,-3.349781e-05,-0.36287126,0.0025304337,-0.0028307752,-9.8639015e-05,0.0002840657,0.0029474539,-0.00021841089,1.5556272e-05,0.36867014,-1.5892527,0.5231776,-3.1128786,0.0,0.10037069,9.8639015e-05,0.0054801265,0.0038523497,0.026623394,0.01859627,inf,inf,inf,inf,1,1,1,1,4,1,4,5,0,0,0
314817868,0,0.0,0.0,0.11878578,0.42575246,-0.035592336,2.259016e-05,-3.349781e-05,-0.36287126,0.0027104989,-0.000597079,0.0039074263,0.0043274844,0.0029474539,-0.00021841089,1.5556272e-05,1.6272128,0.30499244,0.83134604,-3.1128206,0.0,0.10023168,-0.0039074263,0.005384032,0.0037856195,0.02636889,0.018420337,inf,inf,inf,inf,1,1,1,1,4,1,4,5,0,0,0
314921875,0,0.0,0.0,0.11875783,0.42545798,-0.035316184,2.259016e-05,-3.349781e-05,-0.36287126,0.00080181326,0.0043150806,0.0016114551,0.0020338967,0.0029474539,-0.00021841089,1.5556272e-05,-0.56341124,1.5662615,0.011071394,-3.1135912,0.0,0.10008438,-0.0016114551,0.005106068,0.0035921228,0.025667526,0.017943129,inf,inf,inf,inf,1,1,1,1,4,1,4,5,0,0,0
315025077,0,0.0,0.0,0.11872187,0.42530814,-0.035204157,2.259016e-05,-3.349781e-05,-0.36287126,0.0008810674,-0.0019437107,-0.00085342355,-0.0004956855,0.0029474539,-0.00021841089,1.5556272e-05,0.65846395,-0.73117775,-0.06561597,-3.113235,0.0,0.1,0.00085342355,0.005137056,0.0036138722,0.025697753,0.017960256,inf,inf,inf,inf,1,1,1,1,4,1,4,5,0,0,0
315121098,0,0.0,0.0,0.11867691,0.42514357,-0.035147052,2.259016e-05,-3.349781e-05,-0.36287126,-0.00074689795,-8.6941924e-05,0.00086390576,0.0011402502,0.0029474539,-0.00021841089,1.5556272e-05,-0.07994446,-0.67526126,0.14857614,-3.1131299,0.0,0.1,-0.00086390576,0.005431438,0.0038184253,0.026492571,0.018509025,inf,inf,inf,inf,1,1,1,1,4,1,4,5,0,0,0
315225069,0,0.0,0.0,0.11860973,0.42503253,-0.03512543,2.259016e-05,-3.349781e-05,-0.36287126,-0.00016327259,0.0028084368,0.00051540794,0.0006993637,0.0029474539,-0.00021841089,1.5556272e-05,-0.24661483,1.848922,0.42216295,-3.1129885,0.0,0.1,-0.00051540794,0.005140668,0.0036163025,0.02576353,0.018010376,inf,inf,inf,inf,1,1,1,1,4,1,4,5,0,0,0
315329077,0,0.0,0.0,0.11863784,0.42497355,-0.035111483,2.259016e-05,-3.349781e-05,-0.36287126,0.0013407737,-0.000983894,-0.001264886,-0.0011800396,0.0029474539,-0.00021841089,1.5556272e-05,0.01860869,0.30048287,-0.049772426,-3.1127722,0.0,0.1,0.001264886,0.0052308645,0.0036790282,0.026012404,0.018177705,inf,inf,inf,inf,1,1,1,1,4,1,4,5,0,0,0
315433074,0,0.0,0.0,0.11857208,0.4249163,-0.035070308,2.259016e-05,-3.349781e-05,-0.36287126,0.0016210575,-3.4503755e-06,0.0009713067,0.00096380693,0.0029474539,-0.00021841089,1.5556272e-05,0.9166321,-1.1244313,-0.548219,-3.1130517,0.0,0.1,-0.0009713067,0.0056112995,0.003944109,0.026830772,0.018735228,inf,inf,inf,inf,1,1,1,1,4,1,4,5,0,0,0
315529080,0,0.0,0.0,0.11858543,0.42482552,-0.035048716,2.259016e-05,-3.349781e-05,-0.36287126,0.0010083222,-0.001104124,0.00079165417,0.0007171087,0.0029474539,-0.00021841089,1.5556272e-05,0.71830535,-0.4029273,-0.17675671,-3.113345,0.0,0.1,-0.00079165417,0.0054259496,0.0038153369,0.026352592,0.018410634,inf,inf,inf,inf,1,1,1,1,4,1,4,5,0,0,0
315633083,0,0.0,0.0,0.11850554,0.4248409,-0.034974616,2.259016e-05,-3.349781e-05,-0.36287126,0.0009715396,-0.0012962478,0.0026701682,0.0025629927,0.0029474539,-0.00021841089,1.5556272e-05,1.2047167,-0.41928074,0.39921817,-3.1130636,0.0,0.1,-0.0026701682,0.0051119593,0.0035964332,0.025666475,0.017939748,inf,inf,inf,inf,1,1,1,1,4,1,4,5,0,0,0
315736300,0,0.0,0.0,0.118359976,0.4247686,-0.034905054,2.259016e-05,-3.349781e-05,-0.36287126,-0.00013003947,-0.0008942835,0.0027878704,0.0026523797,0.0029474539,-0.00021841089,1.5556272e-05,-0.030026468,0.44740692,0.48368248,-3.1132977,0.0,0.1,-0.0027878704,0.0051817456,0.003644796,0.025879307,0.018085739,inf,inf,inf,inf,1,1,1,1,4,1,4,5,0,0,0
315832316,0,0.0,0.0,0.118312135,0.42471805,-0.034895938,2.259016e-05,-3.349781e-05,-0.36287126,-0.00039805227,-0.0006646451,-0.00011248208,-0.0003085664,0.0029474539,-0.00021841089,1.5556272e-05,0.24315867,0.16983089,-0.15650424,-3.1133146,0.0,0.1,0.00011248208,0.0051009837,0.003588598,0.025654254,0.017929345,inf,inf,inf,inf,1,1,1,1,4,1,4,5,0,0,0
315936285,0,0.0,0.0,0.11819888,0.4246136,-0.034941427,2.259016e-05,-3.349781e-05,-0.36287126,-0.001310106,0.0005149294,0.0009642392,0.00071166997,0.0029474539,-0.00021841089,1.5556272e-05,0.34428778,0.51025903,-0.30081174,-3.113652,0.0,0.1,-0.0009642392,0.0051517636,0.0036240348,0.025747208,0.017998196,inf,inf,inf,inf,1,1,1,1,4,1,4,5,0,0,0
316040275,0,0.0,0.0,0.118044585,0.42454365,-0.034980007,2.259016e-05,-3.349781e-05,-0.36287126,-0.0012460455,-0.0024845537,-0.00035250193,-0.0006700914,0.0029474539,-0.00021841089,1.5556272e-05,0.053107217,-0.4590237,-0.55947274,-3.1131716,0.0,0.1,0.00035250193,0.0052298293,0.0036784518,0.02596164,0.018144049,inf,inf,inf,inf,1,1,1,1,4,1,4,5,0,0,0
316144311,0,0.0,0.0,0.11788105,0.42435873,-0.034998704,2.259016e-05,-3.349781e-05,-0.36287126,-0.003242226,-0.002240353,0.0019116882,0.0015612458,0.0029474539,-0.00021841089,1.5556272e-05,-0.37931308,0.09390902,-0.22246474,-3.1132843,0.0,0.1,-0.0019116882,0.0053193797,0.0037406622,0.026227847,0.018325534,inf,inf,inf,inf,1,1,1,1,4,1,4,5,0,0,0
316248293,0,0.0,0.0,0.117695175,0.4242057,-0.0350584,2.259016e-05,-3.349781e-05,-0.36287126,-0.0012205854,-0.003443065,0.0020269072,0.0016322891,0.0029474539,-0.00021841089,1.5556272e-05,0.8264008,-0.17255333,0.37286767,-3.1135266,0.0,0.1,-0.0020269072,0.0053915987,0.0037909483,0.026382292,0.018430835,inf,inf,inf,inf,1,1,1,1,4,1,4,5,0,0,0
316344271,0,0.0,0.0,0.11756907,0.424132,-0.035134014,2.259016e-05,-3.349781e-05,-0.36287126,-0.002407664,-0.0027094814,-0.0010733862,-0.0014601767,0.0029474539,-0.00021841089,1.5556272e-05,0.40131447,-0.2705724,-0.25661337,-3.1130385,0.0,0.1,0.0010733862,0.0053232373,0.0037432858,0.026231457,0.018325165,inf,inf,inf,inf,1,1,1,1,4,1,4,5,0,0,0
316448269,0,0.0,0.0,0.11746064,0.42404118,-0.035188813,2.259016e-05,-3.349781e-05,-0.36287126,-0.0050127013,-0.00019621896,0.0014356194,0.001040847,0.0029474539,-0.00021841089,1.5556272e-05,-0.5741678,0.5719147,-0.017541012,-3.1134455,0.0,0.1,-0.0014356194,0.0054137157,0.0038060832,0.02647747,0.018493036,inf,inf,inf,inf,1,1,1,1,4,1,4,5,0,0,0
316547469,0,0.0,0.0,0.1173474,0.4240989,-0.035258584,2.259016e-05,-3.349781e-05,-0.36287126,-0.0030162837,8.972983e-05,0.0005820728,0.00016892928,0.0029474539,-0.00021841089,1.5556272e-05,0.1787602,0.36927402,0.44602117,-3.1130257,0.0,0.1,-0.0005820728,0.0053568655,0.0037664059,0.026352532,0.018409295,inf,inf,inf,inf,1,1,1,1,4,1,4,5,0,0,0
316651506,0,0.0,0.0,0.11732577,0.42413804,-0.035343524,2.259016e-05,-3.349781e-05,-0.36287126,-0.0017432298,-0.00038267882,0.0002943478,-8.729401e-05,0.0029474539,-0.00021841089,1.5556272e-05,-0.09151748,0.55286556,0.34130105,-3.1131303,0.0,0.10002646,-0.0002943478,0.0054846145,0.003855153,0.026788916,0.018690556,inf,inf,inf,inf,1,1,1,1,4,1,4,5,0,0,0
316755469,0,0.0,0.0,0.11734596,0.42430118,-0.03538003,2.259016e-05,-3.349781e-05,-0.36287126,-0.0034608543,-0.0016149008,-0.0009600721,-0.0013359872,0.0029474539,-0.00021841089,1.5556272e-05,-0.39913765,-0.20292708,0.18258408,-3.112925,0.0,0.10002172,0.0009600721,0.005143495,0.0036174587,0.025813712,0.018026259,inf,inf,inf,inf,1,1,1,1,4,1,4,5,0,0,0
316851469,0,0.0,0.0,0.11739671,0.42446274,-0.03535341,2.259016e-05,-3.349781e-05,-0.36287126,-0.0048794015,0.0021542492,-0.0008260204,-0.001162644,0.0029474539,-0.00021841089,1.5556272e-05,-0.8208965,0.20353675,-0.33823174,-3.1128712,0.0,0.10005291,0.0008260204,0.005433101,0.0038184943,0.026553731,0.018533766,inf,inf,inf,inf,1,1,1,1,4,1,4,5,0,0,0
316955486,0,0.0,0.0,0.11760899,0.42462918,-0.035351254,2.259016e-05,-3.349781e-05,-0.36287126,-0.0017435355,-0.001275636,-0.0012591911,-0.001570645,0.0029474539,-0.00021841089,1.5556272e-05,-0.79755414,-0.6810852,-0.3118004,-3.113382,0.0,0.10000525,0.0012591911,0.005156522,0.003626198,0.025847701,0.018056402,inf,inf,inf,inf,1,1,1,1,4,1,4,5,0,0,0
317059511,0,0.0,0.0,0.11777698,0.42479596,-0.035329394,2.259016e-05,-3.349781e-05,-0.36287126,-0.00084480253,0.00035109583,0.0011825594,0.00089016993,0.0029474539,-0.00021841089,1.5556272e-05,-0.37510702,0.44835645,-0.4286049,-3.1135175,0.0,0.1000555,-0.0011825594,0.005219969,0.0036706734,0.025943806,0.018123891,inf,inf,inf,inf,1,1,1,1,4,1,4,5,0,0,0
317155469,0,0.0,0.0,0.11798354,0.4249131,-0.03534139,2.259016e-05,-3.349781e-05,-0.36287126,-0.00037844558,0.00096546614,0.0012321849,0.0009377007,0.0029474539,-0.00021841089,1.5556272e-05,0.59013265,0.78184736,0.01246803,-3.1131384,0.0,0.1,-0.0012321849,0.0051507996,0.0036226623,0.025781563,0.018014181,inf,inf,inf,inf,1,1,1,1,4,1,4,5,0,0,0
317259469,0,0.0,0.0,0.118249744,0.42499405,-0.035338037,2.259016e-05,-3.349781e-05,-0.36287126,0.0027316883,-0.0016812545,-0.000559896,-0.00085105083,0.0029474539,-0.00021841089,1.5556272e-05,0.032784555,-0.84456784,-0.003831524,-3.1132379,0.0,0.1,0.000559896,0.0052016843,0.0036582684,0.025884584,0.018084448,inf,inf,inf,inf,1,1,1,1,4,1,4,5,0,0,0
317362704,0,0.0,0.0,0.11843301,0.42502978,-0.035341717,2.259016e-05,-3.349781e-05,-0.36287126,0.0006972517,-0.006450996,-0.0013474999,-0.0016236239,0.0029474539,-0.00021841089,1.5556272e-05,-0.15397,-1.4785166,-0.5738344,-3.113444,0.0,0.10000458,0.0013474999,0.005290539,0.003719945,0.026169077,0.018279366,inf,inf,inf,inf,1,1,1,1,4,1,4,5,0,0,0
317466675,0,0.0,0.0,0.11859348,0.4250031,-0.035390303,2.259016e-05,-3.349781e-05,-0.36287126,0.0013277928,0.0014687987,-0.0005687544,-0.0008405812,0.0029474539,-0.00021841089,1.5556272e-05,0.558553,0.82463396,0.062354017,-3.1134613,0.0,0.10002352,0.0005687544,0.0053220773,0.0037420986,0.026194673,0.018299839,inf,inf,inf,inf,1,1,1,1,4,1,4,5,0,0,0
317570669,0,0.0,0.0,0.11873945,0.42489022,-0.03545562,2.259016e-05,-3.349781e-05,-0.36287126,-0.0020179157,-0.0012495482,-0.0020592492,-0.0023254312,0.0029474539,-0.00021841089,1.5556272e-05,-0.53094786,0.47543955,-0.5384467,-3.1135073,0.0,0.10004569,0.0020592492,0.0054111453,0.0038040825,0.02646171,0.018482804,inf,inf,inf,inf,1,1,1,1,4,1,4,5,0,0,0
317666680,0,0.0,0.0,0.11874196,0.42476478,-0.03546918,2.259016e-05,-3.349781e-05,-0.36287126,-0.00135993,-0.0032306327,-0.00052397366,-0.00076629285,0.0029474539,-0.00021841089,1.5556272e-05,-1.1390002,-0.38557872,0.4154272,-3.1136427,0.0,0.10012693,0.00052397366,0.005354907,0.0037648804,0.026353428,0.018407116,inf,inf,inf,inf,1,1,1,1,4,1,4,5,0,0,0
317770675,0,0.0,0.0,0.118719585,0.424648,-0.035441287,2.259016e-05,-3.349781e-05,-0.36287126,0.001826755,0.0009211349,6.125515e-07,-0.00018067114,0.0029474539,-0.00021841089,1.5556272e-05,0.8709218,0.4884325,0.18225904,-3.1133714,0.0,0.10010513,-6.125515e-07,0.005055113,0.0035564376,0.025530975,0.017845593,inf,inf,inf,inf,1,1,1,1,4,1,4,5,0,0,0
317874669,0,0.0,0.0,0.11864315,0.42463794,-0.035575893,2.259016e-05,-3.349781e-05,-0.36287126,-0.004085695,-0.0040895045,-0.00386739,-0.004027663,0.0029474539,-0.00021841089,1.5556272e-05,0.022660863,-0.53897405,-0.5921107,-3.1132464,0.0,0.10025582,0.00386739,0.0051272963,0.0036066647,0.025714109,0.01796817,inf,inf,inf,inf,1,1,1,1,4,1,4,5,0,0,0
317970679,0,0.0,0.0,0.11851466,0.4245494,-0.035759173,2.259016e-05,-3.349781e-05,-0.36287126,-0.0015954333,-0.0039366498,-0.0019274643,-0.0021048598,0.0029474539,-0.00021841089,1.5556272e-05,-0.57460135,-1.327363,0.1333576,-3.1126928,0.0,0.100439094,0.0019274643,0.00542473,0.0038134293,0.02648987,0.01849924,inf,inf,inf,inf,1,1,1,1,4,1,4,5,0,0,0
318078698,0,0.0,0.0,0.11863654,0.42445424,-0.035986274,2.259016e-05,-3.349781e-05,-0.36287126,0.008121386,-0.0042603593,-0.0052619744,-0.0054308493,0.0029474539,-0.00021841089,1.5556272e-05,1.3375148,-0.027991569,-0.10667104,-3.112951,0.0,0.100666195,0.0052619744,0.0051381043,0.0036139633,0.025769126,0.018005667,inf,inf,inf,inf,1,1,1,1,4,1,4,5,0,0,0
318173901,0,0.0,0.0,0.11915907,0.42439735,-0.036115892,2.259016e-05,-3.349781e-05,-0.36287126,0.0030746465,-0.0035956996,-0.00039090632,-0.0005301532,0.0029474539,-0.00021841089,1.5556272e-05,-1.4646931,-1.5688978,0.826957,-3.11243,0.0,0.10079581,0.00039090632,0.005408143,0.003801957,0.026398832,0.018435275,inf,inf,inf,inf,1,1,1,1,4,1,4,5,0,0,0
318277869,0,0.0,0.0,0.11978214,0.42409882,-0.03615945,2.259016e-05,-3.349781e-05,-0.36287126,0.010057008,-0.000105678904,-0.0045829164,-0.004707387,0.0029474539,-0.00021841089,1.5556272e-05,0.80707896,2.326463,-0.2236824,-3.1131716,0.0,0.10083937,0.0045829164,0.005478774,0.00385077,0.026740592,0.018655704,inf,inf,inf,inf,1,1,1,1,4,1,4,5,0,0,0
318381869,0,0.0,0.0,0.120248266,0.42384782,-0.036224365,2.259016e-05,-3.349781e-05,-0.36287126,0.005660047,-0.008304444,-0.0052578184,-0.0053676986,0.0029474539,-0.00021841089,1.5556272e-05,0.6288373,-1.6416372,-1.0330938,-3.1124601,0.0,0.100904286,0.0052578184,0.0054627503,0.0038392628,0.026606573,0.018566297,inf,inf,inf,inf,1,1,1,1,4,1,4,5,0,0,0
318477875,0,0.0,0.0,0.12058548,0.4235557,-0.03631362,2.259016e-05,-3.349781e-05,-0.36287126,0.0013511567,-0.005521869,0.0035877435,0.0035279363,0.0029474539,-0.00021841089,1.5556272e-05,-1.1733419,-0.6618729,0.8377436,-3.1125104,0.0,0.100993544,-0.0035877435,0.0053692213,0.0037739687,0.026387598,0.018420583,inf,inf,inf,inf,1,1,1,1,4,1,4,5,0,0,0
318581868,0,0.0,0.0,0.12077147,0.4233536,-0.036493134,2.259016e-05,-3.349781e-05,-0.36287126,0.0058092354,-0.0066116434,0.005492175,0.005461664,0.0029474539,-0.00021841089,1.5556272e-05,1.2088397,-1.5709738,0.50487965,-3.1120427,0.0,0.10117306,-0.005492175,0.0054336023,0.0038187425,0.02654496,0.018528147,inf,inf,inf,inf,1,1,1,1,4,1,4,5,0,0,0
318685871,0,0.0,0.0,0.12071754,0.42336097,-0.036740907,2.259016e-05,-3.349781e-05,-0.36287126,0.0020956383,-0.010126933,-0.005297827,-0.0053484775,0.0029474539,-0.00021841089,1.5556272e-05,-0.108242236,-1.9842321,-1.8646821,-3.1106179,0.0,0.10142083,0.005297827,0.0051221633,0.0036024791,0.025714962,0.017958874,inf,inf,inf,inf,1,1,1,1,4,1,4,5,0,0,0
318789876,0,0.0,0.0,0.12035355,0.4233796,-0.037142895,2.259016e-05,-3.349781e-05,-0.36287126,0.004654672,-8.719243e-05,-0.012819108,-0.012894863,0.0029474539,-0.00021841089,1.5556272e-05,1.2189035,0.42137197,-0.07084538,-3.1101625,0.0,0.101822816,0.012819108,0.0052378257,0.0036826977,0.02607308,0.018209865,inf,inf,inf,inf,1,1,1,1,4,1,4,5,0,0,0
318893869,0,0.0,0.0,0.11998217,0.42358354,-0.037509542,2.259016e-05,-3.349781e-05,-0.36287126,-0.0024999408,0.00025977893,0.00920508,0.009133038,0.0029474539,-0.00021841089,1.5556272e-05,-1.7568398,0.23386034,0.6664014,-3.1099763,0.0,0.10218947,-0.00920508,0.005313209,0.0037353076,0.026216475,0.0183158,inf,inf,inf,inf,1,1,1,1,4,1,4,5,0,0,0
318989075,0,0.0,0.0,0.1196654,0.4237639,-0.037677914,2.259016e-05,-3.349781e-05,-0.36287126,0.0060456274,-0.006001675,-0.008575572,-0.008587997,0.0029474539,-0.00021841089,1.5556272e-05,1.0766364,0.39427182,-3.4846895,-3.109156,0.0,0.102357835,0.008575572,0.00524159,0.0036855878,0.026013521,0.018179374,inf,inf,inf,inf,1,1,1,1,4,1,4,5,0,0,0
319093069,0,0.0,0.0,0.11962102,0.42412153,-0.038049854,2.259016e-05,-3.349781e-05,-0.36287126,0.00014962313,-0.0044842088,-0.0065856418,-0.006500448,0.0029474539,-0.00021841089,1.5556272e-05,-0.58094895,0.42725876,-2.0850272,-3.1090293,0.0,0.102729775,0.0065856418,0.005292481,0.0037212363,0.026144302,0.01825026,inf,inf,inf,inf,1,1,1,1,4,1,4,5,0,0,0
319197082,0,0.0,0.0,0.11949868,0.42455205,-0.03862725,2.259016e-05,-3.349781e-05,-0.36287126,0.0021870553,0.015353716,-0.01630274,-0.016194621,0.0029474539,-0.00021841089,1.5556272e-05,0.19390854,3.2904258,-1.0159197,-3.1077616,0.0,0.10330717,0.01630274,0.0053736656,0.0037777205,0.026365943,0.018416358,inf,inf,inf,inf,1,1,1,1,4,1,4,5,0,0,0
319293096,0,0.0,0.0,0.11949632,0.42485166,-0.039387506,2.259016e-05,-3.349781e-05,-0.36287126,0.0033837345,0.01786399,-0.009363618,-0.009263555,0.0029474539,-0.00021841089,1.5556272e-05,-0.40032336,4.393725,0.7956238,-3.10732,0.0,0.10406743,0.009363618,0.005284447,0.0037158213,0.026109494,0.018241905,inf,inf,inf,inf,1,1,1,1,4,1,4,5,0,0,0
319397104,0,0.0,0.0,0.11952142,0.42491758,-0.040106133,2.259016e-05,-3.349781e-05,-0.36287126,-0.0022599087,-0.012082918,-0.008360003,-0.008234057,0.0029474539,-0.00021841089,1.5556272e-05,0.40673935,-0.958166,-2.1828823,-3.1065457,0.0,0.10478605,0.008360003,0.005344151,0.003757178,0.026271518,0.018342933,inf,inf,inf,inf,1,1,1,1,4,1,4,5,0,0,0
319501073,0,0.0,0.0,0.11906804,0.42468214,-0.040749855,2.259016e-05,-3.349781e-05,-0.36287126,-0.0009020892,-0.006288848,-0.0126100965,-0.0123463385,0.0029474539,-0.00021841089,1.5556272e-05,-2.3819718,-3.6693647,2.0714738,-3.104927,0.0,0.105429776,0.0126100965,0.005421454,0.0038106856,0.026480183,0.018493095,inf,inf,inf,inf,1,1,1,1,4,1,4,5,0,0,0
319604287,0,0.0,0.0,0.11789135,0.4241501,-0.041018914,2.259016e-05,-3.349781e-05,-0.36287126,-0.004524856,-0.009346084,-0.0051278328,-0.0046032458,0.0029474539,-0.00021841089,1.5556272e-05,3.955847,0.11624731,0.54259753,-3.104504,0.0,0.10569884,0.0051278328,0.0051372787,0.003613112,0.02577696,0.018007634,inf,inf,inf,inf,1,1,1,1,4,1,4,5,0,0,0
319700287,0,0.0,0.0,0.11760871,0.423396,-0.041627783,2.259016e-05,-3.349781e-05,-0.36287126,0.013505472,-0.0035767097,-0.008496676,-0.0076603554,0.0029474539,-0.00021841089,1.5556272e-05,1.2687535,0.79274523,0.16984805,-3.1049862,0.0,0.1063077,0.008496676,0.00506536,0.0035632476,0.025544038,0.017848238,inf,inf,inf,inf,1,1,1,1,4,1,4,5,0,0,0
319804289,0,0.0,0.0,0.11742055,0.42324856,-0.042027377,2.259016e-05,-3.349781e-05,-0.36287126,0.014875186,-0.014116895,-0.003122565,-0.0019747105,0.0029474539,-0.00021841089,1.5556272e-05,6.2943854,-5.5806675,-0.6608207,-3.1037283,0.0,0.1067073,0.003122565,0.0051324214,0.0036099295,0.025705546,0.017964374,inf,inf,inf,inf,1,1,1,1,4,1,4,5,0,0,0
319908275,0,0.0,0.0,0.11748689,0.42273548,-0.042356346,2.259016e-05,-3.349781e-05,-0.36287126,0.006037459,-0.017945865,0.0024656088,0.0038303137,0.0029474539,-0.00021841089,1.5556272e-05,2.8057764,-6.8984375,2.0245435,-3.1015809,0.0,0.10703626,-0.0024656088,0.0051912814,0.0036509568,0.025850322,0.01806246,inf,inf,inf,inf,1,1,1,1,4,1,4,5,0,0,0
320004298,0,0.0,0.0,0.11723826,0.42225355,-0.042405408,2.259016e-05,-3.349781e-05,-0.36287126,-0.019858815,0.006736132,-0.0155478055,-0.014026392,0.0029474539,-0.00021841089,1.5556272e-05,-3.594789,6.459554,-0.5423381,-3.1013768,0.0,0.10708533,0.0155478055,0.0051037907,0.003590202,0.025604788,0.017903777,inf,inf,inf,inf,1,1,1,1,4,1,4,5,0,0,0
320108272,0,0.0,0.0,0.11557633,0.42202538,-0.041998,2.259016e-05,-3.349781e-05,-0.36287126,-0.023412222,0.0044949995,0.0034569101,0.0051796227,0.0029474539,-0.00021841089,1.5556272e-05,4.376753,8.644458,0.121114254,-3.101979,0.0,0.10667792,-0.0034569101,0.0051910994,0.003650866,0.025879594,0.018082887,inf,inf,inf,inf,1,1,1,1,4,1,4,5,0,0,0
320212277,0,0.0,0.0,0.11379274,0.4221244,-0.041580014,2.259016e-05,-3.349781e-05,-0.36287126,-0.007076131,-0.00190667,-0.0036151065,-0.0016235034,0.0029474539,-0.00021841089,1.5556272e-05,3.7813294,2.4509892,1.6599128,-3.1021469,0.0,0.106259935,0.0036151065,0.0052695856,0.0037055193,0.026089298,0.018229345,inf,inf,inf,inf,1,1,1,1,4,1,4,5,0,0,0
320308269,0,0.0,0.0,0.1132176,0.4219449,-0.04158235,2.259016e-05,-3.349781e-05,-0.36287126,-0.015733609,0.0011334508,-0.01570269,-0.013550203,0.0029474539,-0.00021841089,1.5556272e-05,-5.1600266,4.237301,-0.41946822,-3.1003158,0.0,0.10626227,0.01570269,0.00518798,0.003648967,0.025851922,0.01807082,inf,inf,inf,inf,1,1,1,1,4,1,4,5,0,0,0
320412269,0,0.0,0.0,0.112769894,0.42178726,-0.041554384,2.259016e-05,-3.349781e-05,-0.36287126,-0.010568152,0.01680045,-0.0012831687,0.0008221119,0.0029474539,-0.00021841089,1.5556272e-05,3.897644,3.8385675,1.6586246,-3.0992858,0.0,0.106234305,0.0012831687,0.0052674776,0.0037040275,0.02608393,0.018224005,inf,inf,inf,inf,1,1,1,1,4,1,4,5,0,0,0
320514713,0,0.0,0.0,0.11294735,0.42232087,-0.04217072,2.259016e-05,-3.349781e-05,-0.36287126,-0.012838634,0.0074505275,-0.009186434,-0.007260327,0.0029474539,-0.00021841089,1.5556272e-05,-5.234833,1.2085519,0.9677571,-3.0991766,0.0,0.10685064,0.009186434,0.0053682053,0.0037737936,0.02636133,0.018406175,inf,inf,inf,inf,1,1,1,1,4,1,4,5,0,0,0
320619472,0,0.0,0.0,0.11442233,0.4224187,-0.043139532,2.259016e-05,-3.349781e-05,-0.36287126,0.010805158,-0.015143995,-0.0051946365,-0.0034718467,0.0029474539,-0.00021841089,1.5556272e-05,4.042644,-4.730727,-1.279417,-3.099282,0.0,0.10781945,0.0051946365,0.0054349755,0.0038201155,0.026509844,0.018504702,inf,inf,inf,inf,1,1,1,1,4,1,4,5,0,0,0
320715469,0,0.0,0.0,0.11637153,0.42231342,-0.04405105,2.259016e-05,-3.349781e-05,-0.36287126,-0.0031131539,-0.0001571436,-0.013940683,-0.012370303,0.0029474539,-0.00021841089,1.5556272e-05,-5.13874,1.1083319,1.2422771,-3.0990155,0.0,0.10873097,0.013940683,0.005355766,0.0037649686,0.026331905,0.018385855,inf,inf,inf,inf,1,1,1,1,4,1,4,5,0,0,0
320819477,0,0.0,0.0,0.11895249,0.4220317,-0.044878386,2.259016e-05,-3.349781e-05,-0.36287126,0.008166251,-0.007214651,-0.0028454193,-0.0013447802,0.0029474539,-0.00021841089,1.5556272e-05,0.48896295,-5.5946555,-0.52712905,-3.0992866,0.0,0.10955831,0.0028454193,0.0053978222,0.0037944613,0.026398906,0.0184341,inf,inf,inf,inf,1,1,1,1,4,1,4,5,0,0,0
320923498,0,0.0,0.0,0.12025642,0.42202175,-0.0453922,2.259016e-05,-3.349781e-05,-0.36287126,-0.007029885,-0.009357477,0.013643321,0.015185738,0.0029474539,-0.00021841089,1.5556272e-05,2.469898,-4.6037397,1.281169,-3.1007497,0.0,0.11007212,-0.013643321,0.005480345,0.003851589,0.026632415,0.018593919,inf,inf,inf,inf,1,1,1,1,4,1,4,5,0,0,0
321019480,0,0.0,0.0,0.11974759,0.42227352,-0.0455399,2.259016e-05,-3.349781e-05,-0.36287126,-0.01984188,0.01066768,-0.005683188,-0.003927194,0.0029474539,-0.00021841089,1.5556272e-05,-3.7802904,2.4417293,-0.108509034,-3.101469,0.0,0.11021982,0.005683188,0.0054011093,0.0037966743,0.02644897,0.01846606,inf,inf,inf,inf,1,1,1,1,4,1,4,5,0,0,0
321123475,0,0.0,0.0,0.11915537,0.4223294,-0.0453682,2.259016e-05,-3.349781e-05,-0.36287126,-0.005399694,-0.00770613,-0.0070187636,-0.004971694,0.0029474539,-0.00021841089,1.5556272e-05,-0.021667762,0.7649291,-1.5522192,-3.10228,0.0,0.110048115,0.0070187636,0.005112741,0.0035963347,0.025693828,0.017950786,inf,inf,inf,inf,1,1,1,1,4,1,4,5,0,0,0
321227489,0,0.0,0.0,0.119044825,0.42218977,-0.045543343,2.259016e-05,-3.349781e-05,-0.36287126,-0.0018339697,-0.00067593856,-0.012490449,-0.010249488,0.0029474539,-0.00021841089,1.5556272e-05,-0.40040627,3.709942,0.7894603,-3.1014044,0.0,0.11022326,0.012490449,0.0051855994,0.0036470164,0.02586897,0.018070083,inf,inf,inf,inf,1,1,1,1,4,1,4,5,0,0,0
321322674,0,0.0,0.0,0.119059555,0.42218822,-0.045697786,2.259016e-05,-3.349781e-05,-0.36287126,-0.0061068158,-0.017261295,-0.0033249178,-0.0010736731,0.0029474539,-0.00021841089,1.5556272e-05,-0.21504001,-2.8534405,0.30650884,-3.0995781,0.0,0.11037771,0.0033249178,0.005491278,0.0038593141,0.026655834,0.018605873,inf,inf,inf,inf,1,1,1,1,4,1,4,5,0,0,0
321426707,0,0.0,0.0,0.118738934,0.42168596,-0.045653984,2.259016e-05,-3.349781e-05,-0.36287126,-0.011012336,-0.008758587,-0.01023352,-0.008061971,0.0029474539,-0.00021841089,1.5556272e-05,-1.5903994,1.5570974,-1.8284329,-3.0974965,0.0,0.110333905,0.01023352,0.00516353,0.0036314046,0.025787437,0.018012336,inf,inf,inf,inf,1,1,1,1,4,1,4,5,0,0,0
321530697,0,0.0,0.0,0.1177395,0.42080635,-0.04526792,2.259016e-05,-3.349781e-05,-0.36287126,-0.023101626,0.00053734245,-0.0003904464,0.001774642,0.0029474539,-0.00021841089,1.5556272e-05,-2.1191857,2.126993,-0.59286565,-3.098019,0.0,0.109947845,0.0003904464,0.0052654017,0.0037021954,0.026141122,0.018258257,inf,inf,inf,inf,1,1,1,1,4,1,4,5,0,0,0
321634668,0,0.0,0.0,0.11710514,0.4204076,-0.04507624,2.259016e-05,-3.349781e-05,-0.36287126,-0.013304417,-0.0032896479,-0.010651326,-0.008367207,0.0029474539,-0.00021841089,1.5556272e-05,-1.7415072,1.3715938,0.99437386,-3.0992966,0.0,0.10975616,0.010651326,0.0053148572,0.0037368964,0.026213627,0.018311057,inf,inf,inf,inf,1,1,1,1,4,1,4,5,0,0,0
321730669,0,0.0,0.0,0.11746264,0.4211179,-0.04575416,2.259016e-05,-3.349781e-05,-0.36287126,0.0028961492,0.00018025737,-0.019620264,-0.017252835,0.0029474539,-0.00021841089,1.5556272e-05,-0.45299914,0.11004231,-2.4616961,-3.0994604,0.0,0.110434085,0.019620264,0.005257965,0.0036972917,0.026067019,0.018219376,inf,inf,inf,inf,1,1,1,1,4,1,4,5,0,0,0
321834671,0,0.0,0.0,0.11932996,0.42159784,-0.04662891,2.259016e-05,-3.349781e-05,-0.36287126,0.007323903,0.004646133,-0.002738015,-0.0005504174,0.0029474539,-0.00021841089,1.5556272e-05,-1.2066624,2.9543715,3.5814,-3.097412,0.0,0.11130883,0.002738015,0.0053192377,0.0037397495,0.026231408,0.01830517,inf,inf,inf,inf,1,1,1,1,4,1,4,5,0,0,0
321938690,0,0.0,0.0,0.12187411,0.4224008,-0.047770876,2.259016e-05,-3.349781e-05,-0.36287126,0.015856264,-0.008998427,-0.019641444,-0.017756289,0.0029474539,-0.00021841089,1.5556272e-05,0.6859125,-2.2630587,-2.4637182,-3.0938716,0.0,0.11245079,0.019641444,0.005412297,0.0038037223,0.026479214,0.018481793,inf,inf,inf,inf,1,1,1,1,4,1,4,5,0,0,0
322033869,0,0.0,0.0,0.124761775,0.42270583,-0.048877236,2.259016e-05,-3.349781e-05,-0.36287126,0.023530213,0.00075944234,-0.012649914,-0.010964565,0.0029474539,-0.00021841089,1.5556272e-05,1.2792425,1.1520092,-0.9291031,-3.085007,0.0,0.11355716,0.012649914,0.0053199125,0.0037396247,0.026231954,0.018301766,inf,inf,inf,inf,1,1,1,1,4,1,4,5,0,0,0
322141869,0,0.0,0.0,0.12789647,0.42304778,-0.04979826,2.259016e-05,-3.349781e-05,-0.36287126,0.017614959,0.005752987,-0.009904449,-0.008315992,0.0029474539,-0.00021841089,1.5556272e-05,1.8308071,5.9652963,1.9175613,-3.073714,0.0,0.114478186,0.009904449,0.0053807143,0.0037817273,0.026383854,0.018412538,inf,inf,inf,inf,1,1,1,1,4,1,4,5,0,0,0
322237869,0,0.0,0.0,0.13072664,0.4228657,-0.05031162,2.259016e-05,-3.349781e-05,-0.36287126,0.021627702,-0.011399451,-0.016206402,-0.014542072,0.0029474539,-0.00021841089,1.5556272e-05,-2.5023158,-5.080913,-0.7518763,-3.0633998,0.0,0.114991546,0.016206402,0.0053477096,0.0037588142,0.026373195,0.01841432,inf,inf,inf,inf,1,1,1,1,4,1,4,5,0,0,0
322341869,0,0.0,0.0,0.13419877,0.42215943,-0.05148154,2.259016e-05,-3.349781e-05,-0.36287126,0.032218464,0.004261091,-0.016160928,-0.014364986,0.0029474539,-0.00021841089,1.5556272e-05,0.7830978,-1.4238153,1.093094,-3.0509605,0.0,0.116161466,0.016160928,0.0055003236,0.003863956,0.026862135,0.018729363,inf,inf,inf,inf,1,1,1,1,4,1,4,5,0,0,0
322445882,0,0.0,0.0,0.13926986,0.4234723,-0.053793915,2.259016e-05,-3.349781e-05,-0.36287126,0.06123145,0.033832945,-0.026180638,-0.0244414,0.0029474539,-0.00021841089,1.5556272e-05,0.036441687,1.7486904,0.19033185,-3.0382013,0.0,0.118473835,0.026180638,0.0051553072,0.0036244018,0.025835082,0.018025823,inf,inf,inf,inf,1,1,1,1,4,1,4,5,0,0,0
322541881,0,0.0,0.0,0.14591973,0.42712325,-0.05643172,2.259016e-05,-3.349781e-05,-0.36287126,0.08032843,0.05469013,-0.028036151,-0.02668254,0.0029474539,-0.00021841089,1.5556272e-05,2.1771767,-1.8091364,0.05629105,-3.0262418,0.0,0.12111164,0.028036151,0.005422062,0.0038092479,0.026500368,0.01846833,inf,inf,inf,inf,1,1,1,1,4,1,4,5,0,0,0
322645869,0,0.0,0.0,0.15597378,0.4346968,-0.059746265,2.259016e-05,-3.349781e-05,-0.36287126,0.102449216,0.09729816,-0.028388187,-0.027621161,0.0029474539,-0.00021841089,1.5556272e-05,0.36732048,0.21680042,-1.8328162,-3.0162115,0.0,0.124426186,0.028388187,0.0051193577,0.0035985487,0.02572048,0.017942159,inf,inf,inf,inf,1,1,1,1,4,1,4,5,0,0,0
322749869,0,0.0,0.0,0.17102838,0.4484185,-0.06188871,2.259016e-05,-3.349781e-05,-0.36287126,0.14618854,0.14956689,-0.013022193,-0.012612625,0.0029474539,-0.00021841089,1.5556272e-05,-1.1767014,3.778148,-1.0137969,-3.0135257,0.0,0.12656863,0.013022193,0.0051885154,0.0036464373,0.025903152,0.018064585,inf,inf,inf,inf,1,1,1,1,4,1,4,5,0,0,0
322845869,0,0.0,0.0,0.19017172,0.4674235,-0.06081871,2.259016e-05,-3.349781e-05,-0.36287126,0.19963759,0.19843133,0.022441546,0.023110216,0.0029474539,-0.00021841089,1.5556272e-05,0.59492856,0.5566932,-0.88816416,-3.016717,0.0,0.12549862,-0.022441546,0.005138427,0.0036116613,0.02579005,0.01800085,inf,inf,inf,inf,1,1,1,1,4,1,4,5,0,0,0
322949071,0,0.0,0.0,0.21591088,0.49580234,-0.055835806,2.259016e-05,-3.349781e-05,-0.36287126,0.20901671,0.24809426,0.0378958,0.039908487,0.0029474539,-0.00021841089,1.5556272e-05,-1.5065736,0.6623842,-0.30244094,-3.0236645,0.0,0.12051573,-0.0378958,0.0052483743,0.0036885866,0.026069714,0.01821424,inf,inf,inf,inf,1,1,1,1,4,1,4,5,0,0,0
323053119,0,0.0,0.0,0.24224599,0.52848214,-0.051448688,2.259016e-05,-3.349781e-05,-0.36287126,0.19692805,0.26468745,0.012348627,0.016533054,0.0029474539,-0.00021841089,1.5556272e-05,1.106769,-1.0263112,0.8088583,-3.0267477,0.0,0.11612861,-0.012348627,0.005317218,0.003738361,0.026200343,0.018316705,inf,inf,inf,inf,1,1,1,1,4,1,4,5,0,0,0
323157080,0,0.0,0.0,0.2677299,0.56619173,-0.047210045,2.259016e-05,-3.349781e-05,-0.36287126,0.1985787,0.33607715,0.01975202,0.025258137,0.0029474539,-0.00021841089,1.5556272e-05,1.799899,4.8739076,-0.16059828,-3.032236,0.0,0.111889966,-0.01975202,0.005357229,0.003767518,0.026311757,0.018371476,inf,inf,inf,inf,1,1,1,1,4,1,4,5,0,0,0
323253095,0,0.0,0.0,0.28891146,0.60478264,-0.044786356,2.259016e-05,-3.349781e-05,-0.36287126,0.18115477,0.34211537,0.003176512,0.008504857,0.0029474539,-0.00021841089,1.5556272e-05,-0.90094566,-0.34610647,-0.18158431,-3.040647,0.0,0.10946628,-0.003176512,0.0052910824,0.0037202958,0.026170934,0.018260628,inf,inf,inf,inf,1,1,1,1,4,1,4,5,0,0,0
323357069,0,0.0,0.0,0.30988017,0.64799577,-0.04511152,2.259016e-05,-3.349781e-05,-0.36287126,0.1789602,0.40149063,-0.0003882622,0.0037441694,0.0029474539,-0.00021841089,1.5556272e-05,1.6473203,2.7646155,0.14117853,-3.0549293,0.0,0.10979144,0.0003882622,0.005365413,0.0037711833,0.02635925,0.018385671,inf,inf,inf,inf,1,1,1,1,4,1,4,5,0,0,0
323461077,0,0.0,0.0,0.32650402,0.6939558,-0.045126263,2.259016e-05,-3.349781e-05,-0.36287126,0.15465645,0.42717543,0.005289706,0.0075229094,0.0029474539,-0.00021841089,1.5556272e-05,-1.0213579,2.9900897,-0.37593514,-3.0730956,0.0,0.10980618,-0.005289706,0.0054340037,0.0038177378,0.02654162,0.018499099,inf,inf,inf,inf,1,1,1,1,4,1,4,5,0,0,0
323565082,0,0.0,0.0,0.33945674,0.7397636,-0.045102026,2.259016e-05,-3.349781e-05,-0.36287126,0.14615265,0.44048965,0.0028060225,0.0035220755,0.0029474539,-0.00021841089,1.5556272e-05,-1.2918468,1.4679736,-2.543089,-3.0901098,0.0,0.10978195,-0.0028060225,0.005124883,0.0036027809,0.02571386,0.017950673,inf,inf,inf,inf,1,1,1,1,4,1,4,5,0,0,0
323661091,0,0.0,0.0,0.34881872,0.78260887,-0.045591902,2.259016e-05,-3.349781e-05,-0.36287126,0.11930221,0.46650374,0.0046300623,0.004843736,0.0029474539,-0.00021841089,1.5556272e-05,-3.384062,-2.2999303,-0.604297,-3.1073728,0.0,0.11027183,-0.0046300623,0.005457354,0.003834164,0.026606662,0.018575871,inf,inf,inf,inf,1,1,1,1,4,1,4,5,0,0,0
323764269,0,0.0,0.0,0.35627407,0.8288907,-0.045405738,2.259016e-05,-3.349781e-05,-0.36287126,0.107615106,0.474027,0.0084968405,0.008651816,0.0029474539,-0.00021841089,1.5556272e-05,-1.4947269,4.074702,-0.6917622,-3.126779,0.0,0.11008566,-0.0084968405,0.0051349318,0.003611181,0.025714854,0.017968925,inf,inf,inf,inf,1,1,1,1,4,1,4,5,0,0,0
323868278,0,0.0,0.0,0.3618411,0.8736324,-0.045395933,2.259016e-05,-3.349781e-05,-0.36287126,0.10487186,0.44317105,-0.0016162726,-0.0012675341,0.0029474539,-0.00021841089,1.5556272e-05,3.828474,0.082624584,1.186995,3.1366534,0.0,0.110075854,0.0016162726,0.005180244,0.003643126,0.02582243,0.01804028,inf,inf,inf,inf,1,1,1,1,4,1,4,5,0,0,0
323972269,0,0.0,0.0,0.3663613,0.91393304,-0.046948645,2.259016e-05,-3.349781e-05,-0.36287126,0.07841319,0.40200594,-0.014517034,-0.014007926,0.0029474539,-0.00021841089,1.5556272e-05,0.31176293,2.4969397,-1.0792688,3.1105542,0.0,0.11162856,0.014517034,0.005260807,0.0036994976,0.026055697,0.018203307,inf,inf,inf,inf,1,1,1,1,4,1,4,5,0,0,0
324068281,0,0.0,0.0,0.36927077,0.9471163,-0.04765808,2.259016e-05,-3.349781e-05,-0.36287126,0.07141018,0.36476377,-0.00085644453,-0.0006353871,0.0029474539,-0.00021841089,1.5556272e-05,2.4170263,-0.01952553,-0.2769985,3.0825038,0.0,0.112338,0.00085644453,0.005182411,0.0036445842,0.025864402,0.018052949,inf,inf,inf,inf,1,1,1,1,4,1,4,5,0,0,0
324172275,0,0.0,0.0,0.3711914,0.9756368,-0.048363585,2.259016e-05,-3.349781e-05,-0.36287126,0.038283173,0.27533403,-0.005130203,-0.0052822703,0.0029474539,-0.00021841089,1.5556272e-05,-0.9749138,-6.447002,0.8317315,3.053311,0.0,0.1130435,0.005130203,0.0052655563,0.003701545,0.026104385,0.018222174,inf,inf,inf,inf,1,1,1,1,4,1,4,5,0,0,0
324276293,0,0.0,0.0,0.37168044,0.99357253,-0.04998655,2.259016e-05,-3.349781e-05,-0.36287126,0.023909464,0.19884881,-0.0078384485,-0.008122716,0.0029474539,-0.00021841089,1.5556272e-05,1.1335878,-0.5395008,0.704366,3.0240293,0.0,0.11466647,0.0078384485,0.005335826,0.0037501692,0.026278133,0.018331306,inf,inf,inf,inf,1,1,1,1,4,1,4,5,0,0,0
324372269,0,0.0,0.0,0.36966065,0.9989703,-0.050868113,2.259016e-05,-3.349781e-05,-0.36287126,-0.0027824356,0.103294544,-0.010149398,-0.01052125,0.0029474539,-0.00021841089,1.5556272e-05,-0.9891816,0.30711055,-0.027175687,3.0021448,0.0,0.11554803,0.010149398,0.0052309637,0.0036770634,0.025983747,0.018116795,inf,inf,inf,inf,1,1,1,1,4,1,4,5,0,0,0
324476275,0,0.0,0.0,0.36498296,0.9919099,-0.050559998,2.259016e-05,-3.349781e-05,-0.36287126,-0.038523357,-0.02064905,0.022065958,0.02165427,0.0029474539,-0.00021841089,1.5556272e-05,-2.0238206,-0.031764604,3.214803,2.987467,0.0,0.11523992,-0.022065958,0.0053373775,0.0037498076,0.026359033,0.018359339,inf,inf,inf,inf,1,1,1,1,4,1,4,5,0,0,0
324578713,0,0.0,0.0,0.3592705,0.97212344,-0.051445097,2.259016e-05,-3.349781e-05,-0.36287126,-0.02332075,-0.11624712,-0.020142859,-0.020444635,0.0029474539,-0.00021841089,1.5556272e-05,-0.55080533,1.0615789,-2.5278194,2.9860494,0.0,0.11612502,0.020142859,0.0054251007,0.0038097075,0.026580436,0.018506747,inf,inf,inf,inf,1,1,1,1,4,1,4,5,0,0,0
324683475,0,0.0,0.0,0.35340667,0.9438639,-0.052886095,2.259016e-05,-3.349781e-05,-0.36287126,-0.0492046,-0.16299334,-0.0056936806,-0.0061619394,0.0029474539,-0.00021841089,1.5556272e-05,-0.68157166,2.004665,2.9684772,2.9896274,0.0,0.11756602,0.0056936806,0.005099866,0.0035838035,0.025695441,0.017905189,inf,inf,inf,inf,1,1,1,1,4,1,4,5,0,0,0
324787474,0,0.0,0.0,0.3460127,0.9108091,-0.053271532,2.259016e-05,-3.349781e-05,-0.36287126,-0.07424289,-0.22282471,0.0057377415,0.004507667,0.0029474539,-0.00021841089,1.5556272e-05,0.15242146,0.21748613,-2.3244586,3.0014215,0.0,0.11795145,-0.0057377415,0.0051858267,0.0036419139,0.025975205,0.018069869,inf,inf,inf,inf,1,1,1,1,4,1,4,5,0,0,0
324891468,0,0.0,0.0,0.33653742,0.8756357,-0.05286676,2.259016e-05,-3.349781e-05,-0.36287126,-0.115623176,-0.25766018,0.02086059,0.019042049,0.0029474539,-0.00021841089,1.5556272e-05,-3.3937669,-2.663897,-0.73966515,3.0241988,0.0,0.11754668,-0.02086059,0.005273493,0.003701781,0.026179688,0.018229494,inf,inf,inf,inf,1,1,1,1,4,1,4,5,0,0,0
324995469,0,0.0,0.0,0.32373214,0.84304047,-0.050795853,2.259016e-05,-3.349781e-05,-0.36287126,-0.14590544,-0.24655682,0.033150453,0.03135333,0.0029474539,-0.00021841089,1.5556272e-05,1.3368438,-0.69905585,0.17776093,3.0558245,0.0,0.115475774,-0.033150453,0.0053629447,0.0037642422,0.026422242,0.018389221,inf,inf,inf,inf,1,1,1,1,4,1,4,5,0,0,0
325091474,0,0.0,0.0,0.30853662,0.816528,-0.04828056,2.259016e-05,-3.349781e-05,-0.36287126,-0.16806237,-0.23441806,0.018799974,0.01749293,0.0029474539,-0.00021841089,1.5556272e-05,-0.46678993,-1.1917831,-1.1737354,3.0830402,0.0,0.11296048,-0.018799974,0.005283244,0.003710092,0.026162518,0.018242285,inf,inf,inf,inf,1,1,1,1,4,1,4,5,0,0,0
325195469,0,0.0,0.0,0.2906599,0.79351175,-0.047548894,2.259016e-05,-3.349781e-05,-0.36287126,-0.16277847,-0.17482728,-0.009583947,-0.010277208,0.0029474539,-0.00021841089,1.5556272e-05,-0.8821903,2.2928495,-0.6139437,3.1017718,0.0,0.11222881,0.009583947,0.0053276382,0.0037425065,0.026216198,0.018298095,inf,inf,inf,inf,1,1,1,1,4,1,4,5,0,0,0
325298679,0,0.0,0.0,0.27164128,0.7771587,-0.04762543,2.259016e-05,-3.349781e-05,-0.36287126,-0.18734989,-0.13262811,0.0151149575,0.014253997,0.0029474539,-0.00021841089,1.5556272e-05,-2.3536308,1.7392749,2.0001218,3.1136086,0.0,0.11230535,-0.0151149575,0.00543064,0.0038145399,0.026570126,0.018524077,inf,inf,inf,inf,1,1,1,1,4,1,4,5,0,0,0
325394684,0,0.0,0.0,0.2526155,0.7682338,-0.04627691,2.259016e-05,-3.349781e-05,-0.36287126,-0.1926825,-0.08925524,0.024525566,0.022889875,0.0029474539,-0.00021841089,1.5556272e-05,-2.3229742,0.8890448,-0.41626066,3.1228247,0.0,0.11095683,-0.024525566,0.0053304876,0.0037451084,0.026298234,0.01833086,inf,inf,inf,inf,1,1,1,1,4,1,4,5,0,0,0
325498682,0,0.0,0.0,0.23202328,0.76596785,-0.044011243,2.259016e-05,-3.349781e-05,-0.36287126,-0.18536767,-0.07026093,0.036651958,0.034528513,0.0029474539,-0.00021841089,1.5556272e-05,-0.8861088,-3.1174712,1.6332479,3.130938,0.0,0.10869116,-0.036651958,0.00538554,0.003784198,0.026369546,0.018412918,inf,inf,inf,inf,1,1,1,1,4,1,4,5,0,0,0
325602682,0,0.0,0.0,0.21398786,0.7714461,-0.041111395,2.259016e-05,-3.349781e-05,-0.36287126,-0.14079468,-0.00232218,0.019362424,0.01737755,0.0029474539,-0.00021841089,1.5556272e-05,3.7055771,2.5518692,-1.5920092,3.137457,0.0,0.105791315,-0.019362424,0.0054596667,0.0038370471,0.026581317,0.01857124,inf,inf,inf,inf,1,1,1,1,4,1,4,5,0,0,0
325698669,0,0.0,0.0,0.20286535,0.78198385,-0.04133759,2.259016e-05,-3.349781e-05,-0.36287126,-0.10635719,0.024821896,-0.007949265,-0.009685593,0.0029474539,-0.00021841089,1.5556272e-05,1.1577939,4.0177164,0.13084796,-3.1409698,0.0,0.106017515,0.007949265,0.00537134,0.0037766155,0.026349343,0.018412983,inf,inf,inf,inf,1,1,1,1,4,1,4,5,0,0,0
325802670,0,0.0,0.0,0.1957361,0.79686105,-0.043172788,2.259016e-05,-3.349781e-05,-0.36287126,-0.08513974,0.038323995,-0.00066419534,-0.0030472642,0.0029474539,-0.00021841089,1.5556272e-05,2.6294053,-3.7175777,2.9454682,-3.1347594,0.0,0.10785271,0.00066419534,0.0054553486,0.0038348746,0.026635645,0.018581731,inf,inf,inf,inf,1,1,1,1,4,1,4,5,0,0,0
325906669,0,0.0,0.0,0.1928049,0.8114596,-0.04594552,2.259016e-05,-3.349781e-05,-0.36287126,-0.062351793,0.032333605,-0.014504899,-0.018501796,0.0029474539,-0.00021841089,1.5556272e-05,-0.22116785,0.18024059,-3.3238816,-3.1341622,0.0,0.110625446,0.014504899,0.0051507642,0.0036217768,0.025839482,0.018025488,inf,inf,inf,inf,1,1,1,1,4,1,4,5,0,0,0
326002669,0,0.0,0.0,0.1917676,0.82475257,-0.04826453,2.259016e-05,-3.349781e-05,-0.36287126,-0.05738252,0.045297936,0.005040243,-0.0003585429,0.0029474539,-0.00021841089,1.5556272e-05,2.8126287,-2.047179,0.0006642933,-3.140513,0.0,0.112944454,-0.005040243,0.00510626,0.003590224,0.025722487,0.017961448,inf,inf,inf,inf,1,1,1,1,4,1,4,5,0,0,0
326109869,0,0.0,0.0,0.1908677,0.8367612,-0.048892245,2.259016e-05,-3.349781e-05,-0.36287126,-0.048892263,0.041782387,0.030011421,0.02389188,0.0029474539,-0.00021841089,1.5556272e-05,2.3497841,1.1665363,1.2847753,3.1317816,0.0,0.113572165,-0.030011421,0.0051861964,0.0036460496,0.025901759,0.018088343,inf,inf,inf,inf,1,1,1,1,4,1,4,5,0,0,0
326205869,0,0.0,0.0,0.18983452,0.8442342,-0.04652436,2.259016e-05,-3.349781e-05,-0.36287126,-0.035034046,0.011361075,0.030690726,0.024973812,0.0029474539,-0.00021841089,1.5556272e-05,2.035629,-1.874824,0.5746708,3.1226296,0.0,0.11120428,-0.030690726,0.0051530893,0.0036236385,0.025815412,0.018051844,inf,inf,inf,inf,1,1,1,1,4,1,4,5,0,0,0
326309875,0,0.0,0.0,0.19236265,0.8480085,-0.04716459,2.259016e-05,-3.349781e-05,-0.36287126,-0.00016358678,-0.012381464,-0.010978374,-0.015306134,0.0029474539,-0.00021841089,1.5556272e-05,-0.30767363,-1.7591295,-1.4522732,3.1158853,0.0,0.11184451,0.010978374,0.005255994,0.0036964773,0.026122345,0.018269058,inf,inf,inf,inf,1,1,1,1,4,1,4,5,0,0,0
326413869,0,0.0,0.0,0.19588311,0.8457034,-0.04802326,2.259016e-05,-3.349781e-05,-0.36287126,0.013288126,-0.038794734,-0.0009584258,-0.0046705077,0.0029474539,-0.00021841089,1.5556272e-05,0.29462618,-5.658756,-0.14141518,3.1102526,0.0,0.11270318,0.0009584258,0.0053337337,0.0037507592,0.026364015,0.018389579,inf,inf,inf,inf,1,1,1,1,4,1,4,5,0,0,0
326517893,0,0.0,0.0,0.20006567,0.8385868,-0.049582873,2.259016e-05,-3.349781e-05,-0.36287126,0.008374442,-0.04976517,0.009208766,0.004938371,0.0029474539,-0.00021841089,1.5556272e-05,-1.8073002,-0.6693038,3.23662,3.1056464,0.0,0.11426279,-0.009208766,0.0054059396,0.0037994543,0.02650785,0.01848543,inf,inf,inf,inf,1,1,1,1,4,1,4,5,0,0,0
326621869,0,0.0,0.0,0.20351525,0.82647574,-0.04972781,2.259016e-05,-3.349781e-05,-0.36287126,0.0063499063,-0.091162875,0.019992337,0.014961433,0.0029474539,-0.00021841089,1.5556272e-05,-2.9564595,-1.7624601,0.4479807,3.1058352,0.0,0.11440773,-0.019992337,0.0051000146,0.003586546,0.025672007,0.017921535,inf,inf,inf,inf,1,1,1,1,4,1,4,5,0,0,0
326717870,0,0.0,0.0,0.20567505,0.81134784,-0.047945395,2.259016e-05,-3.349781e-05,-0.36287126,0.008888372,-0.13290185,0.028384034,0.02324003,0.0029474539,-0.00021841089,1.5556272e-05,-1.3825289,-0.27794853,-1.3125805,3.1086705,0.0,0.112625316,-0.028384034,0.005370852,0.0037751512,0.026317766,0.01838589,inf,inf,inf,inf,1,1,1,1,4,1,4,5,0,0,0
326821869,0,0.0,0.0,0.20663558,0.79402125,-0.049459286,2.259016e-05,-3.349781e-05,-0.36287126,0.013769782,-0.11175646,-0.015715877,-0.02004348,0.0029474539,-0.00021841089,1.5556272e-05,2.8912332,-1.6544691,1.3567356,3.1139572,0.0,0.11413921,0.015715877,0.0050829216,0.0035759895,0.025592867,0.017903022,inf,inf,inf,inf,1,1,1,1,4,1,4,5,0,0,0
326925869,0,0.0,0.0,0.20523457,0.7770354,-0.050978933,2.259016e-05,-3.349781e-05,-0.36287126,-0.0043165637,-0.12685046,0.002592988,-0.0013782802,0.0029474539,-0.00021841089,1.5556272e-05,-1.7598655,-2.3813136,1.0951476,3.1249244,0.0,0.11565885,-0.002592988,0.0051561682,0.0036275685,0.025847683,0.01804334,inf,inf,inf,inf,1,1,1,1,4,1,4,5,0,0,0
327029069,0,0.0,0.0,0.20169087,0.757723,-0.05002343,2.259016e-05,-3.349781e-05,-0.36287126,-0.012557549,-0.17579298,0.0232584,0.018914076,0.0029474539,-0.00021841089,1.5556272e-05,0.26637205,-3.0422552,1.9742295,3.1385756,0.0,0.11470335,-0.0232584,0.0052197645,0.003670491,0.025961708,0.018127708,inf,inf,inf,inf,1,1,1,1,4,1,4,5,0,0,0
327133068,0,0.0,0.0,0.19714923,0.7403199,-0.050072104,2.259016e-05,-3.349781e-05,-0.36287126,-0.014342674,-0.14410871,0.010764269,0.0067286273,0.0029474539,-0.00021841089,1.5556272e-05,3.5066662,-2.5983093,-0.50672334,-3.13694,0.0,0.114752024,-0.010764269,0.0052867103,0.0037172835,0.026106903,0.01825819,inf,inf,inf,inf,1,1,1,1,4,1,4,5,0,0,0
327229068,0,0.0,0.0,0.19094692,0.7250352,-0.050030023,2.259016e-05,-3.349781e-05,-0.36287126,-0.049510695,-0.13666971,0.0012271209,-0.0022037001,0.0029474539,-0.00021841089,1.5556272e-05,-0.04630381,1.4003078,1.999765,-3.1278446,0.0,0.11470994,-0.0012271209,0.0052309437,0.0036794392,0.02602375,0.018191686,inf,inf,inf,inf,1,1,1,1,4,1,4,5,0,0,0
327333088,0,0.0,0.0,0.18288204,0.70876026,-0.050836112,2.259016e-05,-3.349781e-05,-0.36287126,-0.050566506,-0.15134265,-0.01182956,-0.014844641,0.0029474539,-0.00021841089,1.5556272e-05,3.2614818,-1.4987844,-0.67014784,-3.1201768,0.0,0.11551604,0.01182956,0.0052876836,0.0037189357,0.026110424,0.018249454,inf,inf,inf,inf,1,1,1,1,4,1,4,5,0,0,0
327437073,0,0.0,0.0,0.17320277,0.6937459,-0.052364413,2.259016e-05,-3.349781e-05,-0.36287126,-0.07998127,-0.12917359,-0.02433007,-0.027182885,0.0029474539,-0.00021841089,1.5556272e-05,-2.2954943,2.36526,-1.0909623,-3.1149204,0.0,0.11704433,0.02433007,0.0053455043,0.0037588116,0.026283184,0.01835014,inf,inf,inf,inf,1,1,1,1,4,1,4,5,0,0,0
327533074,0,0.0,0.0,0.16344656,0.68052274,-0.055022433,2.259016e-05,-3.349781e-05,-0.36287126,-0.093013436,-0.12638372,-0.028540965,-0.031411085,0.0029474539,-0.00021841089,1.5556272e-05,-0.012162556,3.8850489,0.87117916,-3.1125314,0.0,0.119702354,0.028540965,0.0052855867,0.003716421,0.026155481,0.018266449,inf,inf,inf,inf,1,1,1,1,4,1,4,5,0,0,0
327637098,0,0.0,0.0,0.1511387,0.66706985,-0.057322197,2.259016e-05,-3.349781e-05,-0.36287126,-0.11825898,-0.13422903,-0.002349688,-0.00536936,0.0029474539,-0.00021841089,1.5556272e-05,1.4737209,-2.331618,1.1985035,-3.1074562,0.0,0.12200212,0.002349688,0.0053641316,0.0037705607,0.026369654,0.01840037,inf,inf,inf,inf,1,1,1,1,4,1,4,5,0,0,0
327740301,0,0.0,0.0,0.13640173,0.6525892,-0.057716247,2.259016e-05,-3.349781e-05,-0.36287126,-0.14609729,-0.15934072,0.0021723597,-0.000747882,0.0029474539,-0.00021841089,1.5556272e-05,0.51666987,1.1936345,0.039630022,-3.1009028,0.0,0.12239617,-0.0021723597,0.0054337108,0.0038185078,0.026522094,0.018513406,inf,inf,inf,inf,1,1,1,1,4,1,4,5,0,0,0
327844268,0,0.0,0.0,0.11962836,0.6387529,-0.057304014,2.259016e-05,-3.349781e-05,-0.36287126,-0.1624093,-0.13517796,0.0074786986,0.0054380153,0.0029474539,-0.00021841089,1.5556272e-05,1.2819437,0.31400532,1.7168121,-3.0987985,0.0,0.12198393,-0.0074786986,0.005482389,0.0038531378,0.026591232,0.018579492,inf,inf,inf,inf,1,1,1,1,4,1,4,5,0,0,0
327940269,0,0.0,0.0,0.10211394,0.6253126,-0.056167286,2.259016e-05,-3.349781e-05,-0.36287126,-0.19233446,-0.13478558,0.0013290052,0.00044164,0.0029474539,-0.00021841089,1.5556272e-05,-2.7385955,3.5909061,0.19498815,-3.0997615,0.0,0.12084721,-0.0013290052,0.005382159,0.0037845445,0.02634949,0.018416483,inf,inf,inf,inf,1,1,1,1,4,1,4,5,0,0,0
328044293,0,0.0,0.0,0.08127257,0.6110573,-0.05533107,2.259016e-05,-3.349781e-05,-0.36287126,-0.18939696,-0.14128582,-0.007072637,-0.006839409,0.0029474539,-0.00021841089,1.5556272e-05,1.3887482,-2.1129625,-0.5540878,-3.105246,0.0,0.12001099,0.007072637,0.0051218616,0.003603415,0.025744377,0.01800027,inf,inf,inf,inf,1,1,1,1,4,1,4,5,0,0,0
328148269,0,0.0,0.0,0.05893452,0.59796786,-0.055299778,2.259016e-05,-3.349781e-05,-0.36287126,-0.19381404,-0.114201374,-0.014793491,-0.013985669,0.0029474539,-0.00021841089,1.5556272e-05,3.401917,1.5880815,-1.4639884,-3.1094341,0.0,0.119979694,0.014793491,0.0052080825,0.003663354,0.025955169,0.01813424,inf,inf,inf,inf,1,1,1,1,4,1,4,5,0,0,0
328252275,0,0.0,0.0,0.03625022,0.58640325,-0.057543773,2.259016e-05,-3.349781e-05,-0.36287126,-0.21393417,-0.104696214,-0.037323363,-0.036637563,0.0029474539,-0.00021841089,1.5556272e-05,-3.7641783,-2.7735338,2.0593045,-3.114743,0.0,0.12222369,0.037323363,0.005279939,0.0037126448,0.026140995,0.01824314,inf,inf,inf,inf,1,1,1,1,4,1,4,5,0,0,0
328348301,0,0.0,0.0,0.015255344,0.5779941,-0.06301313,2.259016e-05,-3.349781e-05,-0.36287126,-0.22847416,-0.05755266,-0.06492524,-0.06496567,0.0029474539,-0.00021841089,1.5556272e-05,-6.757292,1.4366096,2.6858764,-3.1188862,0.0,0.12769306,0.06492524,0.005193787,0.0036523058,0.025893813,0.018075425,inf,inf,inf,inf,1,1,1,1,4,1,4,5,0,0,0
328452283,0,0.0,0.0,-0.0061870376,0.5728734,-0.07346922,2.259016e-05,-3.349781e-05,-0.36287126,-0.19129358,-0.036519162,-0.10759602,-0.109260865,0.0029474539,-0.00021841089,1.5556272e-05,-1.4146408,0.06756556,-3.016426,-3.122968,0.0,0.13814914,0.10759602,0.0052767545,0.003708703,0.02618181,0.018254435,inf,inf,inf,inf,1,1,1,1,4,1,4,5,0,0,0
328555505,0,0.0,0.0,-0.025572332,0.5718439,-0.08757273,2.259016e-05,-3.349781e-05,-0.36287126,-0.18362518,0.0111947805,-0.1231594,-0.12707575,0.0029474539,-0.00021841089,1.5556272e-05,0.52731377,2.3425782,1.5726326,-3.1263533,0.0,0.15225264,0.1231594,0.0053119906,0.0037322394,0.02624412,0.018271513,inf,inf,inf,inf,1,1,1,1,4,1,4,5,0,0,0
328659469,0,0.0,0.0,-0.042551234,0.576638,-0.104089886,2.259016e-05,-3.349781e-05,-0.36287126,-0.16114156,0.040542327,-0.121036105,-0.12728432,0.0029474539,-0.00021841089,1.5556272e-05,1.1796548,-2.508675,0.7511367,-3.1292899,0.0,0.1687698,0.121036105,0.0053716083,0.003772405,0.026381645,0.018376203,inf,inf,inf,inf,1,1,1,1,4,1,4,5,0,0,0
328755468,0,0.0,0.0,-0.055571407,0.5863713,-0.119244754,2.259016e-05,-3.349781e-05,-0.36287126,-0.14135924,0.08839491,-0.12129201,-0.12896536,0.0029474539,-0.00021841089,1.5556272e-05,2.2181876,-0.06299213,-0.7873134,-3.131121,0.0,0.18392467,0.12129201,0.005295293,0.0037191126,0.026213087,0.018271433,inf,inf,inf,inf,1,1,1,1,4,1,4,5,0,0,0
328859489,0,0.0,0.0,-0.066914156,0.60159785,-0.13345005,2.259016e-05,-3.349781e-05,-0.36287126,-0.1245167,0.11930416,-0.10637839,-0.11418504,0.0029474539,-0.00021841089,1.5556272e-05,-3.6084287,1.22336,2.0855837,-3.1322577,0.0,0.19812997,0.10637839,0.0053911717,0.0037864458,0.02646056,0.018464908,inf,inf,inf,inf,1,1,1,1,4,1,4,5,0,0,0
328963469,0,0.0,0.0,-0.07537835,0.62127715,-0.14384371,2.259016e-05,-3.349781e-05,-0.36287126,-0.100984685,0.14907254,-0.07253397,-0.078787506,0.0029474539,-0.00021841089,1.5556272e-05,1.5183902,-3.2041159,-0.11362421,-3.1327455,0.0,0.20852363,0.07253397,0.0051119337,0.0035942544,0.025686564,0.017959895,inf,inf,inf,inf,1,1,1,1,4,1,4,5,0,0,0
329059469,0,0.0,0.0,-0.08170371,0.64207923,-0.14767924,2.259016e-05,-3.349781e-05,-0.36287126,-0.102909684,0.17369552,-0.025059937,-0.028574895,0.0029474539,-0.00021841089,1.5556272e-05,-2.2170274,-1.6648704,2.7637565,-3.1320415,0.0,0.21235916,0.025059937,0.005417033,0.0038081151,0.02645086,0.018500866,inf,inf,inf,inf,1,1,1,1,4,1,4,5,0,0,0
329163493,0,0.0,0.0,-0.08777048,0.66619515,-0.14507256,2.259016e-05,-3.349781e-05,-0.36287126,-0.08695514,0.17841159,0.011106924,0.011740435,0.0029474539,-0.00021841089,1.5556272e-05,-1.2118727,-0.22794843,-1.4024743,-3.1326013,0.0,0.20975249,-0.011106924,0.005134345,0.0036134156,0.025684288,0.018007845,inf,inf,inf,inf,1,1,1,1,4,1,4,5,0,0,0
329266668,0,0.0,0.0,-0.092979304,0.6898076,-0.1360778,2.259016e-05,-3.349781e-05,-0.36287126,-0.06682391,0.19444098,0.059727684,0.0650378,0.0029474539,-0.00021841089,1.5556272e-05,0.6123007,0.9154191,0.10684428,-3.1339169,0.0,0.20075773,-0.059727684,0.0051918733,0.0036557848,0.025782447,0.018084507,inf,inf,inf,inf,1,1,1,1,4,1,4,5,0,0,0
329362668,0,0.0,0.0,-0.096995205,0.71018744,-0.12308093,2.259016e-05,-3.349781e-05,-0.36287126,-0.06544649,0.18337862,0.08168702,0.09103733,0.0029474539,-0.00021841089,1.5556272e-05,-2.054529,-0.41771722,0.2142073,-3.1344028,0.0,0.18776086,-0.08168702,0.0050999946,0.003593166,0.025518391,0.017912375,inf,inf,inf,inf,1,1,1,1,4,1,4,5,0,0,0
329466672,0,0.0,0.0,-0.10076576,0.7293586,-0.105889566,2.259016e-05,-3.349781e-05,-0.36287126,-0.049469344,0.16986583,0.12023576,0.13278712,0.0029474539,-0.00021841089,1.5556272e-05,-0.92664796,0.41498363,0.21707538,-3.1350708,0.0,0.17056948,-0.12023576,0.0051415623,0.0036231922,0.025631791,0.01799072,inf,inf,inf,inf,1,1,1,1,4,1,4,5,0,0,0
329570668,0,0.0,0.0,-0.103722826,0.74360514,-0.08665053,2.259016e-05,-3.349781e-05,-0.36287126,-0.023320429,0.13245241,0.14385171,0.15792644,0.0029474539,-0.00021841089,1.5556272e-05,3.3101418,-4.920055,-0.19713636,-3.134223,0.0,0.15133044,-0.14385171,0.0051939893,0.0036598484,0.025784705,0.018089732,inf,inf,inf,inf,1,1,1,1,4,1,4,5,0,0,0
329674675,0,0.0,0.0,-0.10579967,0.7522628,-0.06733169,2.259016e-05,-3.349781e-05,-0.36287126,-0.012288611,0.09492849,0.14587688,0.15983035,0.0029474539,-0.00021841089,1.5556272e-05,1.1761535,1.4051675,-1.1391833,-3.1307411,0.0,0.1320116,-0.14587688,0.005297382,0.003731495,0.02613995,0.018319685,inf,inf,inf,inf,1,1,1,1,4,1,4,5,0,0,0
329770669,0,0.0,0.0,-0.10659601,0.7548389,-0.051323142,2.259016e-05,-3.349781e-05,-0.36287126,0.013065543,0.04805423,0.13772626,0.15029903,0.0029474539,-0.00021841089,1.5556272e-05,2.940022,-3.0499249,-0.49698448,-3.1287339,0.0,0.11600307,-0.13772626,0.0052481433,0.0036961695,0.026031205,0.018234333,inf,inf,inf,inf,1,1,1,1,4,1,4,5,0,0,0
329874669,0,0.0,0.0,-0.10547766,0.7521625,-0.03832585,2.259016e-05,-3.349781e-05,-0.36287126,0.024393806,0.02062288,0.095739596,0.10551596,0.0029474539,-0.00021841089,1.5556272e-05,0.014435497,0.33116394,-1.2842848,-3.1263876,0.0,0.10300577,-0.095739596,0.0053497795,0.0037657414,0.026335489,0.01841937,inf,inf,inf,inf,1,1,1,1,4,1,4,5,0,0,0
329978675,0,0.0,0.0,-0.10249541,0.74367124,-0.03183727,2.259016e-05,-3.349781e-05,-0.36287126,0.03077946,-0.013865776,0.06302737,0.06868541,0.0029474539,-0.00021841089,1.5556272e-05,2.2658484,0.9911122,0.1571733,-3.123102,0.0,0.1,-0.06302737,0.0053970995,0.0037969756,0.026433915,0.018454585,inf,inf,inf,inf,1,1,1,1,4,1,4,5,0,0,0
330073869,0,0.0,0.0,-0.098208085,0.7327276,-0.032853343,2.259016e-05,-3.349781e-05,-0.36287126,0.051579103,-0.036835272,0.013484262,0.014244435,0.0029474539,-0.00021841089,1.5556272e-05,2.2868865,-1.1883438,1.2951739,-3.1194324,0.0,0.1,-0.013484262,0.0053132344,0.0037361598,0.02627555,0.018308049,inf,inf,inf,inf,1,1,1,1,4,1,4,5,0,0,0
330177867,0,0.0,0.0,-0.09188588,0.7174085,-0.04063838,2.259016e-05,-3.349781e-05,-0.36287126,0.052883677,-0.08333414,-0.03350625,-0.038517125,0.0029474539,-0.00021841089,1.5556272e-05,0.2238809,2.3794856,-1.009841,-3.1137345,0.0,0.1053183,0.03350625,0.0053610853,0.003766773,0.026385091,0.018368574,inf,inf,inf,inf,1,1,1,1,4,1,4,5,0,0,0
330281875,0,0.0,0.0,-0.08532864,0.70060194,-0.05381423,2.259016e-05,-3.349781e-05,-0.36287126,0.049334113,-0.108022265,-0.071737215,-0.08224621,0.0029474539,-0.00021841089,1.5556272e-05,-5.0706873,-1.9166559,0.81032,-3.109975,0.0,0.11849415,0.071737215,0.005093843,0.0035789541,0.025764536,0.01793275,inf,inf,inf,inf,1,1,1,1,4,1,4,5,0,0,0
330377885,0,0.0,0.0,-0.07901506,0.6840554,-0.0699967,2.259016e-05,-3.349781e-05,-0.36287126,0.05745709,-0.12810846,-0.09915584,-0.11352458,0.0029474539,-0.00021841089,1.5556272e-05,-1.9871473,-0.074564315,0.9469892,-3.1064615,0.0,0.13467662,0.09915584,0.0054139025,0.003799436,0.026610153,0.018509513,inf,inf,inf,inf,1,1,1,1,4,1,4,5,0,0,0
330481881,0,0.0,0.0,-0.07186885,0.6655212,-0.08973355,2.259016e-05,-3.349781e-05,-0.36287126,0.06908,-0.1481202,-0.13450597,-0.1513313,0.0029474539,-0.00021841089,1.5556272e-05,-5.3160825,2.6270878,1.3810557,-3.1032531,0.0,0.15441346,0.13450597,0.0054993886,0.0038584683,0.026792048,0.01863618,inf,inf,inf,inf,1,1,1,1,4,1,4,5,0,0,0
330585886,0,0.0,0.0,-0.06468966,0.64678574,-0.10896927,2.259016e-05,-3.349781e-05,-0.36287126,0.09264185,-0.17691568,-0.1325317,-0.14986882,0.0029474539,-0.00021841089,1.5556272e-05,5.630875,-4.1056404,-1.5318611,-3.1005447,0.0,0.17364919,0.1325317,0.0051706186,0.0036315117,0.025887124,0.018034652,inf,inf,inf,inf,1,1,1,1,4,1,4,5,0,0,0
330689885,0,0.0,0.0,-0.057613324,0.6280108,-0.12616012,2.259016e-05,-3.349781e-05,-0.36287126,0.062103793,-0.16258352,-0.12509347,-0.14102884,0.0029474539,-0.00021841089,1.5556272e-05,-3.0412173,3.9937868,2.051012,-3.096259,0.0,0.19084004,0.12509347,0.0052143643,0.0036626759,0.02594491,0.018095307,inf,inf,inf,inf,1,1,1,1,4,1,4,5,0,0,0
330793869,0,0.0,0.0,-0.050577953,0.6097246,-0.13940391,2.259016e-05,-3.349781e-05,-0.36287126,0.08495346,-0.18147169,-0.11531586,-0.12810488,0.0029474539,-0.00021841089,1.5556272e-05,-2.6512558,0.14427784,-1.8023634,-3.0935638,0.0,0.20408383,0.11531586,0.0052768337,0.0037074846,0.026086627,0.018218148,inf,inf,inf,inf,1,1,1,1,4,1,4,5,0,0,0
