timestamp,x,y,z,yaw,yawspeed,vx,vy,vz,acc_x,acc_y,acc_z,jerk_x,jerk_y,jerk_z,thrust[0],thrust[1],thrust[2]
161327770,nan,nan,nan,-3.0467105,0.0,nan,nan,-0.41365474,0.0,0.0,0.0,0.0,0.0,0.0,-0.0041307868,-0.0003931184,-0.59540963
161347745,nan,nan,nan,-3.0467105,0.0,nan,nan,-0.41365474,0.0,0.0,0.0,0.0,0.0,0.0,-0.004054592,-0.00038586708,-0.59557515
161447820,nan,nan,nan,-3.0890777,0.0,-0.072148636,0.04350039,-0.39117,0.0,0.0,0.0,0.0,0.0,0.0,0.0073021683,-0.011716384,-0.5890488
161547869,-0.04263532,0.47220945,nan,-3.0890777,0.0,0.0058536795,-0.01675621,-0.41365474,0.0,0.0,0.0,0.0,0.0,0.0,0.011658608,-0.019614816,-0.5915683
161647983,-0.04263532,0.47220945,nan,-3.0890777,0.0,0.0058043064,-0.036428694,-0.41365474,0.0,0.0,0.0,0.0,0.0,0.0,0.0018150049,-0.015515194,-0.5898298
161748326,-0.04263532,0.47220945,nan,-3.0890777,0.0,-0.00092092174,-0.05548428,-0.41365474,0.0,0.0,0.0,0.0,0.0,0.0,-0.0007097455,-0.018219149,-0.591432
162869330,-0.04263532,0.47220945,nan,-3.0890777,0.0,-0.07824319,-0.057311606,-0.41365474,0.0,0.0,0.0,0.0,0.0,0.0,-0.012294166,-0.009546158,-0.5956451
162969919,-0.04263532,0.47220945,nan,-3.0890777,0.0,-0.07292351,-0.055902224,-0.41365474,0.0,0.0,0.0,0.0,0.0,0.0,-0.011781188,-0.006824668,-0.59538615
163069465,-0.04263532,0.47220945,nan,-3.0890777,0.0,-0.06876284,-0.057569813,-0.41365474,0.0,0.0,0.0,0.0,0.0,0.0,-0.012644505,-0.009081071,-0.59863687
163169469,-0.04263532,0.47220945,nan,-3.0890777,0.0,-0.06569782,-0.061505437,-0.41365474,0.0,0.0,0.0,0.0,0.0,0.0,-0.0056936676,-0.011848443,-0.60297656
163269758,-0.04263532,0.47220945,nan,-3.0890777,0.0,-0.0647049,-0.06682321,-0.41365474,0.0,0.0,0.0,0.0,0.0,0.0,-0.0124472,-0.009225649,-0.60522133
163370062,-0.04263532,0.47220945,nan,-3.0890777,0.0,-0.06538752,-0.07252562,-0.41365474,0.0,0.0,0.0,0.0,0.0,0.0,-0.0105113555,-0.012020297,-0.60598534
163469896,-0.04263532,0.47220945,nan,-3.0890777,0.0,-0.06764227,-0.078409694,-0.41365474,0.0,0.0,0.0,0.0,0.0,0.0,-0.01769406,-0.009985301,-0.6060027
163569961,-0.04263532,0.47220945,nan,-3.0890777,0.0,-0.07093373,-0.082614735,-0.42184287,0.0,0.0,0.0,0.0,0.0,0.0,-0.013375541,-0.011275238,-0.60929686
163669979,-0.04263532,0.47220945,nan,-3.0890777,0.0,-0.07580924,-0.08481516,-0.42169422,0.0,0.0,0.0,0.0,0.0,0.0,-0.012427896,-0.012521925,-0.60677576
163770144,-0.04263532,0.47220945,nan,-3.0890777,0.0,-0.08102921,-0.086376466,-0.42168626,0.0,0.0,0.0,0.0,0.0,0.0,-0.022218175,-0.0134418,-0.6035739
163890197,-0.04263532,0.47220945,nan,-3.0890777,0.0,-0.087732926,-0.08738896,-0.42168665,0.0,0.0,0.0,0.0,0.0,0.0,-0.021666782,-0.012620553,-0.60208863
163990372,-0.04263532,0.47220945,nan,-3.0890777,0.0,-0.09227882,-0.08729361,-0.42168665,0.0,0.0,0.0,0.0,0.0,0.0,-0.014683096,-0.017079882,-0.60433054
164090778,-0.04263532,0.47220945,nan,-3.0890777,0.0,-0.09524176,-0.08667527,-0.42168665,0.0,0.0,0.0,0.0,0.0,0.0,-0.0121626705,-0.011751646,-0.60166335
164190887,-0.04263532,0.47220945,nan,-3.0890777,0.0,-0.0974792,-0.087003015,-0.42168665,0.0,0.0,0.0,0.0,0.0,0.0,-0.01671436,-0.013252059,-0.6056108
164290882,-0.04263532,0.47220945,nan,-3.0890777,0.0,-0.09866798,-0.08798981,-0.42168665,0.0,0.0,0.0,0.0,0.0,0.0,-0.014948897,-0.012012642,-0.61005914
164390963,-0.04263532,0.47220945,nan,-3.0890777,0.0,-0.0989632,-0.08904041,-0.42168665,0.0,0.0,0.0,0.0,0.0,0.0,-0.013204662,-0.010193301,-0.6088021
164490965,-0.04263532,0.47220945,nan,-3.0890777,0.0,-0.098880254,-0.090747416,-0.42168665,0.0,0.0,0.0,0.0,0.0,0.0,-0.011808796,-0.017639628,-0.6122759
164590953,-0.04263532,0.47220945,nan,-3.0890777,0.0,-0.09836331,-0.09222888,-0.438703,0.0,0.0,0.0,0.0,0.0,0.0,-0.014778171,-0.010902657,-0.616597
164691048,-0.04263532,0.47220945,nan,-3.0890777,0.0,-0.09798729,-0.09390055,-0.44598633,0.0,0.0,0.0,0.0,0.0,0.0,-0.021592198,-0.01528842,-0.6200981
164791142,-0.04263532,0.47220945,nan,-3.0890777,0.0,-0.09836752,-0.09443434,-0.7213228,0.0,0.0,0.0,0.0,0.0,0.0,-0.016429225,-0.017821886,-0.6744702
164892510,-0.04263532,0.47220945,nan,-3.0890777,0.0,-0.10026831,-0.09426804,-0.7189597,0.0,0.0,0.0,0.0,0.0,0.0,-0.019913694,-0.013945608,-0.661393
164991482,-0.04263532,0.47220945,nan,-3.0890777,0.0,-0.103881925,-0.0931334,-0.710238,0.0,0.0,0.0,0.0,0.0,0.0,-0.021970948,-0.014854836,-0.6508269
165111515,-0.04263532,0.47220945,nan,-3.0890777,0.0,-0.109998584,-0.091254994,-0.710836,0.0,0.0,0.0,0.0,0.0,0.0,-0.020535953,-0.014864151,-0.6464331
165213110,-0.04263532,0.47220945,nan,-3.0890777,0.0,-0.11656137,-0.08906431,-0.7108439,0.0,0.0,0.0,0.0,0.0,0.0,-0.02590537,-0.012199514,-0.64163065
165311649,-0.04263532,0.47220945,nan,-3.0890777,0.0,-0.12337431,-0.086714454,-0.7108435,0.0,0.0,0.0,0.0,0.0,0.0,-0.027120953,-0.015930682,-0.6391545
165412749,-0.04263532,0.47220945,nan,-3.0890777,0.0,-0.13073495,-0.084161654,-0.7108435,0.0,0.0,0.0,0.0,0.0,0.0,-0.027831323,-0.011272649,-0.6388306
165511802,-0.04263532,0.47220945,nan,-3.0890777,0.0,-0.13747624,-0.08163694,-0.7108435,0.0,0.0,0.0,0.0,0.0,0.0,-0.02436578,-0.013506667,-0.64010835
165612127,-0.04263532,0.47220945,nan,-3.0890777,0.0,-0.14400692,-0.07952548,-0.7108435,0.0,0.0,0.0,0.0,0.0,0.0,-0.028074007,-0.012285549,-0.64329606
165712207,-0.04263532,0.47220945,nan,-3.0890777,0.0,-0.1484886,-0.07779905,-0.7108435,0.0,0.0,0.0,0.0,0.0,0.0,-0.02549151,-0.013709905,-0.64993656
165813380,-0.04263532,0.47220945,nan,-3.0890777,0.0,-0.1508228,-0.07636362,-0.7108435,0.0,0.0,0.0,0.0,0.0,0.0,-0.02629809,-0.0113065075,-0.65470016
165912417,-0.04263532,0.47220945,nan,-3.0890777,0.0,-0.1504575,-0.075226665,-0.7108435,0.0,0.0,0.0,0.0,0.0,0.0,-0.024899282,-0.015241826,-0.6568721
166012433,-0.04263532,0.47220945,nan,-3.0890777,0.0,-0.14732331,-0.07447265,-0.7108435,0.0,0.0,0.0,0.0,0.0,0.0,-0.022560496,-0.012735816,-0.66505104
166112474,-0.04263532,0.47220945,nan,-3.0890777,0.0,-0.14224136,-0.07364588,-0.7108435,0.0,0.0,0.0,0.0,0.0,0.0,-0.014881278,-0.012320634,-0.67443717
166212557,-0.04263532,0.47220945,nan,-3.0890777,0.0,-0.13447638,-0.072891526,-0.7108435,0.0,0.0,0.0,0.0,0.0,0.0,-0.013955859,-0.016542438,-0.68092346
166332909,-0.04263532,0.47220945,nan,-3.0890777,0.0,-0.12359988,-0.07161793,-0.7108435,0.0,0.0,0.0,0.0,0.0,0.0,-0.011701448,-0.013300139,-0.6842338
166432918,-0.04263532,0.47220945,nan,-3.0890777,0.0,-0.11436774,-0.07084858,-0.7108435,0.0,0.0,0.0,0.0,0.0,0.0,-0.017914906,-0.013131337,-0.6857964
166533213,-0.04263532,0.47220945,nan,-3.0890777,0.0,-0.10511117,-0.0689892,-0.7108435,0.0,0.0,0.0,0.0,0.0,0.0,-0.017880391,-0.012806126,-0.68752825
166633112,-0.04263532,0.47220945,nan,-3.0890777,0.0,-0.09798525,-0.06753174,-0.7108435,0.0,0.0,0.0,0.0,0.0,0.0,-0.011768264,-0.013651619,-0.68843913
166733400,-0.04263532,0.47220945,nan,-3.0890777,0.0,-0.092050046,-0.06473223,-0.7108435,0.0,0.0,0.0,0.0,0.0,0.0,-0.016476117,-0.01457377,-0.6850151
166833359,-0.04263532,0.47220945,nan,-3.0890777,0.0,-0.08862239,-0.062119473,-0.7108435,0.0,0.0,0.0,0.0,0.0,0.0,-0.015195122,-0.012288882,-0.68147767
166933568,-0.04263532,0.47220945,nan,-3.0890777,0.0,-0.086939394,-0.058297493,-0.7108435,0.0,0.0,0.0,0.0,0.0,0.0,-0.015854027,-0.010914481,-0.6771798
167033650,-0.04263532,0.47220945,nan,-3.0890777,0.0,-0.08699988,-0.0549455,-0.7108435,0.0,0.0,0.0,0.0,0.0,0.0,-0.020868279,-0.009598672,-0.6751462
167134230,-0.04263532,0.47220945,nan,-3.0890777,0.0,-0.088957764,-0.051091585,-0.7108435,0.0,0.0,0.0,0.0,0.0,0.0,-0.017742332,-0.011586309,-0.67601514
167234204,-0.04263532,0.47220945,nan,-3.0890777,0.0,-0.09208603,-0.04712374,-0.7108435,0.0,0.0,0.0,0.0,0.0,0.0,-0.020787794,-0.008951441,-0.6780629
167354546,-0.04263532,0.47220945,nan,-3.0890777,0.0,-0.09625542,-0.04270313,-0.7108435,0.0,0.0,0.0,0.0,0.0,0.0,-0.022395112,-0.010214135,-0.6809424
167454828,-0.04263532,0.47220945,nan,-3.0890777,0.0,-0.09926758,-0.03965532,-0.7108435,0.0,0.0,0.0,0.0,0.0,0.0,-0.019630719,-0.013932327,-0.6866714
167554564,-0.04263532,0.47220945,nan,-3.0890777,0.0,-0.10077312,-0.038153812,-0.7108435,0.0,0.0,0.0,0.0,0.0,0.0,-0.020309988,-0.011972072,-0.69222033
167654154,-0.04263532,0.47220945,nan,-3.0890777,0.0,-0.10070454,-0.037708744,-0.7108435,0.0,0.0,0.0,0.0,0.0,0.0,-0.016577788,-0.01031501,-0.6974286
167754734,-0.04263532,0.47220945,nan,-3.0890777,0.0,-0.09884933,-0.038382687,-0.7108435,0.0,0.0,0.0,0.0,0.0,0.0,-0.02004632,-0.014731007,-0.6995608
167854374,-0.04263532,0.47220945,nan,-3.0890777,0.0,-0.09559952,-0.040050164,-0.7108435,0.0,0.0,0.0,0.0,0.0,0.0,-0.019523557,-0.014805738,-0.7027454
167954351,-0.04263532,0.47220945,nan,-3.0890777,0.0,-0.0906739,-0.04233898,-0.7108435,0.0,0.0,0.0,0.0,0.0,0.0,-0.019025758,-0.014805775,-0.7072768
168054613,-0.04263532,0.47220945,nan,-3.0890777,0.0,-0.08532425,-0.044127688,-0.7108435,0.0,0.0,0.0,0.0,0.0,0.0,-0.017715447,-0.013606586,-0.70679945
168155033,-0.04263532,0.47220945,nan,-3.0890777,0.0,-0.07896842,-0.044582155,-0.7108435,0.0,0.0,0.0,0.0,0.0,0.0,-0.019824265,-0.016285405,-0.7040388
168254910,-0.04263532,0.47220945,nan,-3.0890777,0.0,-0.07357479,-0.044769976,-0.7108435,0.0,0.0,0.0,0.0,0.0,0.0,-0.015901687,-0.011554267,-0.7082925
168355214,-0.04263532,0.47220945,nan,-3.0890777,0.0,-0.068288565,-0.043444004,-0.7108435,0.0,0.0,0.0,0.0,0.0,0.0,-0.019513633,-0.011875965,-0.7116791
168454908,-0.04263532,0.47220945,nan,-3.0890777,0.0,-0.064373374,-0.04157687,-0.7108435,0.0,0.0,0.0,0.0,0.0,0.0,-0.0131684095,-0.009667699,-0.7116258
168555866,-0.04263532,0.47220945,nan,-3.0890777,0.0,-0.06087243,-0.037610274,-0.7108435,0.0,0.0,0.0,0.0,0.0,0.0,-0.013743079,-0.00703377,-0.7133429
168674984,-0.04263532,0.47220945,nan,-3.0890777,0.0,-0.05822478,-0.031557746,-0.7108435,0.0,0.0,0.0,0.0,0.0,0.0,-0.017759617,-0.005123153,-0.714364
168775397,-0.04263532,0.47220945,nan,-3.0890777,0.0,-0.057344425,-0.02630235,-0.7108435,0.0,0.0,0.0,0.0,0.0,0.0,-0.018709987,-0.009177058,-0.7160645
168875392,-0.04263532,0.47220945,nan,-3.0890777,0.0,-0.05746215,-0.021248933,-0.7108435,0.0,0.0,0.0,0.0,0.0,0.0,-0.019175423,-0.007217712,-0.7184397
168975529,-0.04263532,0.47220945,nan,-3.0890777,0.0,-0.057932585,-0.017502012,-0.7108435,0.0,0.0,0.0,0.0,0.0,0.0,-0.019534733,-0.007999528,-0.72017866
169075532,-0.04263532,0.47220945,nan,-3.0890777,0.0,-0.058144033,-0.014265671,-0.7108435,0.0,0.0,0.0,0.0,0.0,0.0,-0.019672938,-0.0127691645,-0.7231658
169175660,-0.04263532,0.47220945,nan,-3.0890777,0.0,-0.058181215,-0.013300282,-0.7108435,0.0,0.0,0.0,0.0,0.0,0.0,-0.016920876,-0.00995725,-0.7250483
169276281,-0.04263532,0.47220945,nan,-3.0890777,0.0,-0.058719236,-0.01374685,-0.7108435,0.0,0.0,0.0,0.0,0.0,0.0,-0.018218199,-0.010754254,-0.72561586
169375739,-0.04263532,0.47220945,nan,-3.0890777,0.0,-0.059694164,-0.015755119,-0.7108435,0.0,0.0,0.0,0.0,0.0,0.0,-0.019499049,-0.015282936,-0.7269935
169476387,-0.04263532,0.47220945,nan,-3.0890777,0.0,-0.06052236,-0.0198124,-0.7108435,0.0,0.0,0.0,0.0,0.0,0.0,-0.016529476,-0.016980954,-0.7272066
169576011,-0.04263532,0.47220945,nan,-3.0890777,0.0,-0.060873557,-0.025048064,-0.7108435,0.0,0.0,0.0,0.0,0.0,0.0,-0.021200199,-0.015313106,-0.7264867
169676193,-0.04263532,0.47220945,nan,-3.0890777,0.0,-0.06076522,-0.031546194,-0.7108435,0.0,0.0,0.0,0.0,0.0,0.0,-0.020521961,-0.019673595,-0.7239648
169776319,-0.04263532,0.47220945,nan,-3.0890777,0.0,-0.06010267,-0.037515484,-0.7108435,0.0,0.0,0.0,0.0,0.0,0.0,-0.018940996,-0.0154973455,-0.7227309
169896309,-0.04263532,0.47220945,nan,-3.0890777,0.0,-0.059144154,-0.042532917,-0.7108435,0.0,0.0,0.0,0.0,0.0,0.0,-0.01912748,-0.015364459,-0.72050864
169996464,-0.04263532,0.47220945,nan,-3.0890777,0.0,-0.05796123,-0.044458997,-0.7108435,0.0,0.0,0.0,0.0,0.0,0.0,-0.018646805,-0.014399775,-0.72025526
170096426,-0.04263532,0.47220945,nan,-3.0890777,0.0,-0.057049043,-0.044194277,-0.7108435,0.0,0.0,0.0,0.0,0.0,0.0,-0.022397581,-0.014035697,-0.72373337
170196597,-0.04263532,0.47220945,nan,-3.0890777,0.0,-0.057401597,-0.042498037,-0.7108435,0.0,0.0,0.0,0.0,0.0,0.0,-0.023071725,-0.012019213,-0.72400033
170296610,-0.04263532,0.47220945,nan,-3.0890777,0.0,-0.059052348,-0.03891026,-0.7108435,0.0,0.0,0.0,0.0,0.0,0.0,-0.0231195,-0.010839475,-0.72427726
170397411,-0.04263532,0.47220945,nan,-3.0890777,0.0,-0.062276058,-0.033135418,-0.7108435,0.0,0.0,0.0,0.0,0.0,0.0,-0.023909215,-0.009340805,-0.72364
170498116,-0.04263532,0.47220945,nan,-3.0890777,0.0,-0.06703838,-0.025220513,-0.7108435,0.0,0.0,0.0,0.0,0.0,0.0,-0.027694957,-0.008194635,-0.71826077
170597148,-0.04263532,0.47220945,nan,-3.0890777,0.0,-0.072803125,-0.01668359,-0.7108435,0.0,0.0,0.0,0.0,0.0,0.0,-0.028749045,-0.0019718986,-0.7162733
170697354,-0.04263532,0.47220945,nan,-3.0890777,0.0,-0.080423385,-0.00617526,-0.7024655,0.0,0.0,0.0,0.0,0.0,0.0,-0.029290196,0.00014665816,-0.7164221
170797372,-0.04263532,0.47220945,nan,-3.0890777,0.0,-0.08790366,0.004303823,-0.6911684,0.0,0.0,0.0,0.0,0.0,0.0,-0.035732273,0.00028740242,-0.7175118
170898248,-0.04263532,0.47220945,nan,-3.0890777,0.0,-0.09607938,0.016109021,-0.6788454,0.0,0.0,0.0,0.0,0.0,0.0,-0.03371201,-0.0017734803,-0.72005284
170997442,-0.04263532,0.47220945,nan,-3.0890777,0.0,-0.10294907,0.0271099,-0.67870706,0.0,0.0,0.0,0.0,0.0,0.0,-0.030536294,0.0034395056,-0.72693634
171098739,-0.04263532,0.47220945,nan,-3.0890777,0.0,-0.109657176,0.038143393,-0.4460634,0.0,0.0,0.0,0.0,0.0,0.0,-0.034934327,0.0006580604,-0.68806815
171197828,-0.04263532,0.47220945,nan,-3.0890777,0.0,-0.11442195,0.046586264,-0.40826964,0.0,0.0,0.0,0.0,0.0,0.0,-0.030856095,0.0030858628,-0.6873848
171297755,-0.04263532,0.47220945,nan,-3.0890777,0.0,-0.117468126,0.053266328,-0.41381487,0.0,0.0,0.0,0.0,0.0,0.0,-0.03151847,-0.004110845,-0.6998621
171418169,-0.04263532,0.47220945,nan,-3.0890777,0.0,-0.11865577,0.058489762,-0.41365874,0.0,0.0,0.0,0.0,0.0,0.0,-0.02725811,0.0028798748,-0.7068763
171517968,-0.04263532,0.47220945,nan,-3.0890777,0.0,-0.11792307,0.06158944,-0.41365474,0.0,0.0,0.0,0.0,0.0,0.0,-0.027766678,-0.0030607195,-0.7138124
171617974,-0.04263532,0.47220945,nan,-3.0890777,0.0,-0.11592925,0.064368084,-0.41365474,0.0,0.0,0.0,0.0,0.0,0.0,-0.030516505,0.0013759611,-0.7189135
171718105,-0.04263532,0.47220945,nan,-3.0890777,0.0,-0.11352629,0.06637935,-0.41365474,0.0,0.0,0.0,0.0,0.0,0.0,-0.029646559,0.0058689425,-0.7202938
171818115,-0.04263532,0.47220945,nan,-3.0890777,0.0,-0.11043488,0.06977622,-0.41365474,0.0,0.0,0.0,0.0,0.0,0.0,-0.025617331,0.00648663,-0.72241265
171918244,-0.04263532,0.47220945,nan,-3.0890777,0.0,-0.10771623,0.07467633,-0.41365474,0.0,0.0,0.0,0.0,0.0,0.0,-0.029275436,0.0084797125,-0.7234875
172018387,-0.04263532,0.47220945,nan,-3.0890777,0.0,-0.10573455,0.08222946,-0.41365474,0.0,0.0,0.0,0.0,0.0,0.0,-0.027074728,0.0095471,-0.7220433
172118744,-0.04263532,0.47220945,nan,-3.0890777,0.0,-0.10517456,0.091354884,-0.41365474,0.0,0.0,0.0,0.0,0.0,0.0,-0.029264353,0.009295424,-0.72059834
172218801,-0.04263532,0.47220945,nan,-3.0890777,0.0,-0.10569962,0.10164441,-0.41365474,0.0,0.0,0.0,0.0,0.0,0.0,-0.028163306,0.008265847,-0.720645
172318794,-0.04263532,0.47220945,nan,-3.0890777,0.0,-0.10629106,0.11182758,-0.41365474,0.0,0.0,0.0,0.0,0.0,0.0,-0.027850527,0.010514205,-0.7203276
172418906,-0.04263532,0.47220945,nan,-3.0890777,0.0,-0.10636442,0.12080932,-0.41365474,0.0,0.0,0.0,0.0,0.0,0.0,-0.025628045,0.009460146,-0.71651715
172518979,-0.04263532,0.47220945,nan,-3.0890777,0.0,-0.10586274,0.12701759,-0.41365474,0.0,0.0,0.0,0.0,0.0,0.0,-0.029918756,0.009514784,-0.7138915
172618932,-0.04263532,0.47220945,nan,-3.0890777,0.0,-0.10410866,0.1305273,-0.41365474,0.0,0.0,0.0,0.0,0.0,0.0,-0.028968913,0.007048752,-0.71305346
172719062,-0.04263532,0.47220945,nan,-3.0890777,0.0,-0.1012698,0.13013051,-0.41365474,0.0,0.0,0.0,0.0,0.0,0.0,-0.023456438,0.0058282698,-0.7122686
172839369,-0.04263532,0.47220945,nan,-3.0890777,0.0,-0.096112035,0.12530369,-0.41365474,0.0,0.0,0.0,0.0,0.0,0.0,-0.024516612,0.0022137547,-0.7142749
172939596,-0.04263532,0.47220945,nan,-3.0890777,0.0,-0.08953548,0.118241794,-0.41365474,0.0,0.0,0.0,0.0,0.0,0.0,-0.018603213,-0.0019186472,-0.7161434
173040196,-0.04263532,0.47220945,nan,-3.0890777,0.0,-0.08077601,0.109806515,-0.41365474,0.0,0.0,0.0,0.0,0.0,0.0,-0.018831799,-0.0035414128,-0.7214248
173140023,-0.04263532,0.47220945,nan,-3.0890777,0.0,-0.06876741,0.098908015,-0.41365474,0.0,0.0,0.0,0.0,0.0,0.0,-0.016690934,-0.0050605205,-0.7218555
173240000,-0.04263532,0.47220945,nan,-3.0890777,0.0,-0.0567028,0.087960444,-0.41365474,0.0,0.0,0.0,0.0,0.0,0.0,-0.015637964,-0.0078478595,-0.7213148
173339998,-0.04263532,0.47220945,nan,-3.0890777,0.0,-0.043564565,0.074303485,-0.41365474,0.0,0.0,0.0,0.0,0.0,0.0,-0.012149353,-0.012330607,-0.72071487
173440001,-0.04263532,0.47220945,nan,-3.0890777,0.0,-0.03206326,0.06193697,-0.41365474,0.0,0.0,0.0,0.0,0.0,0.0,-0.017887242,-0.007862758,-0.7204997
173540218,-0.04263532,0.47220945,nan,-3.0890777,0.0,-0.0210668,0.04930987,-0.41365474,0.0,0.0,0.0,0.0,0.0,0.0,-0.01324871,-0.0066340705,-0.7237769
173640198,-0.04263532,0.47220945,nan,-3.0890777,0.0,-0.013064112,0.039602492,-0.41365474,0.0,0.0,0.0,0.0,0.0,0.0,-0.012759127,-0.010473024,-0.7275392
173740259,-0.04263532,0.47220945,nan,-3.0890777,0.0,-0.0075903963,0.03157799,-0.41365474,0.0,0.0,0.0,0.0,0.0,0.0,-0.018421639,-0.0073865457,-0.73119855
173841312,-0.04263532,0.47220945,nan,-3.0890777,0.0,-0.0058633094,0.02681047,-0.41365474,0.0,0.0,0.0,0.0,0.0,0.0,-0.023027161,-0.009430613,-0.73066413
173940377,-0.04263532,0.47220945,nan,-3.0890777,0.0,-0.0076357136,0.024980368,-0.41365474,0.0,0.0,0.0,0.0,0.0,0.0,-0.021044372,-0.006963649,-0.73037946
174041316,-0.04263532,0.47220945,nan,-3.0890777,0.0,-0.012547382,0.02510817,-0.41365474,0.0,0.0,0.0,0.0,0.0,0.0,-0.026703984,-0.0033677688,-0.72927403
174161767,-0.04263532,0.47220945,nan,-3.0890777,0.0,-0.020948423,0.028607728,-0.41365474,0.0,0.0,0.0,0.0,0.0,0.0,-0.028248012,-0.0019378725,-0.7257997
174260535,-0.04263532,0.47220945,nan,-3.0890777,0.0,-0.028507475,0.03239007,-0.41365474,0.0,0.0,0.0,0.0,0.0,0.0,-0.023918947,-0.002158657,-0.7237972
174361802,-0.04263532,0.47220945,nan,-3.0890777,0.0,-0.03586511,0.036051374,-0.41365474,0.0,0.0,0.0,0.0,0.0,0.0,-0.025316954,-0.0016625493,-0.71989906
174460804,-0.04263532,0.47220945,nan,-3.0890777,0.0,-0.04121698,0.038313974,-0.41365474,0.0,0.0,0.0,0.0,0.0,0.0,-0.028466672,-0.001962581,-0.7198607
174561851,-0.04263532,0.47220945,nan,-3.0890777,0.0,-0.04463626,0.03923633,-0.41365474,0.0,0.0,0.0,0.0,0.0,0.0,-0.026199358,-0.0041460022,-0.7182344
174661060,-0.04263532,0.47220945,nan,-3.0890777,0.0,-0.04512936,0.03876445,-0.41365474,0.0,0.0,0.0,0.0,0.0,0.0,-0.023400694,-0.0020743,-0.7175808
174761302,-0.04263532,0.47220945,nan,-3.0890777,0.0,-0.043387078,0.036471102,-0.41365474,0.0,0.0,0.0,0.0,0.0,0.0,-0.026132597,-0.004802309,-0.7180703
174861263,-0.04263532,0.47220945,nan,-3.0890777,0.0,-0.040237334,0.03311642,-0.41365474,0.0,0.0,0.0,0.0,0.0,0.0,-0.022562787,-0.003403718,-0.715453
174961349,-0.04263532,0.47220945,nan,-3.0890777,0.0,-0.03576161,0.02898128,-0.41365474,0.0,0.0,0.0,0.0,0.0,0.0,-0.02090666,-0.003961585,-0.71635884
175061375,-0.04263532,0.47220945,nan,-3.0890777,0.0,-0.03195382,0.025926817,-0.41365474,0.0,0.0,0.0,0.0,0.0,0.0,-0.027244722,-0.0024223707,-0.7162578
175161441,-0.04263532,0.47220945,nan,-3.0890777,0.0,-0.029002154,0.024290485,-0.41365474,0.0,0.0,0.0,0.0,0.0,0.0,-0.026247593,-0.000107069965,-0.7156062
175281847,-0.04263532,0.47220945,nan,-3.0890777,0.0,-0.027767688,0.02545103,-0.41365474,0.0,0.0,0.0,0.0,0.0,0.0,-0.027209628,0.003678936,-0.7188401
175381739,-0.04263532,0.47220945,nan,-3.0890777,0.0,-0.02928177,0.02875113,-0.41365474,0.0,0.0,0.0,0.0,0.0,0.0,-0.029750902,0.003697243,-0.7207738
175481927,-0.04263532,0.47220945,nan,-3.0890777,0.0,-0.03260189,0.03432634,-0.41365474,0.0,0.0,0.0,0.0,0.0,0.0,-0.029387634,0.0060664383,-0.7227724
175582044,-0.04263532,0.47220945,nan,-3.0890777,0.0,-0.037445135,0.04209886,-0.41365474,0.0,0.0,0.0,0.0,0.0,0.0,-0.026601303,0.0027858377,-0.72999847
175682001,-0.04263532,0.47220945,nan,-3.0890777,0.0,-0.042454187,0.049829286,-0.41365474,0.0,0.0,0.0,0.0,0.0,0.0,-0.03078415,0.0077420054,-0.73090994
175782144,-0.04263532,0.47220945,nan,-3.0890777,0.0,-0.047762133,0.059607103,-0.41365474,0.0,0.0,0.0,0.0,0.0,0.0,-0.0321463,0.01009636,-0.7305517
175882158,-0.04263532,0.47220945,nan,-3.0890777,0.0,-0.05231489,0.06692227,-0.41365474,0.0,0.0,0.0,0.0,0.0,0.0,-0.026604766,0.008864407,-0.73281145
175982355,-0.04263532,0.47220945,nan,-3.0890777,0.0,-0.056516923,0.07293122,-0.41365474,0.0,0.0,0.0,0.0,0.0,0.0,-0.02870037,0.00102013,-0.7328428
176083018,-0.04263532,0.47220945,nan,-3.0890777,0.0,-0.05892378,0.07527635,-0.41365474,0.0,0.0,0.0,0.0,0.0,0.0,-0.032296397,0.005121461,-0.73065734
176182807,-0.04263532,0.47220945,nan,-3.0890777,0.0,-0.060180362,0.07513281,-0.41365474,0.0,0.0,0.0,0.0,0.0,0.0,-0.02581273,-8.572941e-05,-0.7297305
176282890,-0.04263532,0.47220945,nan,-3.0890777,0.0,-0.05942785,0.07173033,-0.41365474,0.0,0.0,0.0,0.0,0.0,0.0,-0.025320925,-0.00041453168,-0.72610366
176382986,-0.04263532,0.47220945,nan,-3.0890777,0.0,-0.057593744,0.06511581,-0.41365474,0.0,0.0,0.0,0.0,0.0,0.0,-0.025839224,-0.0047017587,-0.7259934
176482966,-0.04263532,0.47220945,nan,-3.0890777,0.0,-0.055597126,0.056179345,-0.41365474,0.0,0.0,0.0,0.0,0.0,0.0,-0.026545744,-0.008775188,-0.72839576
176583213,-0.04263532,0.47220945,nan,-3.0890777,0.0,-0.052757096,0.0435692,-0.41365474,0.0,0.0,0.0,0.0,0.0,0.0,-0.026613344,-0.010454541,-0.7269962
176702994,-0.04263532,0.47220945,nan,-3.0890777,0.0,-0.04961397,0.02731154,-0.41365474,0.0,0.0,0.0,0.0,0.0,0.0,-0.028547898,-0.007918099,-0.7315401
176803155,-0.04263532,0.47220945,nan,-3.0890777,0.0,-0.047648817,0.015034206,-0.41365474,0.0,0.0,0.0,0.0,0.0,0.0,-0.025007429,-0.010737739,-0.73045605
176903523,-0.04263532,0.47220945,nan,-3.0890777,0.0,-0.046489563,0.0035302772,-0.41365474,0.0,0.0,0.0,0.0,0.0,0.0,-0.025978632,-0.01069501,-0.72989357
177003694,-0.04263532,0.47220945,nan,-3.0890777,0.0,-0.046957195,-0.0041577322,-0.41365474,0.0,0.0,0.0,0.0,0.0,0.0,-0.030812992,-0.0051707337,-0.7307888
177103551,-0.04263532,0.47220945,nan,-3.0890777,0.0,-0.048799943,-0.007264402,-0.41365474,0.0,0.0,0.0,0.0,0.0,0.0,-0.029094871,-0.0073947003,-0.7311759
177203819,-0.04263532,0.47220945,nan,-3.0890777,0.0,-0.05167497,-0.006335394,-0.41365474,0.0,0.0,0.0,0.0,0.0,0.0,-0.03203088,0.000107184984,-0.7365619
177303673,-0.04263532,0.47220945,nan,-3.0890777,0.0,-0.0548591,-0.00075602083,-0.41365474,0.0,0.0,0.0,0.0,0.0,0.0,-0.032079265,0.0029186627,-0.73915446
177403740,-0.04263532,0.47220945,nan,-3.0890777,0.0,-0.05789553,0.009234847,-0.41365474,0.0,0.0,0.0,0.0,0.0,0.0,-0.029874913,0.00767229,-0.7445513
177503978,-0.04263532,0.47220945,nan,-3.0890777,0.0,-0.06000619,0.021125691,-0.41365474,0.0,0.0,0.0,0.0,0.0,0.0,-0.031447835,0.007812218,-0.74732816
177604106,-0.04263532,0.47220945,nan,-3.0890777,0.0,-0.061537296,0.03571007,-0.41365474,0.0,0.0,0.0,0.0,0.0,0.0,-0.028318152,0.009293788,-0.7506927
177704114,-0.04263532,0.47220945,nan,-3.0890777,0.0,-0.061440475,0.04932909,-0.41365474,0.0,0.0,0.0,0.0,0.0,0.0,-0.026362311,0.010167522,-0.7543869
177804282,-0.04263532,0.47220945,nan,-3.0890777,0.0,-0.05890704,0.06422247,-0.41365474,0.0,0.0,0.0,0.0,0.0,0.0,-0.02543403,0.012133293,-0.7563131
177924316,-0.04263532,0.47220945,nan,-3.0890777,0.0,-0.052800156,0.08050191,-0.41365474,0.0,0.0,0.0,0.0,0.0,0.0,-0.02347291,0.015457217,-0.75434685
178024355,-0.04263532,0.47220945,nan,-3.0890777,0.0,-0.045203548,0.09212735,-0.3963678,0.0,0.0,0.0,0.0,0.0,0.0,-0.018391486,0.017147005,-0.7493663
178124407,-0.04263532,0.47220945,nan,-3.0890777,0.0,-0.034395907,0.10412765,-0.19445904,0.0,0.0,0.0,0.0,0.0,0.0,-0.014344231,0.019690154,-0.70893496
178224543,-0.04263532,0.47220945,nan,-3.0890777,0.0,-0.021797147,0.114726126,-0.134372,0.0,0.0,0.0,0.0,0.0,0.0,-0.012586423,0.021521233,-0.6972199
178324611,-0.04263532,0.47220945,nan,-3.0890777,0.0,-0.0058483747,0.12622677,-0.1325314,0.0,0.0,0.0,0.0,0.0,0.0,-0.008207571,0.022706533,-0.7026322
178424787,-0.04263532,0.47220945,nan,-3.0890777,0.0,0.010009136,0.13702592,-0.13252823,0.0,0.0,0.0,0.0,0.0,0.0,-0.009865924,0.028343778,-0.706555
178524984,-0.04263532,0.47220945,nan,-3.0890777,0.0,0.02753883,0.14952044,-0.13253021,0.0,0.0,0.0,0.0,0.0,0.0,-0.009030719,0.025515754,-0.71349496
178625007,-0.04263532,0.47220945,nan,-3.0890777,0.0,0.043222737,0.16025609,-0.13253021,0.0,0.0,0.0,0.0,0.0,0.0,-0.0016426146,0.026453791,-0.71752656
178725113,-0.04263532,0.47220945,nan,-3.0890777,0.0,0.05892029,0.17076159,-0.13253021,0.0,0.0,0.0,0.0,0.0,0.0,-0.0043432713,0.025720375,-0.7199185
178825210,-0.04263532,0.47220945,nan,-3.0890777,0.0,0.07093628,0.17876554,-0.13253021,0.0,0.0,0.0,0.0,0.0,0.0,-0.007959811,0.02229416,-0.7198471
178925223,-0.04263532,0.47220945,nan,-3.0890777,0.0,0.08088772,0.18384324,-0.13253021,0.0,0.0,0.0,0.0,0.0,0.0,-0.008577701,0.019184459,-0.7222696
179025308,-0.04263532,0.47220945,nan,-3.0890777,0.0,0.08671022,0.18574286,-0.13253021,0.0,0.0,0.0,0.0,0.0,0.0,-0.008774858,0.023748385,-0.7227104
179145462,-0.04263532,0.47220945,nan,-3.0890777,0.0,0.089352556,0.18327989,-0.13253021,0.0,0.0,0.0,0.0,0.0,0.0,-0.01316411,0.012994125,-0.7195426
179245598,-0.04263532,0.47220945,nan,-3.0890777,0.0,0.08823537,0.17672943,-0.13253021,0.0,0.0,0.0,0.0,0.0,0.0,-0.015155163,0.015287891,-0.7181259
179346005,-0.04263532,0.47220945,nan,-3.0890777,0.0,0.08452605,0.16718468,-0.13253021,0.0,0.0,0.0,0.0,0.0,0.0,-0.01416526,0.008038112,-0.7147277
179446158,-0.04263532,0.47220945,nan,-3.0890777,0.0,0.07799273,0.1531228,-0.13253021,0.0,0.0,0.0,0.0,0.0,0.0,-0.017564904,0.00945843,-0.7127987
179546643,-0.04263532,0.47220945,nan,-3.0890777,0.0,0.06980332,0.13747728,-0.13253021,0.0,0.0,0.0,0.0,0.0,0.0,-0.02072713,0.0006251107,-0.71087426
179646195,-0.04263532,0.47220945,nan,-3.0890777,0.0,0.05917487,0.11923926,-0.13253021,0.0,0.0,0.0,0.0,0.0,0.0,-0.023777327,0.0004354408,-0.7073751
179746164,-0.04263532,0.47220945,nan,-3.0890777,0.0,0.04957601,0.1016127,-0.13253021,0.0,0.0,0.0,0.0,0.0,0.0,-0.018638425,-0.0024349233,-0.7035815
179846233,-0.04263532,0.47220945,nan,-3.0890777,0.0,0.040999126,0.08333418,-0.13253021,0.0,0.0,0.0,0.0,0.0,0.0,-0.020075284,-0.0036585405,-0.70001626
179946223,-0.04263532,0.47220945,nan,-3.0890777,0.0,0.035136644,0.06766218,-0.13253021,0.0,0.0,0.0,0.0,0.0,0.0,-0.0206696,-0.002852214,-0.6981702
180046518,-0.04263532,0.47220945,nan,-3.0890777,0.0,0.03169238,0.052492302,-0.13253021,0.0,0.0,0.0,0.0,0.0,0.0,-0.02033231,-0.0048798467,-0.69591624
180146658,nan,nan,nan,-3.0890777,0.0,0.056050826,0.0029462148,-0.13253021,0.0,0.0,0.0,0.0,0.0,0.0,-0.017343333,-0.0051652067,-0.69620025
180246866,nan,nan,nan,-3.0890777,0.0,0.0541791,0.0028478305,-0.13253021,0.0,0.0,0.0,0.0,0.0,0.0,-0.01846455,-0.0031501197,-0.6929795
180346776,nan,nan,nan,-3.0890777,0.0,0.059716746,0.0031389077,-0.13253021,0.0,0.0,0.0,0.0,0.0,0.0,-0.01513619,-0.0001701857,-0.69366074
180446835,nan,nan,nan,-3.0890777,0.0,0.08098347,0.004256756,-0.13253021,0.0,0.0,0.0,0.0,0.0,0.0,-0.015207132,0.0026477196,-0.6992887
180567000,nan,nan,nan,-3.0890777,0.0,0.13700594,0.0072014807,-0.13253021,0.0,0.0,0.0,0.0,0.0,0.0,-0.012495663,0.007697831,-0.70172113
180666967,nan,nan,nan,-3.0890777,0.0,0.1353031,0.007111973,-0.13253021,0.0,0.0,0.0,0.0,0.0,0.0,-0.0135045,0.0070407437,-0.7063244
180767456,nan,nan,nan,-3.0890777,0.0,0.13531195,0.007112439,-0.13253021,0.0,0.0,0.0,0.0,0.0,0.0,-0.01097511,0.009634707,-0.71168786
180867493,nan,nan,nan,-3.0890777,0.0,0.25003433,0.013142622,-0.13253021,0.0,0.0,0.0,0.0,0.0,0.0,-0.0024677627,0.00920907,-0.7149323
180967468,nan,nan,nan,-3.0890777,0.0,0.2701433,0.014199616,-0.13253021,0.0,0.0,0.0,0.0,0.0,0.0,-0.0076709203,0.010398693,-0.7163143
181067656,nan,nan,nan,-3.0890777,0.0,0.27062133,0.014224743,-0.13253021,0.0,0.0,0.0,0.0,0.0,0.0,-0.01520562,0.00650525,-0.7145056
181167695,nan,nan,nan,-3.0890777,0.0,0.27062935,0.0142251635,-0.13253021,0.0,0.0,0.0,0.0,0.0,0.0,-0.011245214,0.0042926124,-0.7143694
181267652,nan,nan,nan,-3.0890777,0.0,0.27062902,0.014225147,-0.13253021,0.0,0.0,0.0,0.0,0.0,0.0,-0.014019325,0.0015972056,-0.71384424
181367765,nan,nan,nan,-3.0890777,0.0,0.27062902,0.014225147,-0.13253021,0.0,0.0,0.0,0.0,0.0,0.0,-0.01854519,0.0018038368,-0.7153132
181467822,nan,nan,nan,-3.0890777,0.0,0.20922159,0.010997371,-0.13253021,0.0,0.0,0.0,0.0,0.0,0.0,-0.02729074,-0.0003683078,-0.7114886
181568084,nan,nan,nan,-3.0890777,0.0,0.12523115,0.006582559,-0.13253021,0.0,0.0,0.0,0.0,0.0,0.0,-0.030648373,-0.00957616,-0.7131629
181667997,0.11571313,0.4376522,nan,-3.0890777,0.0,0.0,0.0,-0.13253021,0.0,0.0,0.0,0.0,0.0,0.0,-0.043018453,-0.0077367914,-0.71345073
181788230,0.11571313,0.4376522,nan,-3.0890777,0.0,-0.03598788,-0.023228467,-0.13253021,0.0,0.0,0.0,0.0,0.0,0.0,-0.045543864,-0.016226515,-0.7166108
181888302,0.11571313,0.4376522,nan,-3.0890777,0.0,-0.06187915,-0.044042043,-0.13253021,0.0,0.0,0.0,0.0,0.0,0.0,-0.046724506,-0.019095346,-0.7171406
181988374,0.11571313,0.4376522,nan,-3.0890777,0.0,-0.085640594,-0.0678782,-0.13253021,0.0,0.0,0.0,0.0,0.0,0.0,-0.04511594,-0.02536096,-0.71973586
182088403,0.11571313,0.4376522,nan,-3.0890777,0.0,-0.10252233,-0.09076947,-0.13253021,0.0,0.0,0.0,0.0,0.0,0.0,-0.04636713,-0.024666844,-0.7191849
182188451,0.11571313,0.4376522,nan,-3.0890777,0.0,-0.11463215,-0.114188366,-0.13253021,0.0,0.0,0.0,0.0,0.0,0.0,-0.039231755,-0.023165302,-0.71982694
182288575,0.11571313,0.4376522,nan,-3.0890777,0.0,-0.11915209,-0.13367419,-0.13253021,0.0,0.0,0.0,0.0,0.0,0.0,-0.033323217,-0.026256058,-0.7168251
182388651,0.11571313,0.4376522,nan,-3.0890777,0.0,-0.11834646,-0.14998417,-0.13253021,0.0,0.0,0.0,0.0,0.0,0.0,-0.034186047,-0.021964537,-0.71601063
182489300,0.11571313,0.4376522,nan,-3.0890777,0.0,-0.111905076,-0.16064818,-0.13253021,0.0,0.0,0.0,0.0,0.0,0.0,-0.030116396,-0.021307439,-0.7106795
182588972,0.11571313,0.4376522,nan,-3.0890777,0.0,-0.10215402,-0.16377237,-0.13253021,0.0,0.0,0.0,0.0,0.0,0.0,-0.024288453,-0.014209847,-0.7079531
182689303,0.11571313,0.4376522,nan,-3.0890777,0.0,-0.08806787,-0.15980431,-0.13253021,0.0,0.0,0.0,0.0,0.0,0.0,-0.01922796,-0.008899219,-0.70468944
182789170,0.11571313,0.4376522,nan,-3.0890777,0.0,-0.07272284,-0.15033399,-0.13253021,0.0,0.0,0.0,0.0,0.0,0.0,-0.01409054,-0.0054930933,-0.70193934
182890149,0.11571313,0.4376522,nan,-3.0890777,0.0,-0.05687743,-0.13429348,-0.13253021,0.0,0.0,0.0,0.0,0.0,0.0,-0.014397273,-0.0030665577,-0.701598
182989268,0.11571313,0.4376522,nan,-3.0890777,0.0,-0.04406102,-0.116604924,-0.13253021,0.0,0.0,0.0,0.0,0.0,0.0,-0.017803054,0.002728405,-0.7020405
183109441,0.11571313,0.4376522,nan,-3.0890777,0.0,-0.03163042,-0.093979,-0.13253021,0.0,0.0,0.0,0.0,0.0,0.0,-0.019603973,-9.940949e-05,-0.7020702
183210839,0.11571313,0.4376522,nan,-3.0890777,0.0,-0.024634741,-0.07633863,-0.13253021,0.0,0.0,0.0,0.0,0.0,0.0,-0.017591326,-0.0027197367,-0.7044868
183309912,0.11571313,0.4376522,nan,-3.0890777,0.0,-0.020887379,-0.0646988,-0.13253021,0.0,0.0,0.0,0.0,0.0,0.0,-0.018302182,-0.0031073722,-0.705387
183409860,0.11571313,0.4376522,nan,-3.0890777,0.0,-0.019779693,-0.057225168,-0.13253021,0.0,0.0,0.0,0.0,0.0,0.0,-0.020553583,-0.003223835,-0.7095554
183510070,0.11571313,0.4376522,nan,-3.0890777,0.0,-0.021181501,-0.055288557,-0.13253021,0.0,0.0,0.0,0.0,0.0,0.0,-0.020338947,-0.00416965,-0.7084749
183610075,0.11571313,0.4376522,nan,-3.0890777,0.0,-0.023761578,-0.05878288,-0.13253021,0.0,0.0,0.0,0.0,0.0,0.0,-0.017481087,-0.010022164,-0.7101362
183710126,0.11571313,0.4376522,nan,-3.0890777,0.0,-0.02591233,-0.066047646,-0.13253021,0.0,0.0,0.0,0.0,0.0,0.0,-0.01997447,-0.009606056,-0.7084999
183810871,0.11571313,0.4376522,nan,-3.0890777,0.0,-0.027069278,-0.07812507,-0.13253021,0.0,0.0,0.0,0.0,0.0,0.0,-0.01958357,-0.016447933,-0.70846856
183910536,0.11571313,0.4376522,nan,-3.0890777,0.0,-0.026542544,-0.09109687,-0.13253021,0.0,0.0,0.0,0.0,0.0,0.0,-0.020153604,-0.018204339,-0.70876837
184010403,0.11571313,0.4376522,nan,-3.0890777,0.0,-0.024282593,-0.105826974,-0.13253021,0.0,0.0,0.0,0.0,0.0,0.0,-0.021424336,-0.019917767,-0.71046025
184110583,0.11571313,0.4376522,nan,-3.0890777,0.0,-0.020326769,-0.11825065,-0.13253021,0.0,0.0,0.0,0.0,0.0,0.0,-0.015618397,-0.019257778,-0.7127809
184210717,0.11571313,0.4376522,nan,-3.0890777,0.0,-0.013954145,-0.12936659,-0.13253021,0.0,0.0,0.0,0.0,0.0,0.0,-0.019989317,-0.021695858,-0.7149522
184310850,0.11571313,0.4376522,nan,-3.0890777,0.0,-0.006896655,-0.13759367,-0.13253021,0.0,0.0,0.0,0.0,0.0,0.0,-0.011771976,-0.022478934,-0.720021
184430822,0.11571313,0.4376522,nan,-3.0890777,0.0,0.003489536,-0.14483877,-0.13253021,0.0,0.0,0.0,0.0,0.0,0.0,-0.015093712,-0.018425994,-0.7273625
184530874,0.11571313,0.4376522,nan,-3.0890777,0.0,0.013054532,-0.14765696,-0.13253021,0.0,0.0,0.0,0.0,0.0,0.0,-0.0129044205,-0.022234512,-0.7325272
184630916,0.11571313,0.4376522,nan,-3.0890777,0.0,0.021889094,-0.14754535,-0.13253021,0.0,0.0,0.0,0.0,0.0,0.0,-0.010480793,-0.017073346,-0.7371298
184731003,0.11571313,0.4376522,nan,-3.0890777,0.0,0.030952673,-0.14551423,-0.13253021,0.0,0.0,0.0,0.0,0.0,0.0,-0.009745129,-0.017558033,-0.74076945
184831214,0.11571313,0.4376522,nan,-3.0890777,0.0,0.0382058,-0.14239429,-0.13253021,0.0,0.0,0.0,0.0,0.0,0.0,-0.007319877,-0.016357645,-0.74036735
184931347,0.11571313,0.4376522,nan,-3.0890777,0.0,0.04560406,-0.13843709,-0.13253021,0.0,0.0,0.0,0.0,0.0,0.0,-0.0057174824,-0.013668861,-0.73933244
185031744,0.11571313,0.4376522,nan,-3.0890777,0.0,0.051472683,-0.13425724,-0.13253021,0.0,0.0,0.0,0.0,0.0,0.0,-0.010708211,-0.015642073,-0.73898286
185131751,0.11571313,0.4376522,nan,-3.0890777,0.0,0.05711271,-0.12916048,-0.13253021,0.0,0.0,0.0,0.0,0.0,0.0,-0.01217686,-0.0131991375,-0.7387558
185231740,0.11571313,0.4376522,nan,-3.0890777,0.0,0.06177075,-0.12393733,-0.13253021,0.0,0.0,0.0,0.0,0.0,0.0,-0.010441505,-0.014003487,-0.7378268
185331725,0.11571313,0.4376522,nan,-3.0890777,0.0,0.06627443,-0.11784092,-0.13253021,0.0,0.0,0.0,0.0,0.0,0.0,-0.011598086,-0.012522026,-0.734658
185431780,0.11571313,0.4376522,nan,-3.0890777,0.0,0.06947672,-0.112531476,-0.13253021,0.0,0.0,0.0,0.0,0.0,0.0,-0.009742831,-0.011658061,-0.7314207
185531820,0.11571313,0.4376522,nan,-3.0890777,0.0,0.07164442,-0.106501654,-0.13253021,0.0,0.0,0.0,0.0,0.0,0.0,-0.013791022,-0.012072003,-0.7297713
185632508,0.11571313,0.4376522,nan,-3.0890777,0.0,0.07251937,-0.1004066,-0.13253021,0.0,0.0,0.0,0.0,0.0,0.0,-0.010969216,-0.010356236,-0.7266594
185752488,0.11571313,0.4376522,nan,-3.0890777,0.0,0.07278786,-0.09294062,-0.13253021,0.0,0.0,0.0,0.0,0.0,0.0,-0.010390186,-0.009112841,-0.7234049
185852373,0.11571313,0.4376522,nan,-3.0890777,0.0,0.07280285,-0.0862941,-0.13253021,0.0,0.0,0.0,0.0,0.0,0.0,-0.014905676,-0.00597988,-0.7179129
185952625,0.11571313,0.4376522,nan,-3.0890777,0.0,0.07236073,-0.07896764,-0.13253021,0.0,0.0,0.0,0.0,0.0,0.0,-0.014083703,-0.0066323024,-0.7132055
186052404,0.11571313,0.4376522,nan,-3.0890777,0.0,0.07137763,-0.07188155,-0.13253021,0.0,0.0,0.0,0.0,0.0,0.0,-0.011703694,-0.0033491384,-0.7096176
186152490,0.11571313,0.4376522,nan,-3.0890777,0.0,0.0703076,-0.06282821,-0.13253021,0.0,0.0,0.0,0.0,0.0,0.0,-0.009034109,-0.002674142,-0.7077078
186252528,0.11571313,0.4376522,nan,-3.0890777,0.0,0.07013912,-0.053396422,-0.13253021,0.0,0.0,0.0,0.0,0.0,0.0,-0.011765247,-0.0010166387,-0.70752954
186352651,0.11571313,0.4376522,nan,-3.0890777,0.0,0.070689715,-0.041889522,-0.13253021,0.0,0.0,0.0,0.0,0.0,0.0,-0.01006549,0.002001991,-0.70907044
186452808,0.11571313,0.4376522,nan,-3.0890777,0.0,0.07255505,-0.030818203,-0.13253021,0.0,0.0,0.0,0.0,0.0,0.0,-0.008417133,0.00015687617,-0.7140031
186553005,0.11571313,0.4376522,nan,-3.0890777,0.0,0.07588038,-0.01803057,-0.13253021,0.0,0.0,0.0,0.0,0.0,0.0,-0.007163097,0.0029803007,-0.71639514
186653327,0.11571313,0.4376522,nan,-3.0890777,0.0,0.08044877,-0.0065705553,-0.13253021,0.0,0.0,0.0,0.0,0.0,0.0,-0.0051756212,0.003328294,-0.7171387
186753136,0.11571313,0.4376522,nan,-3.0890777,0.0,0.086060114,0.005368872,-0.13253021,0.0,0.0,0.0,0.0,0.0,0.0,-0.0055081984,0.0060457657,-0.71788514
186853279,0.11571313,0.4376522,nan,-3.0890777,0.0,0.09114322,0.015369875,-0.13253021,0.0,0.0,0.0,0.0,0.0,0.0,-0.006377928,0.0015535573,-0.71418756
186953441,nan,nan,nan,-3.0890777,0.0,0.44137466,0.023200097,-0.13253021,0.0,0.0,0.0,0.0,0.0,0.0,0.025772244,0.0042531197,-0.7166213
187053574,nan,nan,nan,-3.0890777,0.0,0.48029158,0.025245696,-0.13253021,0.0,0.0,0.0,0.0,0.0,0.0,0.021726198,-0.0019183673,-0.7140515
187153874,nan,nan,nan,-3.0890777,0.0,0.40238574,0.02115071,-0.13253021,0.0,0.0,0.0,0.0,0.0,0.0,0.009966655,-0.0043943874,-0.71316165
187273821,nan,nan,nan,-3.0890777,0.0,0.40590435,0.02133566,-0.13253021,0.0,0.0,0.0,0.0,0.0,0.0,0.0061016064,-0.005309855,-0.7164548
187374656,nan,nan,nan,-3.0890777,0.0,0.37212598,0.01956016,-0.13253021,0.0,0.0,0.0,0.0,0.0,0.0,-0.00039750338,-0.0019043414,-0.71988547
187474043,nan,nan,nan,-3.0890777,0.0,0.35204887,0.018504841,-0.13253021,0.0,0.0,0.0,0.0,0.0,0.0,-0.0037570326,-0.0018577203,-0.71951544
187574078,nan,nan,nan,-3.0890777,0.0,0.35180604,0.018492077,-0.13253021,0.0,0.0,0.0,0.0,0.0,0.0,-0.003028133,0.0019660029,-0.72028476
187674104,nan,nan,nan,-3.0890777,0.0,0.32422858,0.017042516,-0.13253021,0.0,0.0,0.0,0.0,0.0,0.0,-0.010714795,-0.002947139,-0.7164213
187774383,nan,nan,nan,-3.0890777,0.0,0.32474032,0.017069414,-0.13253021,0.0,0.0,0.0,0.0,0.0,0.0,-0.008701145,0.002978046,-0.7166226
187874265,nan,nan,nan,-3.0890777,0.0,0.3247547,0.017070169,-0.13253021,0.0,0.0,0.0,0.0,0.0,0.0,-0.008153807,-0.002779979,-0.7144174
187974364,nan,nan,nan,-3.0890777,0.0,0.32475504,0.017070187,-0.13253021,0.0,0.0,0.0,0.0,0.0,0.0,-0.009693613,-0.0013202487,-0.7135457
188075167,nan,nan,nan,-3.0890777,0.0,0.3247549,0.01707018,-0.13253021,0.0,0.0,0.0,0.0,0.0,0.0,-0.009448918,-0.007976769,-0.71477705
188175179,nan,nan,nan,-3.0890777,0.0,0.3247549,0.01707018,-0.13253021,0.0,0.0,0.0,0.0,0.0,0.0,-0.010703696,-0.010166815,-0.7113278
188275392,nan,nan,nan,-3.0890777,0.0,0.3247549,0.01707018,-0.13253021,0.0,0.0,0.0,0.0,0.0,0.0,-0.0077736108,-0.012202153,-0.70877934
188375513,nan,nan,nan,-3.0890777,0.0,0.3247549,0.01707018,-0.13253021,0.0,0.0,0.0,0.0,0.0,0.0,-0.0012284089,-0.014612114,-0.7072188
188495435,nan,nan,nan,-3.0890777,0.0,0.3247549,0.01707018,-0.13253021,0.0,0.0,0.0,0.0,0.0,0.0,-0.0051414156,-0.018764613,-0.70597076
188594979,nan,nan,nan,-3.0890777,0.0,0.3247549,0.01707018,-0.13253021,0.0,0.0,0.0,0.0,0.0,0.0,-0.0055323867,-0.01496896,-0.7032789
188695336,nan,nan,nan,-3.0890777,0.0,0.3191644,0.016776325,-0.13253021,0.0,0.0,0.0,0.0,0.0,0.0,-0.0065279296,-0.016813274,-0.70361304
188795182,nan,nan,nan,-3.0890777,0.0,0.22479697,0.011816064,-0.13253021,0.0,0.0,0.0,0.0,0.0,0.0,-0.015401365,-0.021824934,-0.7042022
188895521,nan,nan,nan,-3.0890777,0.0,0.08140802,0.051140476,-0.13253021,0.0,0.0,0.0,0.0,0.0,0.0,-0.026834486,-0.020822328,-0.7105482
188995474,0.4294099,0.49538463,nan,-3.0890777,0.0,-0.016477788,-0.013175085,-0.13253021,0.0,0.0,0.0,0.0,0.0,0.0,-0.035390392,-0.019819308,-0.7156122
189095556,0.4294099,0.49538463,nan,-3.0890777,0.0,-0.037158694,-0.029462814,-0.13253021,0.0,0.0,0.0,0.0,0.0,0.0,-0.035695896,-0.026331902,-0.7176938
189197043,0.4294099,0.49538463,nan,-3.0890777,0.0,-0.056258958,-0.04344321,-0.13253021,0.0,0.0,0.0,0.0,0.0,0.0,-0.033561915,-0.019525401,-0.71826017
189295613,0.4294099,0.49538463,nan,-3.0890777,0.0,-0.072487146,-0.05363051,-0.13253021,0.0,0.0,0.0,0.0,0.0,0.0,-0.032046814,-0.02159888,-0.7223709
189396640,0.4294099,0.49538463,nan,-3.0890777,0.0,-0.08707976,-0.06076196,-0.13253021,0.0,0.0,0.0,0.0,0.0,0.0,-0.031393174,-0.014733117,-0.72266734
189495766,0.4294099,0.49538463,nan,-3.0890777,0.0,-0.09722794,-0.06296714,-0.13253021,0.0,0.0,0.0,0.0,0.0,0.0,-0.030376181,-0.014869954,-0.72642076
189596548,0.4294099,0.49538463,nan,-3.0890777,0.0,-0.10437377,-0.061311215,-0.13253021,0.0,0.0,0.0,0.0,0.0,0.0,-0.026715074,-0.008965476,-0.72574127
189696227,0.4294099,0.49538463,nan,-3.0890777,0.0,-0.106524706,-0.05574005,-0.13253021,0.0,0.0,0.0,0.0,0.0,0.0,-0.02337667,-0.005784954,-0.7267872
189796233,0.4294099,0.49538463,nan,-3.0890777,0.0,-0.105332024,-0.046060108,-0.13253021,0.0,0.0,0.0,0.0,0.0,0.0,-0.02143553,-0.007654325,-0.72290254
189916374,0.4294099,0.49538463,nan,-3.0890777,0.0,-0.10204078,-0.031642344,-0.13253021,0.0,0.0,0.0,0.0,0.0,0.0,-0.021462975,-0.0017398493,-0.7232424
190016462,0.4294099,0.49538463,nan,-3.0890777,0.0,-0.09864242,-0.019271722,-0.13253021,0.0,0.0,0.0,0.0,0.0,0.0,-0.021507524,-0.0008245483,-0.7271226
190116403,0.4294099,0.49538463,nan,-3.0890777,0.0,-0.09486829,-0.0067697316,-0.13253021,0.0,0.0,0.0,0.0,0.0,0.0,-0.020053303,-0.0021190327,-0.73157924
190216587,0.4294099,0.49538463,nan,-3.0890777,0.0,-0.09172433,0.0026542975,-0.13253021,0.0,0.0,0.0,0.0,0.0,0.0,-0.020946983,-0.0051461,-0.734107
190316608,0.4294099,0.49538463,nan,-3.0890777,0.0,-0.0891832,0.0089533385,-0.13253021,0.0,0.0,0.0,0.0,0.0,0.0,-0.02099031,-0.0089740995,-0.7337751
190416913,0.4294099,0.49538463,nan,-3.0890777,0.0,-0.087785706,0.010216516,-0.13253021,0.0,0.0,0.0,0.0,0.0,0.0,-0.019145679,-0.010443578,-0.7363873
190517034,0.4294099,0.49538463,nan,-3.0890777,0.0,-0.087491825,0.005314088,-0.13253021,0.0,0.0,0.0,0.0,0.0,0.0,-0.019040925,-0.012562167,-0.7380278
190617116,0.4294099,0.49538463,nan,-3.0890777,0.0,-0.08804346,-0.0046214014,-0.13253021,0.0,0.0,0.0,0.0,0.0,0.0,-0.021747254,-0.017101252,-0.7393719
190717103,0.4294099,0.49538463,nan,-3.0890777,0.0,-0.088976,-0.020127261,-0.13253021,0.0,0.0,0.0,0.0,0.0,0.0,-0.01993364,-0.021771902,-0.7444852
190817298,0.4294099,0.49538463,nan,-3.0890777,0.0,-0.089823216,-0.03674171,-0.13253021,0.0,0.0,0.0,0.0,0.0,0.0,-0.020033294,-0.023185588,-0.7477084
190917311,0.4294099,0.49538463,nan,-3.0890777,0.0,-0.090438046,-0.05621553,-0.13253021,0.0,0.0,0.0,0.0,0.0,0.0,-0.020432876,-0.025875095,-0.7476202
191017400,0.4294099,0.49538463,nan,-3.0890777,0.0,-0.08989643,-0.074355215,-0.13253021,0.0,0.0,0.0,0.0,0.0,0.0,-0.023898233,-0.027551252,-0.74833
191117580,0.4294099,0.49538463,nan,-3.0890777,0.0,-0.08791645,-0.09157119,-0.13253021,0.0,0.0,0.0,0.0,0.0,0.0,-0.021213831,-0.025239674,-0.74978745
191217962,0.4294099,0.49538463,nan,-3.0890777,0.0,-0.084424876,-0.103331,-0.13253021,0.0,0.0,0.0,0.0,0.0,0.0,-0.016495092,-0.023517285,-0.7484198
191318373,0.4294099,0.49538463,nan,-3.0890777,0.0,-0.078355074,-0.109244116,-0.13253021,0.0,0.0,0.0,0.0,0.0,0.0,-0.0145953875,-0.01852758,-0.74445575
191438174,0.4294099,0.49538463,nan,-3.0890777,0.0,-0.06793692,-0.10710643,-0.13253021,0.0,0.0,0.0,0.0,0.0,0.0,-0.013828838,-0.0120019885,-0.7417982
191538090,0.4294099,0.49538463,nan,-3.0890777,0.0,-0.057433944,-0.09778928,-0.13253021,0.0,0.0,0.0,0.0,0.0,0.0,-0.012767182,-0.007837083,-0.7411606
191638126,0.4294099,0.49538463,nan,-3.0890777,0.0,-0.044295438,-0.08146616,-0.13253021,0.0,0.0,0.0,0.0,0.0,0.0,-0.00822001,-0.0015740683,-0.7390835
191738176,0.4294099,0.49538463,nan,-3.0890777,0.0,-0.03113632,-0.061290998,-0.13253021,0.0,0.0,0.0,0.0,0.0,0.0,-0.007102211,0.004041137,-0.74106634
191838248,0.4294099,0.49538463,nan,-3.0890777,0.0,-0.015602602,-0.035846535,-0.13253021,0.0,0.0,0.0,0.0,0.0,0.0,-0.0021490268,0.0050583445,-0.74579537
191938250,0.4294099,0.49538463,nan,-3.0890777,0.0,-0.00024020075,-0.011661967,-0.13253021,0.0,0.0,0.0,0.0,0.0,0.0,-0.0009893393,0.00835653,-0.7524498
192038575,0.4294099,0.49538463,nan,-3.0890777,0.0,0.016675407,0.013699767,-0.13253021,0.0,0.0,0.0,0.0,0.0,0.0,-0.0011379868,0.01112953,-0.75583047
192138554,0.4294099,0.49538463,nan,-3.0890777,0.0,0.03152083,0.0359349,-0.13253021,0.0,0.0,0.0,0.0,0.0,0.0,-0.0013339659,0.008979907,-0.75203085
192238704,0.4294099,0.49538463,nan,-3.0890777,0.0,0.043005817,0.052417304,-0.13253021,0.0,0.0,0.0,0.0,0.0,0.0,-0.0018043295,0.0064816307,-0.7488849
192338725,0.4294099,0.49538463,nan,-3.0890777,0.0,0.05284541,0.06433351,-0.13253021,0.0,0.0,0.0,0.0,0.0,0.0,-0.003131996,0.008898233,-0.74697053
192458956,0.4294099,0.49538463,nan,-3.0890777,0.0,0.06112877,0.07170802,-0.13253021,0.0,0.0,0.0,0.0,0.0,0.0,-0.0046234224,0.0033042375,-0.74697435
192558816,0.4294099,0.49538463,nan,-3.0890777,0.0,0.06573862,0.07216473,-0.13253021,0.0,0.0,0.0,0.0,0.0,0.0,-0.003922467,0.0013820664,-0.7407299
192659507,0.4294099,0.49538463,nan,-3.0890777,0.0,0.06915279,0.06817471,-0.13253021,0.0,0.0,0.0,0.0,0.0,0.0,-0.002738622,0.003096349,-0.7373063
192759034,0.4294099,0.49538463,nan,-3.0890777,0.0,0.07162402,0.06279729,-0.13253021,0.0,0.0,0.0,0.0,0.0,0.0,-0.00085303746,0.001802552,-0.7390607
192859200,0.4294099,0.49538463,nan,-3.0890777,0.0,0.074648075,0.05730297,-0.13253021,0.0,0.0,0.0,0.0,0.0,0.0,0.00046567712,-0.00087303296,-0.7410936
192959413,0.4294099,0.49538463,nan,-3.0890777,0.0,0.07847283,0.05416759,-0.13253021,0.0,0.0,0.0,0.0,0.0,0.0,-0.00059818476,0.00074736215,-0.7416708
193059473,0.4294099,0.49538463,nan,-3.0890777,0.0,0.084468305,0.053345293,-0.13253021,0.0,0.0,0.0,0.0,0.0,0.0,-0.00081218965,0.0045323605,-0.73909056
193159591,0.4294099,0.49538463,nan,-3.0890777,0.0,0.09200014,0.05553643,-0.13253021,0.0,0.0,0.0,0.0,0.0,0.0,0.0031025084,0.003964467,-0.7385291
193259661,0.4294099,0.49538463,nan,-3.0890777,0.0,0.1008978,0.0617436,-0.13253021,0.0,0.0,0.0,0.0,0.0,0.0,0.00720267,0.0052648946,-0.73353106
193359623,0.4294099,0.49538463,nan,-3.0890777,0.0,0.1097254,0.06919639,-0.13253021,0.0,0.0,0.0,0.0,0.0,0.0,0.005959832,0.008014456,-0.7318188
193459711,0.4294099,0.49538463,nan,-3.0890777,0.0,0.11931876,0.07933862,-0.13253021,0.0,0.0,0.0,0.0,0.0,0.0,0.0063396553,0.0059965514,-0.7322186
193580590,0.4294099,0.49538463,nan,-3.0890777,0.0,0.12945634,0.09266333,-0.13253021,0.0,0.0,0.0,0.0,0.0,0.0,0.0077094426,0.008849864,-0.72714716
193680018,0.4294099,0.49538463,nan,-3.0890777,0.0,0.13654411,0.10333658,-0.13253021,0.0,0.0,0.0,0.0,0.0,0.0,0.0075611677,0.012646669,-0.7243522
193780363,0.4294099,0.49538463,nan,-3.0890777,0.0,0.14205816,0.11388774,-0.13253021,0.0,0.0,0.0,0.0,0.0,0.0,0.006059384,0.013386216,-0.72589725
193880265,0.4294099,0.49538463,nan,-3.0890777,0.0,0.14502174,0.12259516,-0.13253021,0.0,0.0,0.0,0.0,0.0,0.0,0.005846381,0.013648115,-0.7242955
193981400,0.4294099,0.49538463,nan,-3.0890777,0.0,0.14665943,0.12998694,-0.13253021,0.0,0.0,0.0,0.0,0.0,0.0,0.00696047,0.015178319,-0.72255945
194080447,0.4294099,0.49538463,nan,-3.0890777,0.0,0.14643922,0.1361446,-0.13253021,0.0,0.0,0.0,0.0,0.0,0.0,0.00344971,0.014539212,-0.7228322
194180472,0.4294099,0.49538463,nan,-3.0890777,0.0,0.14400446,0.14113556,-0.13253021,0.0,0.0,0.0,0.0,0.0,0.0,0.0045710783,0.014555657,-0.72227407
194280613,0.4294099,0.49538463,nan,-3.0890777,0.0,0.1405478,0.14323261,-0.13253021,0.0,0.0,0.0,0.0,0.0,0.0,-0.0019329116,0.00997231,-0.72282517
194380758,0.4294099,0.49538463,nan,-3.0890777,0.0,0.13606973,0.1437429,-0.13253021,0.0,0.0,0.0,0.0,0.0,0.0,-0.0021306118,0.008681394,-0.7225294
194480819,0.4294099,0.49538463,nan,-3.0890777,0.0,0.13170221,0.14122507,-0.13253021,0.0,0.0,0.0,0.0,0.0,0.0,-0.0018791645,0.006160478,-0.72511613
194581232,0.4294099,0.49538463,nan,-3.0890777,0.0,0.12758037,0.13571048,-0.13253021,0.0,0.0,0.0,0.0,0.0,0.0,-0.0028556492,0.0013338231,-0.7239812
194681346,0.4294099,0.49538463,nan,-3.0890777,0.0,0.12390494,0.12735371,-0.13253021,0.0,0.0,0.0,0.0,0.0,0.0,-0.0026865043,0.0021690573,-0.72408396
194801282,0.4294099,0.49538463,nan,-3.0890777,0.0,0.11821221,0.11386869,-0.13253021,0.0,0.0,0.0,0.0,0.0,0.0,-0.0024209186,-0.004649473,-0.7251087
194901185,0.4294099,0.49538463,nan,-3.0890777,0.0,0.11305797,0.10069672,-0.13253021,0.0,0.0,0.0,0.0,0.0,0.0,-0.0017575324,-0.0041959574,-0.72347003
195002666,0.4294099,0.49538463,nan,-3.0890777,0.0,0.10607813,0.08518489,-0.13253021,0.0,0.0,0.0,0.0,0.0,0.0,-0.0112855155,-0.008315409,-0.7217028
195101345,0.4294099,0.49538463,nan,-3.0890777,0.0,0.09898372,0.06962365,-0.13253021,0.0,0.0,0.0,0.0,0.0,0.0,-0.0074856216,-0.011436083,-0.7223809
195201459,0.4294099,0.49538463,nan,-3.0890777,0.0,0.08989816,0.05310744,-0.13253021,0.0,0.0,0.0,0.0,0.0,0.0,-0.011162426,-0.009576013,-0.7198524
195301774,0.4294099,0.49538463,nan,-3.0890777,0.0,0.08001777,0.03839107,-0.13253021,0.0,0.0,0.0,0.0,0.0,0.0,-0.013120323,-0.01280716,-0.71665597
195401755,0.4294099,0.49538463,nan,-3.0890777,0.0,0.06834397,0.023603009,-0.13253021,0.0,0.0,0.0,0.0,0.0,0.0,-0.015121087,-0.014272874,-0.71684206
195501865,0.4294099,0.49538463,nan,-3.0890777,0.0,0.05650043,0.011559166,-0.13253021,0.0,0.0,0.0,0.0,0.0,0.0,-0.014114818,-0.01406425,-0.7189309
195601921,0.4294099,0.49538463,nan,-3.0890777,0.0,0.042669863,-0.0012291461,-0.13253021,0.0,0.0,0.0,0.0,0.0,0.0,-0.019370519,-0.017819926,-0.7173419
195701992,0.4294099,0.49538463,nan,-3.0890777,0.0,0.028794505,-0.011486998,-0.13253021,0.0,0.0,0.0,0.0,0.0,0.0,-0.02335866,-0.016388182,-0.7179266
195802087,0.4294099,0.49538463,nan,-3.0890777,0.0,0.011870176,-0.021495702,-0.13087082,0.0,0.0,0.0,0.0,0.0,0.0,-0.028495431,-0.015229788,-0.72209716
195922254,0.4294099,0.49538463,nan,-3.0890777,0.0,-0.010842782,-0.032125294,-0.12455113,0.0,0.0,0.0,0.0,0.0,0.0,-0.030678345,-0.014007543,-0.7258178
196022403,0.4294099,0.49538463,nan,-3.0890777,0.0,-0.030918034,-0.040243253,-0.12449789,0.0,0.0,0.0,0.0,0.0,0.0,-0.034524918,-0.017288433,-0.7285141
196122601,0.4294099,0.49538463,nan,-3.0890777,0.0,-0.054289673,-0.048105665,-0.1228385,0.0,0.0,0.0,0.0,0.0,0.0,-0.039176147,-0.018945592,-0.7282375
196222713,0.4294099,0.49538463,-0.8911255,-3.0890777,0.0,-0.076609686,-0.05429228,0.0014577508,0.0,0.0,0.0,0.0,0.0,0.0,-0.03591542,-0.015097068,-0.7048764
196322796,0.4294099,0.49538463,-0.8911255,-3.0890777,0.0,-0.10109855,-0.0614299,0.0051680803,0.0,0.0,0.0,0.0,0.0,0.0,-0.043381065,-0.014493432,-0.70604014
196422806,0.4294099,0.49538463,-0.8911255,-3.0890777,0.0,-0.12310122,-0.067374445,0.0069494247,0.0,0.0,0.0,0.0,0.0,0.0,-0.04035098,-0.01935203,-0.7109537
196522870,0.4294099,0.49538463,-0.8911255,-3.0890777,0.0,-0.14467296,-0.07362045,0.006461382,0.0,0.0,0.0,0.0,0.0,0.0,-0.041258037,-0.01704412,-0.7155465
196622913,0.4294099,0.49538463,-0.8911255,-3.0890777,0.0,-0.16138543,-0.07829984,0.004274726,0.0,0.0,0.0,0.0,0.0,0.0,-0.04070672,-0.02074854,-0.7167506
196722989,0.4294099,0.49538463,-0.8911255,-3.0890777,0.0,-0.1760323,-0.082117684,0.0011565089,0.0,0.0,0.0,0.0,0.0,0.0,-0.03656057,-0.018169053,-0.7208024
196823300,0.4294099,0.49538463,-0.8911255,-3.0890777,0.0,-0.18531576,-0.08516079,-0.0031013489,0.0,0.0,0.0,0.0,0.0,0.0,-0.03409127,-0.012120675,-0.724681
196923370,0.4294099,0.49538463,-0.8911255,-3.0890777,0.0,-0.18964328,-0.08670664,-0.009222984,0.0,0.0,0.0,0.0,0.0,0.0,-0.033338748,-0.012179542,-0.7292667
197023411,0.4294099,0.49538463,-0.8911255,-3.0890777,0.0,-0.18822801,-0.08715007,-0.015463591,0.0,0.0,0.0,0.0,0.0,0.0,-0.027535342,-0.015204626,-0.7318987
197123530,0.4294099,0.49538463,-0.8911255,-3.0890777,0.0,-0.18130527,-0.086101666,-0.023300469,0.0,0.0,0.0,0.0,0.0,0.0,-0.029240184,-0.018027173,-0.7356186
197223744,0.4294099,0.49538463,-0.8911255,-3.0890777,0.0,-0.17089692,-0.08478334,-0.031631887,0.0,0.0,0.0,0.0,0.0,0.0,-0.026276775,-0.01572617,-0.74020624
197344244,0.4294099,0.49538463,-0.8911255,-3.0890777,0.0,-0.15583698,-0.08199934,-0.041416585,0.0,0.0,0.0,0.0,0.0,0.0,-0.020555496,-0.011703364,-0.74212825
197443810,0.4294099,0.49538463,-0.8911255,-3.0890777,0.0,-0.14354569,-0.07918618,-0.04821533,0.0,0.0,0.0,0.0,0.0,0.0,-0.01975041,-0.012289802,-0.74139804
197544209,0.4294099,0.49538463,-0.8911255,-3.0890777,0.0,-0.1315891,-0.07582711,-0.053996682,0.0,0.0,0.0,0.0,0.0,0.0,-0.018321868,-0.0070466828,-0.74329734
197644335,0.4294099,0.49538463,-0.8911255,-3.0890777,0.0,-0.12198198,-0.07196623,-0.059015334,0.0,0.0,0.0,0.0,0.0,0.0,-0.019411692,-0.009949092,-0.74443775
197744268,0.4294099,0.49538463,-0.8911255,-3.0890777,0.0,-0.113487974,-0.06673634,-0.06435758,0.0,0.0,0.0,0.0,0.0,0.0,-0.016425893,-0.0071873195,-0.7446585
197844290,0.4294099,0.49538463,-0.8911255,-3.0890777,0.0,-0.10686433,-0.06062068,-0.06856412,0.0,0.0,0.0,0.0,0.0,0.0,-0.016416013,-0.006300079,-0.7451139
197944388,0.4294099,0.49538463,-0.8911255,-3.0890777,0.0,-0.10076583,-0.0533744,-0.07309097,0.0,0.0,0.0,0.0,0.0,0.0,-0.016898654,-0.0022637816,-0.7456448
198046059,0.4294099,0.49538463,-0.8911255,-3.0890777,0.0,-0.095040254,-0.04592721,-0.07857758,0.0,0.0,0.0,0.0,0.0,0.0,-0.013189892,-0.008181632,-0.7508964
198144514,0.4294099,0.49538463,-0.8911255,-3.0890777,0.0,-0.08967316,-0.039498642,-0.08578318,0.0,0.0,0.0,0.0,0.0,0.0,-0.0150910765,-0.002622283,-0.7564905
198245393,0.4294099,0.49538463,-0.8911255,-3.0890777,0.0,-0.08333225,-0.033348776,-0.09610164,0.0,0.0,0.0,0.0,0.0,0.0,-0.013747975,-0.0037875043,-0.7614197
198344645,0.4294099,0.49538463,-0.8911255,-3.0890777,0.0,-0.07640222,-0.028717296,-0.108085334,0.0,0.0,0.0,0.0,0.0,0.0,-0.015402723,-0.006812685,-0.76729906
198446582,0.4294099,0.49538463,-0.8911255,-3.0890777,0.0,-0.06735845,-0.02512312,-0.12440926,0.0,0.0,0.0,0.0,0.0,0.0,-0.011735655,-0.006757893,-0.77923715
198565555,0.4294099,0.49538463,-0.8911255,-3.0890777,0.0,-0.05481192,-0.023655301,-0.1497708,0.0,0.0,0.0,0.0,0.0,0.0,-0.010508109,-0.009824801,-0.7929232
198665092,0.4294099,0.49538463,-0.8911255,-3.0890777,0.0,-0.044100195,-0.024618765,-0.17364103,0.0,0.0,0.0,0.0,0.0,0.0,-0.009780115,-0.010644307,-0.80189896
198765855,0.4294099,0.49538463,-0.8911255,-3.0890777,0.0,-0.033099093,-0.02756918,-0.2017054,0.0,0.0,0.0,0.0,0.0,0.0,-0.008795554,-0.013141673,-0.8144833
198865162,0.4294099,0.49538463,-0.8911255,-3.0890777,0.0,-0.02364811,-0.03243356,-0.22979373,0.0,0.0,0.0,0.0,0.0,0.0,-0.007717693,-0.017781012,-0.824912
198965734,0.4294099,0.49538463,-0.8911255,-3.0890777,0.0,-0.01380339,-0.03896654,-0.2602694,0.0,0.0,0.0,0.0,0.0,0.0,-0.007484908,-0.0151400305,-0.82878095
199065387,0.4294099,0.49538463,-0.8911255,-3.0890777,0.0,-0.0055926233,-0.044143032,-0.28482413,0.0,0.0,0.0,0.0,0.0,0.0,-0.010710047,-0.015718307,-0.82642186
199165437,0.4294099,0.49538463,-0.8911255,-3.0890777,0.0,0.002759987,-0.04936256,-0.3052807,0.0,0.0,0.0,0.0,0.0,0.0,-0.0057491,-0.010284105,-0.82267594
199265796,0.4294099,0.49538463,-0.8911255,-3.0890777,0.0,0.010141631,-0.05077998,-0.31640673,0.0,0.0,0.0,0.0,0.0,0.0,-0.0050531756,-0.01234532,-0.8112469
199365847,0.4294099,0.49538463,-0.8911255,-3.0890777,0.0,0.018501375,-0.049267597,-0.3173508,0.0,0.0,0.0,0.0,0.0,0.0,0.0010662833,-0.008981787,-0.7954193
199465819,0.4294099,0.49538463,-0.8911255,-3.0890777,0.0,0.027411,-0.043439362,-0.30798364,0.0,0.0,0.0,0.0,0.0,0.0,0.0005378863,-0.0022146413,-0.77921647
199565974,0.4294099,0.49538463,-0.8911255,-3.0890777,0.0,0.038985256,-0.032648616,-0.28805172,0.0,0.0,0.0,0.0,0.0,0.0,0.0022300314,-0.0025717593,-0.7605823
199665989,0.4294099,0.49538463,-0.8911255,-3.0890777,0.0,0.05119076,-0.019169176,-0.26307523,0.0,0.0,0.0,0.0,0.0,0.0,0.00083679333,0.005455422,-0.7446007
199786106,0.4294099,0.49538463,-0.8911255,-3.0890777,0.0,0.06714466,0.0018770143,-0.22578579,0.0,0.0,0.0,0.0,0.0,0.0,0.0051719695,0.0056298543,-0.7273339
199886126,0.4294099,0.49538463,-0.8911255,-3.0890777,0.0,0.08123293,0.022736967,-0.19196022,0.0,0.0,0.0,0.0,0.0,0.0,0.0027623288,0.012471281,-0.7180568
199986353,0.4294099,0.49538463,-0.8911255,-3.0890777,0.0,0.09355689,0.043861836,-0.1634599,0.0,0.0,0.0,0.0,0.0,0.0,0.004365787,0.013478855,-0.7155777
200086754,0.4294099,0.49538463,-0.8911255,-3.0890777,0.0,0.10625353,0.066332385,-0.13878798,0.0,0.0,0.0,0.0,0.0,0.0,0.0067329025,0.01881712,-0.71577805
200186768,0.4294099,0.49538463,-0.8911255,-3.0890777,0.0,0.11681874,0.08699299,-0.12404251,0.0,0.0,0.0,0.0,0.0,0.0,0.0045680655,0.019567944,-0.722473
200286931,0.4294099,0.49538463,-0.8911255,-3.0890777,0.0,0.12672031,0.108259335,-0.11609,0.0,0.0,0.0,0.0,0.0,0.0,0.0075230952,0.020546755,-0.7286205
200387016,0.4294099,0.49538463,-0.8911255,-3.0890777,0.0,0.13543577,0.12641524,-0.115160406,0.0,0.0,0.0,0.0,0.0,0.0,0.0114896335,0.024310308,-0.73603415
200486984,0.4294099,0.49538463,-0.8911255,-3.0890777,0.0,0.14344022,0.14397754,-0.11818236,0.0,0.0,0.0,0.0,0.0,0.0,0.006802857,0.019557128,-0.74104875
200586939,0.4294099,0.49538463,-0.8911255,-3.0890777,0.0,0.14923641,0.15692315,-0.12259138,0.0,0.0,0.0,0.0,0.0,0.0,0.008259099,0.024129553,-0.74148774
200686987,0.4294099,0.49538463,-0.8911255,-3.0890777,0.0,0.15390667,0.16823865,-0.12552291,0.0,0.0,0.0,0.0,0.0,0.0,0.006872367,0.020769231,-0.7415434
200788546,0.4294099,0.49538463,-0.8911255,-3.0890777,0.0,0.15614963,0.17636834,-0.12412363,0.0,0.0,0.0,0.0,0.0,0.0,0.0033883164,0.017054569,-0.7386187
200907647,0.4294099,0.49538463,-0.8911255,-3.0890777,0.0,0.15539941,0.18144403,-0.11632919,0.0,0.0,0.0,0.0,0.0,0.0,0.0020567877,0.01955719,-0.72932315
201007707,0.4294099,0.49538463,-0.8911255,-3.0890777,0.0,0.15136226,0.18300822,-0.10324609,0.0,0.0,0.0,0.0,0.0,0.0,-0.0042118495,0.0152680855,-0.7241174
201107628,0.4294099,0.49538463,-0.8911255,-3.0890777,0.0,0.1444396,0.18141307,-0.087780535,0.0,0.0,0.0,0.0,0.0,0.0,-0.0047939513,0.013572844,-0.7195112
201207645,0.4294099,0.49538463,-0.8911255,-3.0890777,0.0,0.13420716,0.1765065,-0.07019639,0.0,0.0,0.0,0.0,0.0,0.0,-0.012052056,0.010393284,-0.7145846
201311054,0.4294099,0.49538463,-0.8911255,-3.0890777,0.0,0.121063046,0.16848943,-0.053195775,0.0,0.0,0.0,0.0,0.0,0.0,-0.017559469,0.011122206,-0.71396196
201407728,0.4294099,0.49538463,-0.8911255,-3.0890777,0.0,0.10691655,0.15888417,-0.0401088,0.0,0.0,0.0,0.0,0.0,0.0,-0.013106624,0.003500125,-0.7162845
201507834,0.4294099,0.49538463,-0.8911255,-3.0890777,0.0,0.0912828,0.14754853,-0.030430138,0.0,0.0,0.0,0.0,0.0,0.0,-0.015088579,0.004797251,-0.7176027
201608122,0.4294099,0.49538463,-0.8911255,-3.0890777,0.0,0.07352173,0.1341107,-0.02335912,0.0,0.0,0.0,0.0,0.0,0.0,-0.01719803,-4.392871e-05,-0.72025955
201709615,0.4294099,0.49538463,-0.8911255,-3.0890777,0.0,0.055659983,0.12009234,-0.01953119,0.0,0.0,0.0,0.0,0.0,0.0,-0.018123463,-0.0017261063,-0.7230839
201808235,0.4294099,0.49538463,-0.8911255,-3.0890777,0.0,0.04036658,0.107009776,-0.018967986,0.0,0.0,0.0,0.0,0.0,0.0,-0.020425402,-0.0036740564,-0.72796935
201909750,0.4294099,0.49538463,-0.8911255,-3.0890777,0.0,0.025554597,0.0930836,-0.020685375,0.0,0.0,0.0,0.0,0.0,0.0,-0.023226213,-0.0056435578,-0.7311652
202008453,0.4294099,0.49538463,-0.8911255,-3.0890777,0.0,0.013594615,0.080018446,-0.02254653,0.0,0.0,0.0,0.0,0.0,0.0,-0.01844772,-0.008383536,-0.730778
202109406,0.4294099,0.49538463,-0.8911255,-3.0890777,0.0,0.002133438,0.064863406,-0.023552477,0.0,0.0,0.0,0.0,0.0,0.0,-0.0166217,-0.01374656,-0.73156834
202208605,0.4294099,0.49538463,-0.8911255,-3.0890777,0.0,-0.0072217076,0.050492384,-0.022523224,0.0,0.0,0.0,0.0,0.0,0.0,-0.0252924,-0.013404435,-0.7284233
202328581,0.4294099,0.49538463,-0.8911255,-3.0890777,0.0,-0.018600637,0.030997874,-0.019037843,0.0,0.0,0.0,0.0,0.0,0.0,-0.029276595,-0.018297805,-0.7261133
202428735,0.4294099,0.49538463,-0.8911255,-3.0890777,0.0,-0.028273191,0.013052323,-0.014380455,0.0,0.0,0.0,0.0,0.0,0.0,-0.029248223,-0.019211138,-0.7239481
202528931,0.4294099,0.49538463,-0.8911255,-3.0890777,0.0,-0.037079874,-0.00410711,-0.008340955,0.0,0.0,0.0,0.0,0.0,0.0,-0.025211215,-0.0192953,-0.7207736
202629235,0.4294099,0.49538463,-0.8911255,-3.0890777,0.0,-0.046730768,-0.022035332,-0.0006791353,0.0,0.0,0.0,0.0,0.0,0.0,-0.029927304,-0.020412408,-0.71712667
202729066,0.4294099,0.49538463,-0.8911255,-3.0890777,0.0,-0.055811483,-0.037861798,0.006913185,0.0,0.0,0.0,0.0,0.0,0.0,-0.025783803,-0.02110348,-0.714959
202829110,0.4294099,0.49538463,-0.8911255,-3.0890777,0.0,-0.06653306,-0.05281591,0.0150386095,0.0,0.0,0.0,0.0,0.0,0.0,-0.030000666,-0.021475408,-0.71386147
202929213,0.4294099,0.49538463,-0.8911255,-3.0890777,0.0,-0.076723956,-0.065022774,0.021541059,0.0,0.0,0.0,0.0,0.0,0.0,-0.031175379,-0.024396062,-0.7132553
203029290,0.4294099,0.49538463,-0.8911255,-3.0890777,0.0,-0.08744216,-0.075400725,0.026440024,0.0,0.0,0.0,0.0,0.0,0.0,-0.03128456,-0.024196383,-0.7163773
203129385,0.4294099,0.49538463,-0.8911255,-3.0890777,0.0,-0.09670009,-0.08207714,0.029257596,0.0,0.0,0.0,0.0,0.0,0.0,-0.033107866,-0.015508842,-0.71748435
203229588,0.4294099,0.49538463,-0.8911255,-3.0890777,0.0,-0.1063588,-0.0861439,0.03045988,0.0,0.0,0.0,0.0,0.0,0.0,-0.03266597,-0.013912307,-0.71791434
203329618,0.4294099,0.49538463,-0.8911255,-3.0890777,0.0,-0.115244016,-0.08725103,0.030293465,0.0,0.0,0.0,0.0,0.0,0.0,-0.03419912,-0.015936352,-0.72194684
203450129,0.4294099,0.49538463,-0.8911255,-3.0890777,0.0,-0.12584546,-0.08687917,0.028284907,0.0,0.0,0.0,0.0,0.0,0.0,-0.03436494,-0.014662774,-0.7225565
203550114,0.4294099,0.49538463,-0.8911255,-3.0890777,0.0,-0.1346565,-0.08564369,0.02502662,0.0,0.0,0.0,0.0,0.0,0.0,-0.035841018,-0.012290373,-0.72872597
203650388,0.4294099,0.49538463,-0.8911255,-3.0890777,0.0,-0.14240827,-0.0833406,0.021143496,0.0,0.0,0.0,0.0,0.0,0.0,-0.037290998,-0.0114976745,-0.7294812
203750214,0.4294099,0.49538463,-0.8911255,-3.0890777,0.0,-0.14991945,-0.08196661,0.016946435,0.0,0.0,0.0,0.0,0.0,0.0,-0.032324255,-0.010358797,-0.7301583
203850192,0.4294099,0.49538463,-0.8911255,-3.0890777,0.0,-0.1552016,-0.08182771,0.013118446,0.0,0.0,0.0,0.0,0.0,0.0,-0.034173436,-0.017420221,-0.7315321
203950235,0.4294099,0.49538463,-0.8911255,-3.0890777,0.0,-0.15861967,-0.08420701,0.009049654,0.0,0.0,0.0,0.0,0.0,0.0,-0.029157195,-0.01964612,-0.733343
204050926,0.4294099,0.49538463,-0.8911255,-3.0890777,0.0,-0.1591498,-0.08918413,0.005058706,0.0,0.0,0.0,0.0,0.0,0.0,-0.02996691,-0.025364041,-0.7356019
204150607,0.4294099,0.49538463,-0.8911255,-3.0890777,0.0,-0.15713334,-0.09675102,0.00096803904,0.0,0.0,0.0,0.0,0.0,0.0,-0.02994004,-0.022649964,-0.7379794
204250642,0.4294099,0.49538463,-0.8911255,-3.0890777,0.0,-0.15235968,-0.10551727,-0.0033689737,0.0,0.0,0.0,0.0,0.0,0.0,-0.022678234,-0.023282768,-0.7392367
204350765,0.4294099,0.49538463,-0.8911255,-3.0890777,0.0,-0.14416108,-0.117261,-0.0073605776,0.0,0.0,0.0,0.0,0.0,0.0,-0.023349568,-0.027697904,-0.7381207
204451400,0.4294099,0.49538463,-0.8911255,-3.0890777,0.0,-0.13430503,-0.1296729,-0.010210216,0.0,0.0,0.0,0.0,0.0,0.0,-0.020714553,-0.026087584,-0.736285
204571188,0.4294099,0.49538463,-0.8911255,-3.0890777,0.0,-0.1219685,-0.1434119,-0.012285471,0.0,0.0,0.0,0.0,0.0,0.0,-0.020152599,-0.028192718,-0.7356415
204670951,0.4294099,0.49538463,-0.8911255,-3.0890777,0.0,-0.11203884,-0.1525127,-0.012438595,0.0,0.0,0.0,0.0,0.0,0.0,-0.01918426,-0.025981195,-0.73348576
204771184,0.4294099,0.49538463,-0.8911255,-3.0890777,0.0,-0.1017969,-0.15885639,-0.010528445,0.0,0.0,0.0,0.0,0.0,0.0,-0.019090645,-0.021784173,-0.72924685
204871442,0.4294099,0.49538463,-0.8911255,-3.0890777,0.0,-0.093540214,-0.16035733,-0.009026229,0.0,0.0,0.0,0.0,0.0,0.0,-0.019286882,-0.019635923,-0.7331327
204971438,0.4294099,0.49538463,-0.8911255,-3.0890777,0.0,-0.08610917,-0.1563524,-0.01037848,0.0,0.0,0.0,0.0,0.0,0.0,-0.019451499,-0.016476233,-0.7380649
205071508,0.4294099,0.49538463,-0.8911255,-3.0890777,0.0,-0.08113715,-0.14694114,-0.015033245,0.0,0.0,0.0,0.0,0.0,0.0,-0.020774052,-0.01226741,-0.7435434
205171521,0.4294099,0.49538463,-0.8911255,-3.0890777,0.0,-0.0775625,-0.1317055,-0.024198651,0.0,0.0,0.0,0.0,0.0,0.0,-0.02058655,-0.008885225,-0.7518108
205271674,0.4294099,0.49538463,-0.8911255,-3.0890777,0.0,-0.07474544,-0.113691,-0.037926257,0.0,0.0,0.0,0.0,0.0,0.0,-0.018128846,-0.0036216145,-0.7646876
205371694,0.4294099,0.49538463,-0.8911255,-3.0890777,0.0,-0.07114713,-0.092454866,-0.059289157,0.0,0.0,0.0,0.0,0.0,0.0,-0.014925651,-0.0066950186,-0.7784865
205471713,0.4294099,0.49538463,-0.8911255,-3.0890777,0.0,-0.066276215,-0.07220932,-0.08392668,0.0,0.0,0.0,0.0,0.0,0.0,-0.0121942535,-0.00071809813,-0.79090935
205572006,0.4294099,0.49538463,-0.8911255,-3.0890777,0.0,-0.058782708,-0.052532393,-0.115294695,0.0,0.0,0.0,0.0,0.0,0.0,-0.012074765,-0.0062324195,-0.8043114
205672117,0.4294099,0.49538463,-0.8911255,-3.0890777,0.0,-0.049349476,-0.03814294,-0.1469065,0.0,0.0,0.0,0.0,0.0,0.0,-0.010341608,-0.0036610495,-0.81676877
205792368,0.4294099,0.49538463,-0.8911255,-3.0890777,0.0,-0.034062274,-0.027331527,-0.18685806,0.0,0.0,0.0,0.0,0.0,0.0,-0.008188232,-0.009704433,-0.8266141
205892326,0.4294099,0.49538463,-0.8911255,-3.0890777,0.0,-0.018027004,-0.025350919,-0.21944648,0.0,0.0,0.0,0.0,0.0,0.0,-0.0073200613,-0.016318567,-0.83278483
205992311,0.4294099,0.49538463,-0.8911255,-3.0890777,0.0,-0.0015069172,-0.030665403,-0.24785537,0.0,0.0,0.0,0.0,0.0,0.0,-0.0029764846,-0.01970783,-0.841192
206092435,0.4294099,0.49538463,-0.8911255,-3.0890777,0.0,0.01744179,-0.04219436,-0.2764464,0.0,0.0,0.0,0.0,0.0,0.0,0.0028216913,-0.021497615,-0.84730107
206192520,0.4294099,0.49538463,-0.8911255,-3.0890777,0.0,0.03510266,-0.05685725,-0.30054784,0.0,0.0,0.0,0.0,0.0,0.0,0.0039542913,-0.02974477,-0.8499707
206292613,0.4294099,0.49538463,-0.8911255,-3.0890777,0.0,0.053405624,-0.07675824,-0.32349545,0.0,0.0,0.0,0.0,0.0,0.0,-0.0005403571,-0.031627752,-0.8491565
206392638,0.4294099,0.49538463,-0.8911255,-3.0890777,0.0,0.06920695,-0.0963829,-0.34111446,0.0,0.0,0.0,0.0,0.0,0.0,0.005895,-0.031829573,-0.84718406
206493214,0.4294099,0.49538463,-0.8911255,-3.0890777,0.0,0.084888205,-0.11698643,-0.35499078,0.0,0.0,0.0,0.0,0.0,0.0,0.004674511,-0.037344158,-0.84118557
206593631,0.4294099,0.49538463,-0.8911255,-3.0890777,0.0,0.09800344,-0.1340734,-0.36176133,0.0,0.0,0.0,0.0,0.0,0.0,0.006550622,-0.032246184,-0.8311038
206713770,0.4294099,0.49538463,-0.8911255,-3.0890777,0.0,0.112809844,-0.14891705,-0.36013383,0.0,0.0,0.0,0.0,0.0,0.0,0.00658579,-0.032026228,-0.813409
206813771,0.4294099,0.49538463,-0.8911255,-3.0890777,0.0,0.123982884,-0.1544043,-0.34845227,0.0,0.0,0.0,0.0,0.0,0.0,0.00975634,-0.026272736,-0.79692924
206913822,0.4294099,0.49538463,-0.8911255,-3.0890777,0.0,0.13396858,-0.15196458,-0.32993972,0.0,0.0,0.0,0.0,0.0,0.0,0.00892583,-0.020539649,-0.780856
207013923,0.4294099,0.49538463,-0.8911255,-3.0890777,0.0,0.14501025,-0.14117269,-0.30256253,0.0,0.0,0.0,0.0,0.0,0.0,0.009241682,-0.012512264,-0.7598864
207113709,0.4294099,0.49538463,-0.8911255,-3.0890777,0.0,0.1538126,-0.12293862,-0.27090937,0.0,0.0,0.0,0.0,0.0,0.0,0.009716878,-0.006327199,-0.7431612
207213746,0.4294099,0.49538463,-0.8911255,-3.0890777,0.0,0.16186692,-0.0965162,-0.23361844,0.0,0.0,0.0,0.0,0.0,0.0,0.011340625,-0.0014105877,-0.73040134
207314244,0.4294099,0.49538463,-0.8911255,-3.0890777,0.0,0.16864735,-0.064087056,-0.19654292,0.0,0.0,0.0,0.0,0.0,0.0,0.008849453,0.010738427,-0.72157466
207413791,0.4294099,0.49538463,-0.8911255,-3.0890777,0.0,0.17278661,-0.029822435,-0.1646784,0.0,0.0,0.0,0.0,0.0,0.0,0.010779876,0.015128258,-0.7159363
207513892,0.4294099,0.49538463,-0.8911255,-3.0890777,0.0,0.17707872,0.009298663,-0.13580555,0.0,0.0,0.0,0.0,0.0,0.0,0.013162204,0.020171613,-0.71585095
207613994,0.4294099,0.49538463,-0.8911255,-3.0890777,0.0,0.18058833,0.045942076,-0.115125835,0.0,0.0,0.0,0.0,0.0,0.0,0.013188194,0.023386996,-0.7183982
207714068,0.4294099,0.49538463,-0.8911255,-3.0890777,0.0,0.18325482,0.08327908,-0.099666595,0.0,0.0,0.0,0.0,0.0,0.0,0.011063299,0.025779083,-0.7247844
207834246,0.4294099,0.49538463,-0.8911255,-3.0890777,0.0,0.18577056,0.1214462,-0.09021181,0.0,0.0,0.0,0.0,0.0,0.0,0.0062465053,0.022317998,-0.73027915
207934547,0.4294099,0.49538463,-0.8911255,-3.0890777,0.0,0.18736963,0.14559278,-0.08717704,0.0,0.0,0.0,0.0,0.0,0.0,0.009482254,0.023700554,-0.7368945
208034404,0.4294099,0.49538463,-0.8911255,-3.0890777,0.0,0.18850957,0.16500676,-0.086517096,0.0,0.0,0.0,0.0,0.0,0.0,0.0069393497,0.020787545,-0.73988277
208134688,0.4294099,0.49538463,-0.8911255,-3.0890777,0.0,0.18907335,0.17572916,-0.08710897,0.0,0.0,0.0,0.0,0.0,0.0,0.005858983,0.019288057,-0.744426
208234790,0.4294099,0.49538463,-0.8911255,-3.0890777,0.0,0.18798006,0.18162271,-0.086985946,0.0,0.0,0.0,0.0,0.0,0.0,0.0028836671,0.018762022,-0.7463207
208334871,0.4294099,0.49538463,-0.8911255,-3.0890777,0.0,0.18457209,0.18180023,-0.08542013,0.0,0.0,0.0,0.0,0.0,0.0,0.0013530385,0.016383559,-0.7451298
208434811,0.4294099,0.49538463,-0.8911255,-3.0890777,0.0,0.17838316,0.1773576,-0.08287078,0.0,0.0,0.0,0.0,0.0,0.0,0.002534661,0.013929095,-0.74989367
208534941,0.4294099,0.49538463,-0.8911255,-3.0890777,0.0,0.17066656,0.17068404,-0.08002359,0.0,0.0,0.0,0.0,0.0,0.0,-0.0036888237,0.011218032,-0.748804
208634982,0.4294099,0.49538463,-0.8911255,-3.0890777,0.0,0.16017127,0.16301106,-0.075188875,0.0,0.0,0.0,0.0,0.0,0.0,-0.0049913973,0.00762319,-0.7447834
208735007,0.4294099,0.49538463,-0.8911255,-3.0890777,0.0,0.14901917,0.15589991,-0.06834555,0.0,0.0,0.0,0.0,0.0,0.0,-0.001673223,0.00933256,-0.7423912
208835369,0.4294099,0.49538463,-0.8911255,-3.0890777,0.0,0.13542716,0.14910671,-0.058945715,0.0,0.0,0.0,0.0,0.0,0.0,-0.006670794,0.0051828716,-0.7374331
208935402,0.4294099,0.49538463,-0.8911255,-3.0890777,0.0,0.12176174,0.14386329,-0.04885453,0.0,0.0,0.0,0.0,0.0,0.0,-0.007833447,0.007343355,-0.7329167
209055509,0.4294099,0.49538463,-0.8911255,-3.0890777,0.0,0.10391848,0.13908258,-0.03425014,0.0,0.0,0.0,0.0,0.0,0.0,-0.013630886,0.0066115335,-0.72794557
209155603,0.4294099,0.49538463,-0.8911255,-3.0890777,0.0,0.088925436,0.13626611,-0.020670354,0.0,0.0,0.0,0.0,0.0,0.0,-0.017543487,0.00586331,-0.7225252
209255577,0.4294099,0.49538463,-0.8911255,-3.0890777,0.0,0.07468213,0.13460529,-0.0068818927,0.0,0.0,0.0,0.0,0.0,0.0,-0.01406021,0.0060696583,-0.7199763
209355675,0.4294099,0.49538463,-0.8911255,-3.0890777,0.0,0.059325565,0.13319084,0.007852256,0.0,0.0,0.0,0.0,0.0,0.0,-0.016747875,0.0047994144,-0.71654296
209455816,0.4294099,0.49538463,-0.8911255,-3.0890777,0.0,0.045227587,0.13248017,0.019479275,0.0,0.0,0.0,0.0,0.0,0.0,-0.015558701,0.005563318,-0.7177783
209555806,0.4294099,0.49538463,-0.8911255,-3.0890777,0.0,0.030989664,0.1319179,0.028441489,0.0,0.0,0.0,0.0,0.0,0.0,-0.015386503,0.004658883,-0.72199583
209655992,0.4294099,0.49538463,-0.8911255,-3.0890777,0.0,0.018196056,0.13095437,0.03340274,0.0,0.0,0.0,0.0,0.0,0.0,-0.023986913,0.004003016,-0.72336495
209756258,0.4294099,0.49538463,-0.8911255,-3.0890777,0.0,0.0043296157,0.12863503,0.035673082,0.0,0.0,0.0,0.0,0.0,0.0,-0.023474962,-0.0012085851,-0.7270427
209856388,0.4294099,0.49538463,-0.8911255,-3.0890777,0.0,-0.008992523,0.12410848,0.034107685,0.0,0.0,0.0,0.0,0.0,0.0,-0.025207838,0.0022219168,-0.7347562
209956544,0.4294099,0.49538463,-0.8911255,-3.0890777,0.0,-0.02306264,0.11603486,0.028458,0.0,0.0,0.0,0.0,0.0,0.0,-0.029296242,-0.0037421873,-0.7412401
210076811,0.4294099,0.49538463,-0.8911255,-3.0890777,0.0,-0.037811235,0.10126492,0.017927468,0.0,0.0,0.0,0.0,0.0,0.0,-0.026725005,-0.01120351,-0.7486197
210178796,0.4294099,0.49538463,-0.8911255,-3.0890777,0.0,-0.048677005,0.08266853,0.006505847,0.0,0.0,0.0,0.0,0.0,0.0,-0.026430331,-0.014084773,-0.75418615
210276656,0.4294099,0.49538463,-0.8911255,-3.0890777,0.0,-0.05698865,0.060886476,-0.0045282245,0.0,0.0,0.0,0.0,0.0,0.0,-0.02016666,-0.023991838,-0.7589091
210377459,0.4294099,0.49538463,-0.8911255,-3.0890777,0.0,-0.06450274,0.032901276,-0.014875948,0.0,0.0,0.0,0.0,0.0,0.0,-0.023515347,-0.027439453,-0.7582892
210476982,0.4294099,0.49538463,-0.8911255,-3.0890777,0.0,-0.06980343,0.0037608235,-0.022369862,0.0,0.0,0.0,0.0,0.0,0.0,-0.018322159,-0.030760746,-0.7578275
210578881,0.4294099,0.49538463,-0.8911255,-3.0890777,0.0,-0.07338232,-0.028409714,-0.028087318,0.0,0.0,0.0,0.0,0.0,0.0,-0.018579984,-0.033822175,-0.7582225
210677242,0.4294099,0.49538463,-0.8911255,-3.0890777,0.0,-0.074566334,-0.058156725,-0.032046914,0.0,0.0,0.0,0.0,0.0,0.0,-0.021268113,-0.033599116,-0.7587323
210780652,0.4294099,0.49538463,-0.8911255,-3.0890777,0.0,-0.0744416,-0.086378165,-0.03568536,0.0,0.0,0.0,0.0,0.0,0.0,-0.021929841,-0.028073434,-0.7615697
210877320,0.4294099,0.49538463,-0.8911255,-3.0890777,0.0,-0.074041545,-0.10755235,-0.03935325,0.0,0.0,0.0,0.0,0.0,0.0,-0.021734122,-0.030274753,-0.76050466
210978937,0.4294099,0.49538463,-0.8911255,-3.0890777,0.0,-0.073693305,-0.122939296,-0.043603122,0.0,0.0,0.0,0.0,0.0,0.0,-0.017505039,-0.022757094,-0.76427597
211077457,0.4294099,0.49538463,-0.8911255,-3.0890777,0.0,-0.07365491,-0.12886216,-0.04725349,0.0,0.0,0.0,0.0,0.0,0.0,-0.021839598,-0.02203108,-0.7586255
211178025,0.4294099,0.49538463,-0.8911255,-3.0890777,0.0,-0.075192265,-0.12651263,-0.04887557,0.0,0.0,0.0,0.0,0.0,0.0,-0.023013236,-0.013608141,-0.7557152
211297749,0.4294099,0.49538463,-0.8911255,-3.0890777,0.0,-0.07936401,-0.11525146,-0.048252463,0.0,0.0,0.0,0.0,0.0,0.0,-0.025220854,-0.0110447155,-0.7548112
211397869,0.4294099,0.49538463,-0.8911255,-3.0890777,0.0,-0.08406338,-0.100594796,-0.047538996,0.0,0.0,0.0,0.0,0.0,0.0,-0.020471264,-0.0073109395,-0.7543913
211497959,0.4294099,0.49538463,-0.8911255,-3.0890777,0.0,-0.08987781,-0.08186423,-0.04688394,0.0,0.0,0.0,0.0,0.0,0.0,-0.022276707,-0.0075007854,-0.75222
211597986,0.4294099,0.49538463,-0.8911255,-3.0890777,0.0,-0.09592835,-0.06373525,-0.045993865,0.0,0.0,0.0,0.0,0.0,0.0,-0.026522834,-0.0016819383,-0.7520679
211697995,0.4294099,0.49538463,-0.8911255,-3.0890777,0.0,-0.10298551,-0.04504823,-0.045323312,0.0,0.0,0.0,0.0,0.0,0.0,-0.025604144,4.9280934e-05,-0.7512779
211798115,0.4294099,0.49538463,-0.8911255,-3.0890777,0.0,-0.10940581,-0.029617341,-0.04478532,0.0,0.0,0.0,0.0,0.0,0.0,-0.026865974,-0.0006417553,-0.75245166
211898141,0.4294099,0.49538463,-0.8911255,-3.0890777,0.0,-0.115974694,-0.016899498,-0.046554983,0.0,0.0,0.0,0.0,0.0,0.0,-0.0280324,0.0031656083,-0.7584913
211998234,0.4294099,0.49538463,-0.8911255,-3.0890777,0.0,-0.12084762,-0.009405201,-0.051986217,0.0,0.0,0.0,0.0,0.0,0.0,-0.028019283,-0.0021460494,-0.76694334
212098491,0.4294099,0.49538463,-0.8911255,-3.0890777,0.0,-0.12443869,-0.0054958523,-0.060997307,0.0,0.0,0.0,0.0,0.0,0.0,-0.026324749,-0.0019528996,-0.76992905
212218679,0.4294099,0.49538463,-0.8911255,-3.0890777,0.0,-0.12688226,-0.005458933,-0.07404888,0.0,0.0,0.0,0.0,0.0,0.0,-0.025563214,-0.002175203,-0.7775084
212319067,0.4294099,0.49538463,-0.8911255,-3.0890777,0.0,-0.12667705,-0.0073787835,-0.08627844,0.0,0.0,0.0,0.0,0.0,0.0,-0.024000337,-0.006500473,-0.7835027
212418967,0.4294099,0.49538463,-0.8911255,-3.0890777,0.0,-0.12430018,-0.011359536,-0.10095376,0.0,0.0,0.0,0.0,0.0,0.0,-0.020204928,-0.0070939334,-0.788658
212519068,0.4294099,0.49538463,-0.8911255,-3.0890777,0.0,-0.12008613,-0.014496642,-0.113626,0.0,0.0,0.0,0.0,0.0,0.0,-0.019683456,-0.009615289,-0.79089636
212618947,0.4294099,0.49538463,-0.8911255,-3.0890777,0.0,-0.11421379,-0.01876901,-0.12635535,0.0,0.0,0.0,0.0,0.0,0.0,-0.017758865,-0.009974803,-0.7968693
212719004,0.4294099,0.49538463,-0.8911255,-3.0890777,0.0,-0.10525252,-0.022229837,-0.14168715,0.0,0.0,0.0,0.0,0.0,0.0,-0.015904278,-0.009772605,-0.8044339
212819049,0.4294099,0.49538463,-0.8911255,-3.0890777,0.0,-0.09496998,-0.02617401,-0.15734714,0.0,0.0,0.0,0.0,0.0,0.0,-0.015594922,-0.011967862,-0.8090019
212919443,0.4294099,0.49538463,-0.8911255,-3.0890777,0.0,-0.0821616,-0.029980417,-0.17563784,0.0,0.0,0.0,0.0,0.0,0.0,-0.014279211,-0.011947693,-0.81584716
213019806,0.4294099,0.49538463,-0.8911255,-3.0890777,0.0,-0.06838074,-0.03422906,-0.1948452,0.0,0.0,0.0,0.0,0.0,0.0,-0.0116843935,-0.014734682,-0.8225489
213740460,0.4294099,0.49538463,-0.8911255,-3.0890777,0.0,0.016057437,-0.07497231,-0.27853644,0.0,0.0,0.0,0.0,0.0,0.0,-0.0018061586,-0.023942146,-0.8095509
213840282,0.4294099,0.49538463,-0.8911255,-3.0890777,0.0,0.023799496,-0.08196678,-0.2716558,0.0,0.0,0.0,0.0,0.0,0.0,-0.0010959925,-0.023032807,-0.8007513
213940536,0.4294099,0.49538463,-0.8911255,-3.0890777,0.0,0.032196753,-0.089678004,-0.260198,0.0,0.0,0.0,0.0,0.0,0.0,-0.0034611681,-0.025864296,-0.7918693
214040521,0.4294099,0.49538463,-0.8911255,-3.0890777,0.0,0.039412234,-0.095509134,-0.24631959,0.0,0.0,0.0,0.0,0.0,0.0,-0.002862079,-0.022109114,-0.782421
214140402,0.4294099,0.49538463,-0.8911255,-3.0890777,0.0,0.04641172,-0.09952244,-0.22796702,0.0,0.0,0.0,0.0,0.0,0.0,-0.0020452254,-0.022364255,-0.7699884
214240593,0.4294099,0.49538463,-0.8911255,-3.0890777,0.0,0.051823057,-0.10154099,-0.20825648,0.0,0.0,0.0,0.0,0.0,0.0,-0.0018945439,-0.018846069,-0.7600074
214340597,0.4294099,0.49538463,-0.8911255,-3.0890777,0.0,0.05661872,-0.1006521,-0.18450916,0.0,0.0,0.0,0.0,0.0,0.0,-4.0162355e-05,-0.01640512,-0.7505032
214440921,0.4294099,0.49538463,-0.8911255,-3.0890777,0.0,0.060186002,-0.09747202,-0.16112518,0.0,0.0,0.0,0.0,0.0,0.0,-0.0003202986,-0.015697552,-0.7395626
214540967,0.4294099,0.49538463,-0.8911255,-3.0890777,0.0,0.06341337,-0.090279356,-0.13507062,0.0,0.0,0.0,0.0,0.0,0.0,-0.0017022695,-0.008086136,-0.73431027
214661104,0.4294099,0.49538463,-0.8911255,-3.0890777,0.0,0.06693761,-0.07711973,-0.10568327,0.0,0.0,0.0,0.0,0.0,0.0,-4.138518e-05,-0.0067042434,-0.7273677
214761129,0.4294099,0.49538463,-0.8911255,-3.0890777,0.0,0.070309624,-0.06366951,-0.08396262,0.0,0.0,0.0,0.0,0.0,0.0,0.0012341356,-0.0034978292,-0.72488225
214861190,0.4294099,0.49538463,-0.8911255,-3.0890777,0.0,0.074742354,-0.0471627,-0.06296861,0.0,0.0,0.0,0.0,0.0,0.0,0.00062244013,-0.00012522656,-0.7222825
214961278,0.4294099,0.49538463,-0.8911255,-3.0890777,0.0,0.07955036,-0.031430285,-0.046103776,0.0,0.0,0.0,0.0,0.0,0.0,0.0016028602,-0.00029087905,-0.72260463
215061394,0.4294099,0.49538463,-0.8911255,-3.0890777,0.0,0.0852771,-0.014744148,-0.031391025,0.0,0.0,0.0,0.0,0.0,0.0,-3.3270568e-05,-0.0030509816,-0.72292495
215161454,0.4294099,0.49538463,-0.8911255,-3.0890777,0.0,0.09060619,-0.0011804207,-0.020240963,0.0,0.0,0.0,0.0,0.0,0.0,0.0008455459,0.0024945596,-0.72545797
215261574,0.4294099,0.49538463,-0.8911255,-3.0890777,0.0,0.09540064,0.01157437,-0.01065737,0.0,0.0,0.0,0.0,0.0,0.0,0.0042964024,-0.0012253858,-0.72653157
215361994,0.4294099,0.49538463,-0.8911255,-3.0890777,0.0,0.09899847,0.02172203,-0.0035342574,0.0,0.0,0.0,0.0,0.0,0.0,0.00069771893,0.008262065,-0.7294544
215462120,0.4294099,0.49538463,-0.8911255,-3.0890777,0.0,0.101821624,0.0314678,0.002969861,0.0,0.0,0.0,0.0,0.0,0.0,0.0025194548,0.0062021315,-0.73112047
215562096,0.4294099,0.49538463,-0.8911255,-3.0890777,0.0,0.103755794,0.040739935,0.00822258,0.0,0.0,0.0,0.0,0.0,0.0,0.0009330064,0.004714825,-0.7322506
215662141,0.4294099,0.49538463,-0.8911255,-3.0890777,0.0,0.10482492,0.051233146,0.013062537,0.0,0.0,0.0,0.0,0.0,0.0,0.00059799943,0.011510931,-0.7349387
215762177,0.4294099,0.49538463,-0.8911255,-3.0890777,0.0,0.10511764,0.06291932,0.016553402,0.0,0.0,0.0,0.0,0.0,0.0,0.0013296288,0.013484781,-0.73710704
215882197,0.4294099,0.49538463,-0.8911255,-3.0890777,0.0,0.10504389,0.07820522,0.019386768,0.0,0.0,0.0,0.0,0.0,0.0,-0.0023676297,0.012588837,-0.7392555
215982385,0.4294099,0.49538463,-0.8911255,-3.0890777,0.0,0.10447003,0.09154571,0.021404445,0.0,0.0,0.0,0.0,0.0,0.0,0.003246897,0.011879118,-0.7398694
216082880,0.4294099,0.49538463,-0.8911255,-3.0890777,0.0,0.10315408,0.10274687,0.023455083,0.0,0.0,0.0,0.0,0.0,0.0,0.0012941295,0.0099780075,-0.742045
216182569,0.4294099,0.49538463,-0.8911255,-3.0890777,0.0,0.101913296,0.1103498,0.025523722,0.0,0.0,0.0,0.0,0.0,0.0,0.004074524,0.008153979,-0.74079376
216282949,0.4294099,0.49538463,-0.8911255,-3.0890777,0.0,0.10126913,0.1133403,0.02929014,0.0,0.0,0.0,0.0,0.0,0.0,0.0030279607,0.0023914124,-0.73736167
216382734,0.4294099,0.49538463,-0.8911255,-3.0890777,0.0,0.101461574,0.11221789,0.035664022,0.0,0.0,0.0,0.0,0.0,0.0,0.0048015444,0.002142814,-0.73109645
216482885,0.4294099,0.49538463,-0.8911255,-3.0890777,0.0,0.103327855,0.10622575,0.044544935,0.0,0.0,0.0,0.0,0.0,0.0,0.0020083408,-0.00011045113,-0.7271213
216582850,0.4294099,0.49538463,-0.8911255,-3.0890777,0.0,0.10562865,0.09760231,0.054949343,0.0,0.0,0.0,0.0,0.0,0.0,0.0035156882,-0.0011265497,-0.7227649
216683056,0.4294099,0.49538463,-0.8911255,-3.0890777,0.0,0.1091068,0.08646262,0.06653291,0.0,0.0,0.0,0.0,0.0,0.0,0.0070526786,2.2820663e-05,-0.72077036
216783243,0.4294099,0.49538463,-0.8911255,-3.0890777,0.0,0.11229456,0.07651014,0.07636213,0.0,0.0,0.0,0.0,0.0,0.0,0.0032395814,-0.005205696,-0.72170454
216883255,0.4294099,0.49538463,-0.8911255,-3.0890777,0.0,0.11518883,0.06730457,0.08497381,0.0,0.0,0.0,0.0,0.0,0.0,0.0032443032,-0.0044401353,-0.72057855
216983440,0.4294099,0.49538463,-0.8911255,-3.0890777,0.0,0.11716389,0.06195682,0.09048128,0.0,0.0,0.0,0.0,0.0,0.0,0.005490312,0.00054008234,-0.7236414
217103508,0.4294099,0.49538463,-0.8911255,-3.0890777,0.0,0.11826561,0.059285022,0.09417647,0.0,0.0,0.0,0.0,0.0,0.0,0.004308706,-0.0004126681,-0.7263578
217203543,0.4294099,0.49538463,-0.8911255,-3.0890777,0.0,0.117822714,0.06106082,0.09429681,0.0,0.0,0.0,0.0,0.0,0.0,0.0022035916,0.0037033376,-0.7285123
217303576,0.4294099,0.49538463,-0.8911255,-3.0890777,0.0,0.11666529,0.0657577,0.0924018,0.0,0.0,0.0,0.0,0.0,0.0,0.0017768857,0.0035818298,-0.7330411
217403636,0.4294099,0.49538463,-0.8911255,-3.0890777,0.0,0.11456902,0.07330653,0.08846289,0.0,0.0,0.0,0.0,0.0,0.0,0.0031720842,0.00792157,-0.7365371
217503769,0.4294099,0.49538463,-0.8911255,-3.0890777,0.0,0.11171059,0.08122978,0.08379537,0.0,0.0,0.0,0.0,0.0,0.0,-0.0009923554,0.006833193,-0.73751336
217603999,0.4294099,0.49538463,-0.8911255,-3.0890777,0.0,0.10679868,0.08944935,0.07904208,0.0,0.0,0.0,0.0,0.0,0.0,-0.0019166956,0.0055620163,-0.73918444
217704099,0.4294099,0.49538463,-0.8911255,-3.0890777,0.0,0.10042903,0.09595375,0.07603192,0.0,0.0,0.0,0.0,0.0,0.0,-0.00012449827,0.005857636,-0.7359102
217804271,0.4294099,0.49538463,-0.8911255,-3.0890777,0.0,0.092482015,0.10092704,0.07505429,0.0,0.0,0.0,0.0,0.0,0.0,-0.0029539883,0.008641657,-0.73216176
217904313,0.4294099,0.49538463,-0.8911255,-3.0890777,0.0,0.08399815,0.10317078,0.07735622,0.0,0.0,0.0,0.0,0.0,0.0,-0.007499569,0.0015478362,-0.72952574
218004433,0.4294099,0.49538463,-0.8911255,-3.0890777,0.0,0.07397744,0.1018644,0.08245599,0.0,0.0,0.0,0.0,0.0,0.0,-0.010547472,0.0048499126,-0.7252244
218104365,0.4294099,0.49538463,-0.8911255,-3.0890777,0.0,0.064300895,0.097858734,0.0873844,0.0,0.0,0.0,0.0,0.0,0.0,-0.007630152,0.0031782438,-0.7268801
218204429,0.4294099,0.49538463,-0.8911255,-3.0890777,0.0,0.05433475,0.09123982,0.09162682,0.0,0.0,0.0,0.0,0.0,0.0,-0.007816863,0.00027499488,-0.72847426
218304532,0.4294099,0.49538463,-0.8911255,-3.0890777,0.0,0.04648468,0.08352395,0.093473375,0.0,0.0,0.0,0.0,0.0,0.0,-0.0056396346,-0.001535817,-0.72928655
218404641,0.4294099,0.49538463,-0.8911255,-3.0890777,0.0,0.03926042,0.07617546,0.093225956,0.0,0.0,0.0,0.0,0.0,0.0,-0.0064416616,0.0008602978,-0.7311447
218525173,0.4294099,0.49538463,-0.8911255,-3.0890777,0.0,0.032505896,0.068228595,0.08990508,0.0,0.0,0.0,0.0,0.0,0.0,-0.0023614774,0.0021491204,-0.7358586
218625333,0.4294099,0.49538463,-0.8911255,-3.0890777,0.0,0.028084293,0.063849576,0.085078776,0.0,0.0,0.0,0.0,0.0,0.0,-0.0068851802,0.0011902959,-0.7375953
218725347,0.4294099,0.49538463,-0.8911255,-3.0890777,0.0,0.024128878,0.0623332,0.077363014,0.0,0.0,0.0,0.0,0.0,0.0,-0.0061452114,0.002510432,-0.7431041
218825330,0.4294099,0.49538463,-0.8911255,-3.0890777,0.0,0.020593533,0.0635087,0.06926435,0.0,0.0,0.0,0.0,0.0,0.0,-0.0065675047,0.0072884895,-0.747002
218925343,0.4294099,0.49538463,-0.8911255,-3.0890777,0.0,0.016479516,0.06828527,0.06011671,0.0,0.0,0.0,0.0,0.0,0.0,-0.008263027,0.008809784,-0.7498759
219025454,0.4294099,0.49538463,-0.8911255,-3.0890777,0.0,0.012283817,0.07547839,0.052182734,0.0,0.0,0.0,0.0,0.0,0.0,-0.010640373,0.010075502,-0.74923456
219125411,0.4294099,0.49538463,-0.8911255,-3.0890777,0.0,0.0067436276,0.08534949,0.045247853,0.0,0.0,0.0,0.0,0.0,0.0,-0.0071708607,0.014991979,-0.749147
219225544,0.4294099,0.49538463,-0.8911255,-3.0890777,0.0,0.00066811143,0.096239105,0.041431665,0.0,0.0,0.0,0.0,0.0,0.0,-0.011753924,0.016416961,-0.74495703
219325833,0.4294099,0.49538463,-0.8911255,-3.0890777,0.0,-0.0066944775,0.10997763,0.040171504,0.0,0.0,0.0,0.0,0.0,0.0,-0.013732277,0.019534312,-0.7395914
219426114,0.4294099,0.49538463,-0.8911255,-3.0890777,0.0,-0.0143468985,0.12502472,0.0426538,0.0,0.0,0.0,0.0,0.0,0.0,-0.013090779,0.0248031,-0.7363824
219546203,0.4294099,0.49538463,-0.8911255,-3.0890777,0.0,-0.022967229,0.14287214,0.04953569,0.0,0.0,0.0,0.0,0.0,0.0,-0.013608553,0.024379728,-0.7284427
219645984,0.4294099,0.49538463,-0.8911255,-3.0890777,0.0,-0.029288014,0.15700176,0.057137668,0.0,0.0,0.0,0.0,0.0,0.0,-0.0149277635,0.02825178,-0.7233669
219746189,0.4294099,0.49538463,-0.8911255,-3.0890777,0.0,-0.035233095,0.17183267,0.06735736,0.0,0.0,0.0,0.0,0.0,0.0,-0.014276952,0.02474448,-0.71746576
219846106,0.4294099,0.49538463,-0.8911255,-3.0890777,0.0,-0.03921249,0.18309149,0.077169955,0.0,0.0,0.0,0.0,0.0,0.0,-0.007874533,0.0270644,-0.7158065
219946247,0.4294099,0.49538463,-0.8911255,-3.0890777,0.0,-0.041549407,0.1936033,0.08741683,0.0,0.0,0.0,0.0,0.0,0.0,-0.007994452,0.026348526,-0.7104809
220046325,0.4294099,0.49538463,-0.8911255,-3.0890777,0.0,-0.04189966,0.19963661,0.09721029,0.0,0.0,0.0,0.0,0.0,0.0,-0.012478065,0.025109435,-0.70725703
220146556,0.4294099,0.49538463,-0.8911255,-3.0890777,0.0,-0.040088158,0.20268026,0.10660964,0.0,0.0,0.0,0.0,0.0,0.0,-0.010352504,0.023344874,-0.7062493
220246769,0.4294099,0.49538463,-0.8911255,-3.0890777,0.0,-0.03631301,0.2018064,0.11260754,0.0,0.0,0.0,0.0,0.0,0.0,-0.003228094,0.020314964,-0.7099106
220346720,0.4294099,0.49538463,-0.8911255,-3.0890777,0.0,-0.029847236,0.19652535,0.11600584,0.0,0.0,0.0,0.0,0.0,0.0,2.532266e-06,0.017991878,-0.7135317
220446798,0.4294099,0.49538463,-0.8911255,-3.0890777,0.0,-0.021968149,0.18746746,0.11585289,0.0,0.0,0.0,0.0,0.0,0.0,0.0016372972,0.011053293,-0.71677935
220546868,0.4294099,0.49538463,-0.8911255,-3.0890777,0.0,-0.012690239,0.1751149,0.112889946,0.0,0.0,0.0,0.0,0.0,0.0,0.0019678725,0.005423218,-0.7218331
220666916,0.4294099,0.49538463,-0.8911255,-3.0890777,0.0,-0.00185159,0.15763956,0.10556394,0.0,0.0,0.0,0.0,0.0,0.0,0.0038832785,0.0068927435,-0.7299406
220766997,0.4294099,0.49538463,-0.8911255,-3.0890777,0.0,0.0065357876,0.14404014,0.09733528,0.0,0.0,0.0,0.0,0.0,0.0,0.0031114975,0.0034892992,-0.7338391
220867384,0.4294099,0.49538463,-0.8911255,-3.0890777,0.0,0.013900161,0.12992774,0.08775592,0.0,0.0,0.0,0.0,0.0,0.0,0.0035519763,0.003488632,-0.7384978
220967356,0.4294099,0.49538463,-0.8911255,-3.0890777,0.0,0.01867643,0.117782086,0.07853091,0.0,0.0,0.0,0.0,0.0,0.0,0.0039917766,0.0017216597,-0.7419734
221067535,0.4294099,0.49538463,-0.8911255,-3.0890777,0.0,0.021705156,0.10709171,0.068180025,0.0,0.0,0.0,0.0,0.0,0.0,0.001324302,0.0060826717,-0.7478915
221167551,0.4294099,0.49538463,-0.8911255,-3.0890777,0.0,0.022625389,0.0994056,0.058969438,0.0,0.0,0.0,0.0,0.0,0.0,-0.00015906896,0.002336346,-0.7491574
221267674,0.4294099,0.49538463,-0.8911255,-3.0890777,0.0,0.022354666,0.09322054,0.049708307,0.0,0.0,0.0,0.0,0.0,0.0,-0.0036763782,0.0060234806,-0.75254107
221367633,0.4294099,0.49538463,-0.8911255,-3.0890777,0.0,0.021001881,0.089473255,0.042694807,0.0,0.0,0.0,0.0,0.0,0.0,-0.004616405,0.0054900176,-0.7492626
221467730,0.4294099,0.49538463,-0.8911255,-3.0890777,0.0,0.019019375,0.08619733,0.037659228,0.0,0.0,0.0,0.0,0.0,0.0,0.00032108836,0.004635639,-0.7468872
221567801,0.4294099,0.49538463,-0.8911255,-3.0890777,0.0,0.017181177,0.083673894,0.035795033,0.0,0.0,0.0,0.0,0.0,0.0,-0.0030233709,0.004366578,-0.7420249
221667970,0.4294099,0.49538463,-0.8911255,-3.0890777,0.0,0.015755232,0.07926531,0.037459493,0.0,0.0,0.0,0.0,0.0,0.0,-3.508199e-05,0.002371501,-0.7386024
221768397,0.4294099,0.49538463,-0.8911255,-3.0890777,0.0,0.015605688,0.07269051,0.04068649,0.0,0.0,0.0,0.0,0.0,0.0,-0.004162294,0.00044923043,-0.7344396
221888484,0.4294099,0.49538463,-0.8911255,-3.0890777,0.0,0.017294878,0.061761122,0.045440435,0.0,0.0,0.0,0.0,0.0,0.0,-0.0030378024,-0.0046116053,-0.73348254
221988533,0.4294099,0.49538463,-0.8911255,-3.0890777,0.0,0.019729558,0.049105737,0.05031663,0.0,0.0,0.0,0.0,0.0,0.0,-0.0055685737,-0.008590693,-0.7294166
222088528,0.4294099,0.49538463,-0.8911255,-3.0890777,0.0,0.02233145,0.03587638,0.0551852,0.0,0.0,0.0,0.0,0.0,0.0,-0.0031880876,-0.0030137487,-0.72590935
222188578,0.4294099,0.49538463,-0.8911255,-3.0890777,0.0,0.02562167,0.02129947,0.06061697,0.0,0.0,0.0,0.0,0.0,0.0,-8.739671e-05,-0.010381702,-0.72244215
222288587,0.4294099,0.49538463,-0.8911255,-3.0890777,0.0,0.029119557,0.008038203,0.06528324,0.0,0.0,0.0,0.0,0.0,0.0,0.0012343242,-0.001771372,-0.72296095
222388656,0.4294099,0.49538463,-0.8911255,-3.0890777,0.0,0.033410553,-0.0037038028,0.06842685,0.0,0.0,0.0,0.0,0.0,0.0,0.0010218224,-0.0048636934,-0.72496164
222489343,0.4294099,0.49538463,-0.8911255,-3.0890777,0.0,0.037493486,-0.012091407,0.06880903,0.0,0.0,0.0,0.0,0.0,0.0,-0.0015492358,-0.00089115393,-0.7281958
222589100,0.4294099,0.49538463,-0.8911255,-3.0890777,0.0,0.040297188,-0.015136724,0.06730479,0.0,0.0,0.0,0.0,0.0,0.0,-0.00021340884,0.0016031971,-0.73018265
222690594,0.4294099,0.49538463,-0.8911255,-3.0890777,0.0,0.04173607,-0.013505432,0.06465751,0.0,0.0,0.0,0.0,0.0,0.0,-0.0063772467,0.0037745659,-0.7305845
222789168,0.4294099,0.49538463,-0.8911255,-3.0890777,0.0,0.041695047,-0.008158502,0.06126821,0.0,0.0,0.0,0.0,0.0,0.0,-0.0032125916,0.0085691335,-0.7327547
222889406,0.4294099,0.49538463,-0.8911255,-3.0890777,0.0,0.039666135,0.00020186603,0.05765927,0.0,0.0,0.0,0.0,0.0,0.0,-0.0056668827,0.010956537,-0.73523533
222989242,0.4294099,0.49538463,-0.8911255,-3.0890777,0.0,0.036006387,0.009748657,0.053715646,0.0,0.0,0.0,0.0,0.0,0.0,-0.008808404,0.008813102,-0.73591423
223089331,0.4294099,0.49538463,-0.8911255,-3.0890777,0.0,0.029425556,0.019771291,0.05009097,0.0,0.0,0.0,0.0,0.0,0.0,-0.011449041,0.0045023225,-0.7361989
223189431,0.4294099,0.49538463,-0.8911255,-3.0890777,0.0,0.021057883,0.02801122,0.048131943,0.0,0.0,0.0,0.0,0.0,0.0,-0.013885058,0.014500529,-0.73294985
223309740,0.4294099,0.49538463,-0.8911255,-3.0890777,0.0,0.008561073,0.035595067,0.048296213,0.0,0.0,0.0,0.0,0.0,0.0,-0.015337618,0.010929817,-0.72753847
223409850,0.4294099,0.49538463,-0.8911255,-3.0890777,0.0,-0.0042122616,0.037099607,0.05131656,0.0,0.0,0.0,0.0,0.0,0.0,-0.020487653,0.0074096667,-0.72431976
223510001,0.4294099,0.49538463,-0.8911255,-3.0890777,0.0,-0.017294087,0.033983592,0.05651754,0.0,0.0,0.0,0.0,0.0,0.0,-0.019141516,0.007611377,-0.71974957
223609947,0.4294099,0.49538463,-0.8911255,-3.0890777,0.0,-0.0308109,0.02640971,0.06268579,0.0,0.0,0.0,0.0,0.0,0.0,-0.02143417,1.4894176e-05,-0.720919
223709972,0.4294099,0.49538463,-0.8911255,-3.0890777,0.0,-0.041774575,0.0156932,0.06714928,0.0,0.0,0.0,0.0,0.0,0.0,-0.020304114,-0.0007932065,-0.7235687
223810261,0.4294099,0.49538463,-0.8911255,-3.0890777,0.0,-0.051135268,0.0013659224,0.068534434,0.0,0.0,0.0,0.0,0.0,0.0,-0.01740454,-0.008187702,-0.7284657
223910127,0.4294099,0.49538463,-0.8911255,-3.0890777,0.0,-0.057240795,-0.013731816,0.06590414,0.0,0.0,0.0,0.0,0.0,0.0,-0.0181,-0.009515218,-0.7350725
224010233,0.4294099,0.49538463,-0.8911255,-3.0890777,0.0,-0.06176053,-0.031136915,0.059153914,0.0,0.0,0.0,0.0,0.0,0.0,-0.015432411,-0.012211989,-0.7382437
224110479,0.4294099,0.49538463,-0.8911255,-3.0890777,0.0,-0.06411129,-0.04678173,0.04966843,0.0,0.0,0.0,0.0,0.0,0.0,-0.013261168,-0.015666721,-0.7456711
224210618,0.4294099,0.49538463,-0.8911255,-3.0890777,0.0,-0.0650403,-0.062729426,0.036531985,0.0,0.0,0.0,0.0,0.0,0.0,-0.014974724,-0.012269408,-0.7519337
224310670,0.4294099,0.49538463,-0.8911255,-3.0890777,0.0,-0.06568635,-0.07573979,0.023408592,0.0,0.0,0.0,0.0,0.0,0.0,-0.015995411,-0.02063527,-0.7546743
224410765,0.4294099,0.49538463,-0.8911255,-3.0890777,0.0,-0.06657604,-0.08787265,0.009846926,0.0,0.0,0.0,0.0,0.0,0.0,-0.0177878,-0.010044703,-0.7577734
224510797,0.4294099,0.49538463,-0.8911255,-3.0890777,0.0,-0.06857009,-0.0953742,-0.00044471025,0.0,0.0,0.0,0.0,0.0,0.0,-0.019833524,-0.013353301,-0.7569098
224610860,0.4294099,0.49538463,-0.8911255,-3.0890777,0.0,-0.072234094,-0.10131404,-0.008215249,0.0,0.0,0.0,0.0,0.0,0.0,-0.022714859,-0.008207637,-0.75331604
224710930,0.4294099,0.49538463,-0.8911255,-3.0890777,0.0,-0.076879784,-0.10437034,-0.011291027,0.0,0.0,0.0,0.0,0.0,0.0,-0.021815328,-0.011710323,-0.74821174
224831036,0.4294099,0.49538463,-0.8911255,-3.0890777,0.0,-0.08490057,-0.10604914,-0.008949161,0.0,0.0,0.0,0.0,0.0,0.0,-0.018915683,-0.013269909,-0.7416909
224931520,0.4294099,0.49538463,-0.8911255,-3.0890777,0.0,-0.092971936,-0.105751015,-0.0019402504,0.0,0.0,0.0,0.0,0.0,0.0,-0.01957585,-0.008139022,-0.7333866
225031645,0.4294099,0.49538463,-0.8911255,-3.0890777,0.0,-0.10120994,-0.103363335,0.008155465,0.0,0.0,0.0,0.0,0.0,0.0,-0.024766743,-0.00823423,-0.7268821
225131698,0.4294099,0.49538463,-0.8911255,-3.0890777,0.0,-0.109525286,-0.09953581,0.02042085,0.0,0.0,0.0,0.0,0.0,0.0,-0.025490431,-0.007994913,-0.7228762
225231825,0.4294099,0.49538463,-0.8911255,-3.0890777,0.0,-0.11571213,-0.094737224,0.031048954,0.0,0.0,0.0,0.0,0.0,0.0,-0.021361757,-0.0039377376,-0.72291684
225331767,0.4294099,0.49538463,-0.8911255,-3.0890777,0.0,-0.12095119,-0.08850356,0.039986312,0.0,0.0,0.0,0.0,0.0,0.0,-0.02254096,-0.004804593,-0.7221124
225431746,0.4294099,0.49538463,-0.8911255,-3.0890777,0.0,-0.124285005,-0.08113406,0.04613024,0.0,0.0,0.0,0.0,0.0,0.0,-0.028866576,7.469399e-05,-0.71968067
225531817,0.4294099,0.49538463,-0.8911255,-3.0890777,0.0,-0.12590554,-0.07196085,0.050712764,0.0,0.0,0.0,0.0,0.0,0.0,-0.02343934,0.004282718,-0.71947134
225633364,0.4294099,0.49538463,-0.8911255,-3.0890777,0.0,-0.12538539,-0.061759625,0.05425328,0.0,0.0,0.0,0.0,0.0,0.0,-0.022598369,0.0021823389,-0.7218417
225732245,0.4294099,0.49538463,-0.8911255,-3.0890777,0.0,-0.12269069,-0.051780928,0.055463433,0.0,0.0,0.0,0.0,0.0,0.0,-0.021050148,0.0060736006,-0.7217196
225832212,0.4294099,0.49538463,-0.8911255,-3.0890777,0.0,-0.11804103,-0.04039478,0.056246877,0.0,0.0,0.0,0.0,0.0,0.0,-0.018521314,0.005576775,-0.7211042
225932534,0.4294099,0.49538463,-0.8911255,-3.0890777,0.0,-0.112571396,-0.02834131,0.058271527,0.0,0.0,0.0,0.0,0.0,0.0,-0.022469169,0.009066229,-0.7186805
226032353,0.4294099,0.49538463,-0.8911255,-3.0890777,0.0,-0.10745272,-0.016749954,0.060566366,0.0,0.0,0.0,0.0,0.0,0.0,-0.019491833,0.009744764,-0.71824896
226152392,0.4294099,0.49538463,-0.8911255,-3.0890777,0.0,-0.10157828,-0.0020572215,0.06395453,0.0,0.0,0.0,0.0,0.0,0.0,-0.020124298,0.012179211,-0.7193029
226252611,0.4294099,0.49538463,-0.8911255,-3.0890777,0.0,-0.09780392,0.010233815,0.06807488,0.0,0.0,0.0,0.0,0.0,0.0,-0.01800113,0.012259952,-0.7148181
226352643,0.4294099,0.49538463,-0.8911255,-3.0890777,0.0,-0.094995975,0.0210653,0.07267016,0.0,0.0,0.0,0.0,0.0,0.0,-0.018306322,0.011987474,-0.7124112
226452764,0.4294099,0.49538463,-0.8911255,-3.0890777,0.0,-0.09206889,0.0308483,0.078391135,0.0,0.0,0.0,0.0,0.0,0.0,-0.014707284,0.011121276,-0.71067667
226553030,0.4294099,0.49538463,-0.8911255,-3.0890777,0.0,-0.088967055,0.0371312,0.083845675,0.0,0.0,0.0,0.0,0.0,0.0,-0.016393024,0.011435469,-0.71184194
226653027,0.4294099,0.49538463,-0.8911255,-3.0890777,0.0,-0.08429492,0.040885177,0.08840579,0.0,0.0,0.0,0.0,0.0,0.0,-0.013621717,0.007989808,-0.7123879
226753432,0.4294099,0.49538463,-0.8911255,-3.0890777,0.0,-0.07821153,0.04137829,0.09080726,0.0,0.0,0.0,0.0,0.0,0.0,-0.010921649,0.008233798,-0.7168409
226853354,0.4294099,0.49538463,-0.8911255,-3.0890777,0.0,-0.06935281,0.040145207,0.09154755,0.0,0.0,0.0,0.0,0.0,0.0,-0.006874256,0.002740201,-0.7135691
226953299,0.4294099,0.49538463,-0.8911255,-3.0890777,0.0,-0.06106354,0.03718647,0.09895855,0.0,0.0,0.0,0.0,0.0,0.0,-0.014616839,0.0072163474,-0.6847019
227053555,0.4294099,0.49538463,-0.8911255,-3.0890777,0.0,-0.05035391,0.03333295,0.10739648,0.0,0.0,0.0,0.0,0.0,0.0,0.0022853836,0.0117835235,-0.7273598
227153618,0.4294099,0.49538463,-0.8911255,-3.0890777,0.0,-0.04009552,0.02902372,0.10297978,0.0,0.0,0.0,0.0,0.0,0.0,-0.017799227,0.0002628786,-0.7146283
227253791,0.4294099,0.49538463,-0.8911255,-3.0890777,0.0,-0.032223113,0.024523806,0.10217005,0.0,0.0,0.0,0.0,0.0,0.0,-0.0048861154,0.0049153036,-0.7286271
227353778,0.4294099,0.49538463,-0.8911255,-3.0890777,0.0,-0.02440747,0.021246046,0.090474546,0.0,0.0,0.0,0.0,0.0,0.0,-0.006871761,0.0038533243,-0.7399604
227473918,0.4294099,0.49538463,-0.8911255,-3.0890777,0.0,-0.017123392,0.018741718,0.072990716,0.0,0.0,0.0,0.0,0.0,0.0,-0.0057428903,-0.00062719267,-0.7496742
227573886,0.4294099,0.49538463,-0.8911255,-3.0890777,0.0,-0.009534248,0.017790144,0.05257255,0.0,0.0,0.0,0.0,0.0,0.0,-0.0055556344,0.004704961,-0.7544421
227674003,0.4294099,0.49538463,-0.8911255,-3.0890777,0.0,-0.0019492104,0.017834283,0.033239543,0.0,0.0,0.0,0.0,0.0,0.0,-0.0013113171,0.0067486223,-0.7647929
227774045,0.4294099,0.49538463,-0.8911255,-3.0890777,0.0,0.007353671,0.018631103,0.012288153,0.0,0.0,0.0,0.0,0.0,0.0,-0.0013862997,0.0056352196,-0.7665499
227874185,0.4294099,0.49538463,-0.8911255,-3.0890777,0.0,0.016593387,0.01886009,-0.0037992,0.0,0.0,0.0,0.0,0.0,0.0,0.003442672,0.005667179,-0.76874137
227974360,0.4294099,0.49538463,-0.8911255,-3.0890777,0.0,0.027805926,0.019321721,-0.017482162,0.0,0.0,0.0,0.0,0.0,0.0,0.0035418253,0.004067721,-0.76548195
228074952,0.4294099,0.49538463,-0.8911255,-3.0890777,0.0,0.039702915,0.019833947,-0.026513755,0.0,0.0,0.0,0.0,0.0,0.0,0.007597088,0.0068838894,-0.76644385
228175043,0.4294099,0.49538463,-0.8911255,-3.0890777,0.0,0.054817017,0.019947704,-0.031968057,0.0,0.0,0.0,0.0,0.0,0.0,0.011109842,0.002109727,-0.75793064
228275215,0.4294099,0.49538463,-0.8911255,-3.0890777,0.0,0.07056245,0.01910737,-0.033223808,0.0,0.0,0.0,0.0,0.0,0.0,0.013327958,0.0037087686,-0.7553499
228374966,0.4294099,0.49538463,-0.8911255,-3.0890777,0.0,0.08944695,0.01684497,-0.030654907,0.0,0.0,0.0,0.0,0.0,0.0,0.015146396,0.00064305845,-0.7490753
228475187,0.4294099,0.49538463,-0.8911255,-3.0890777,0.0,0.10795249,0.013800756,-0.026581347,0.0,0.0,0.0,0.0,0.0,0.0,0.021190833,0.00015721773,-0.74109125
228595204,0.4294099,0.49538463,-0.8911255,-3.0890777,0.0,0.13196328,0.008484517,-0.019003153,0.0,0.0,0.0,0.0,0.0,0.0,0.021751516,0.0025573962,-0.7384477
228695325,0.4294099,0.49538463,-0.8911255,-3.0890777,0.0,0.15346849,0.004363449,-0.0119766,0.0,0.0,0.0,0.0,0.0,0.0,0.028407214,0.002400251,-0.7366049
228795053,0.4294099,0.49538463,-0.8911255,-3.0890777,0.0,0.17534743,0.0020823628,-0.007261157,0.0,0.0,0.0,0.0,0.0,0.0,0.029491536,0.0015536074,-0.73320067
228895821,0.4294099,0.49538463,-0.8911255,-3.0890777,0.0,0.19605818,0.0009664088,-0.004463613,0.0,0.0,0.0,0.0,0.0,0.0,0.035936676,0.0022216316,-0.7441674
228995407,0.4294099,0.49538463,-0.8911255,-3.0890777,0.0,0.21856503,0.0007292375,-0.0058303475,0.0,0.0,0.0,0.0,0.0,0.0,0.033112336,0.00197474,-0.74125665
229095526,0.4294099,0.49538463,-0.8911255,-3.0890777,0.0,0.23950863,0.0008765459,-0.010429263,0.0,0.0,0.0,0.0,0.0,0.0,0.040083043,0.0047316533,-0.75178385
229195512,0.4294099,0.49538463,-0.8911255,-3.0890777,0.0,0.261207,0.0015231684,-0.016359508,0.0,0.0,0.0,0.0,0.0,0.0,0.037595037,0.0025935296,-0.7500926
229295609,0.4294099,0.49538463,-0.8911255,-3.0890777,0.0,0.2807095,0.0029078333,-0.022432506,0.0,0.0,0.0,0.0,0.0,0.0,0.04576661,0.0059824483,-0.7486214
229395632,0.4294099,0.49538463,-0.8911255,-3.0890777,0.0,0.30055976,0.00573778,-0.027203023,0.0,0.0,0.0,0.0,0.0,0.0,0.044115305,0.0071400274,-0.74890286
229495713,0.4294099,0.49538463,-0.8911255,-3.0890777,0.0,0.31760773,0.009131734,-0.028921425,0.0,0.0,0.0,0.0,0.0,0.0,0.044960868,0.0043101953,-0.7417401
229616118,0.4294099,0.49538463,-0.8911255,-3.0890777,0.0,0.33704627,0.0129596,-0.027078211,0.0,0.0,0.0,0.0,0.0,0.0,0.046616398,0.0039639245,-0.73841465
229716173,0.4294099,0.49538463,-0.8911255,-3.0890777,0.0,0.35207906,0.0152218025,-0.022198021,0.0,0.0,0.0,0.0,0.0,0.0,0.047588028,0.0048895665,-0.7345881
229816281,0.4294099,0.49538463,-0.8911255,-3.0890777,0.0,0.36438316,0.015926663,-0.015281022,0.0,0.0,0.0,0.0,0.0,0.0,0.05059134,0.006450246,-0.7322576
229916489,0.4294099,0.49538463,-0.8911255,-3.0890777,0.0,0.37505162,0.015034942,-0.007070124,0.0,0.0,0.0,0.0,0.0,0.0,0.04393864,0.0027111715,-0.7279167
230016443,0.4294099,0.49538463,-0.8911255,-3.0890777,0.0,0.38172874,0.013535952,0.00074470043,0.0,0.0,0.0,0.0,0.0,0.0,0.0439603,0.0057291626,-0.72309136
230116455,0.4294099,0.49538463,-0.8911255,-3.0890777,0.0,0.38511202,0.012644231,0.009797275,0.0,0.0,0.0,0.0,0.0,0.0,0.042292807,0.006542431,-0.72022283
230216428,0.4294099,0.49538463,-0.8911255,-3.0890777,0.0,0.38557118,0.013435473,0.017729223,0.0,0.0,0.0,0.0,0.0,0.0,0.04221021,0.00934464,-0.71915245
230316557,0.4294099,0.49538463,-0.8911255,-3.0890777,0.0,0.38364422,0.016452987,0.024917006,0.0,0.0,0.0,0.0,0.0,0.0,0.039276063,0.009827237,-0.7184301
230516893,0.4294099,0.49538463,-0.8911255,-3.0890777,0.0,0.3734898,0.028046438,0.03610897,0.0,0.0,0.0,0.0,0.0,0.0,0.037510004,0.015027769,-0.71514267
230617113,0.4294099,0.49538463,-0.8911255,-3.0890777,0.0,0.36675096,0.036610115,0.04111266,0.0,0.0,0.0,0.0,0.0,0.0,0.037441887,0.018936478,-0.71423346
230717201,0.4294099,0.49538463,-0.8911255,-3.0890777,0.0,0.35906038,0.048887223,0.04630989,0.0,0.0,0.0,0.0,0.0,0.0,0.03737127,0.01952699,-0.71430004
230837174,0.4294099,0.49538463,-0.8911255,-3.0890777,0.0,0.35015765,0.06510038,0.051496863,0.0,0.0,0.0,0.0,0.0,0.0,0.03292086,0.019165967,-0.71411455
230937178,0.4294099,0.49538463,-0.8911255,-3.0890777,0.0,0.34395185,0.07765126,0.054756403,0.0,0.0,0.0,0.0,0.0,0.0,0.035530582,0.021759981,-0.71687746
231037397,0.4294099,0.49538463,-0.8911255,-3.0890777,0.0,0.33618763,0.089971855,0.058492005,0.0,0.0,0.0,0.0,0.0,0.0,0.032582372,0.02261388,-0.71181023
231137453,0.4294099,0.49538463,-0.8911255,-3.0890777,0.0,0.32872656,0.09920843,0.06285632,0.0,0.0,0.0,0.0,0.0,0.0,0.031505525,0.019123843,-0.7112534
231237594,0.4294099,0.49538463,-0.8911255,-3.0890777,0.0,0.31912866,0.105759166,0.06768417,0.0,0.0,0.0,0.0,0.0,0.0,0.032938294,0.017996393,-0.7111454
231337961,0.4294099,0.49538463,-0.8911255,-3.0890777,0.0,0.30963546,0.10859407,0.071240485,0.0,0.0,0.0,0.0,0.0,0.0,0.029223654,0.014034897,-0.71485335
231438132,0.4294099,0.49538463,-0.8911255,-3.0890777,0.0,0.29903913,0.107219115,0.07250148,0.0,0.0,0.0,0.0,0.0,0.0,0.030140882,0.01079229,-0.7204653
231538138,0.4294099,0.49538463,-0.8911255,-3.0890777,0.0,0.2892346,0.10159807,0.07042241,0.0,0.0,0.0,0.0,0.0,0.0,0.029244974,0.008184635,-0.7256277
231638028,0.4294099,0.49538463,-0.8911255,-3.0890777,0.0,0.27879018,0.09105296,0.064000964,0.0,0.0,0.0,0.0,0.0,0.0,0.028710846,0.0040297965,-0.73500705
231738390,0.4294099,0.49538463,-0.8911255,-3.0890777,0.0,0.26849625,0.076277755,0.05387062,0.0,0.0,0.0,0.0,0.0,0.0,0.029220156,0.0007142192,-0.7399948
231858169,0.4294099,0.49538463,-0.8911255,-3.0890777,0.0,0.2579448,0.057289097,0.040277064,0.0,0.0,0.0,0.0,0.0,0.0,0.028635047,0.00043680985,-0.74538136
231958411,0.4294099,0.49538463,-0.8911255,-3.0890777,0.0,0.24783455,0.038035665,0.026907742,0.0,0.0,0.0,0.0,0.0,0.0,0.028524678,-0.007942173,-0.75048363
232058369,0.4294099,0.49538463,-0.8911255,-3.0890777,0.0,0.23758255,0.018651685,0.014031529,0.0,0.0,0.0,0.0,0.0,0.0,0.02620334,-0.009033179,-0.75202715
232158540,0.4294099,0.49538463,-0.8911255,-3.0890777,0.0,0.22798014,0.00087722536,0.0032548904,0.0,0.0,0.0,0.0,0.0,0.0,0.02681977,-0.007986799,-0.75584316
232258655,0.4294099,0.49538463,-0.8911255,-3.0890777,0.0,0.21611889,-0.0179791,-0.0041139126,0.0,0.0,0.0,0.0,0.0,0.0,0.02177313,-0.0114383865,-0.7446443
232358790,0.4294099,0.49538463,-0.8911255,-3.0890777,0.0,0.20545572,-0.034249615,-0.008029103,0.0,0.0,0.0,0.0,0.0,0.0,0.022670932,-0.014965408,-0.7478909
232458836,0.4294099,0.49538463,-0.8911255,-3.0890777,0.0,0.19363606,-0.050357956,-0.009227455,0.0,0.0,0.0,0.0,0.0,0.0,0.024978671,-0.015651062,-0.7469498
232558975,0.4294099,0.49538463,-0.8911255,-3.0890777,0.0,0.18360145,-0.063796066,-0.009594202,0.0,0.0,0.0,0.0,0.0,0.0,0.018942287,-0.014597976,-0.74451303
232658911,0.4294099,0.49538463,-0.8911255,-3.0890777,0.0,0.17340818,-0.07614007,-0.011030972,0.0,0.0,0.0,0.0,0.0,0.0,0.019949088,-0.01593639,-0.74635655
232758990,0.4294099,0.49538463,-0.8911255,-3.0890777,0.0,0.163174,-0.08570937,-0.013513565,0.0,0.0,0.0,0.0,0.0,0.0,0.019071013,-0.014271157,-0.749599
232859306,0.4294099,0.49538463,-0.8911255,-3.0890777,0.0,0.14989951,-0.09449232,-0.017468333,0.0,0.0,0.0,0.0,0.0,0.0,0.016654667,-0.015505188,-0.7492035
232959483,0.4294099,0.49538463,-0.8911255,-3.0890777,0.0,0.1354909,-0.10230061,-0.021428764,0.0,0.0,0.0,0.0,0.0,0.0,0.010528971,-0.016964767,-0.7486711
233079526,0.4294099,0.49538463,-0.8911255,-3.0890777,0.0,0.11527601,-0.112273924,-0.026445508,0.0,0.0,0.0,0.0,0.0,0.0,0.0092138145,-0.017410751,-0.749135
233179562,0.4294099,0.49538463,-0.8911255,-3.0890777,0.0,0.09629219,-0.12054686,-0.02927363,0.0,0.0,0.0,0.0,0.0,0.0,0.0075653363,-0.016053721,-0.748122
233279591,0.4294099,0.49538463,-0.8911255,-3.0890777,0.0,0.077480175,-0.12734072,-0.0302369,0.0,0.0,0.0,0.0,0.0,0.0,0.0047992254,-0.017206825,-0.746515
233379725,0.4294099,0.49538463,-0.8911255,-3.0890777,0.0,0.056522403,-0.13322721,-0.02994883,0.0,0.0,0.0,0.0,0.0,0.0,0.0018570032,-0.015558682,-0.74466014
233479733,0.4294099,0.49538463,-0.8911255,-3.0890777,0.0,0.036312867,-0.13715225,-0.029131293,0.0,0.0,0.0,0.0,0.0,0.0,-0.0016968213,-0.013063469,-0.744042
233579950,0.4294099,0.49538463,-0.8911255,-3.0890777,0.0,0.012235629,-0.13964242,-0.02579385,0.0,0.0,0.0,0.0,0.0,0.0,-0.0072165076,-0.014355999,-0.7352412
233679964,0.4294099,0.49538463,-0.8911255,-3.0890777,0.0,-0.010526846,-0.14026082,-0.021140695,0.0,0.0,0.0,0.0,0.0,0.0,-0.003819988,-0.010321145,-0.7373241
233780246,0.4294099,0.49538463,-0.8911255,-3.0890777,0.0,-0.035309877,-0.13895857,-0.016349912,0.0,0.0,0.0,0.0,0.0,0.0,-0.0103085255,-0.011369173,-0.73570144
233880165,0.4294099,0.49538463,-0.8911255,-3.0890777,0.0,-0.058158536,-0.13621902,-0.0130496025,0.0,0.0,0.0,0.0,0.0,0.0,-0.013841876,-0.010060027,-0.737489
233980290,0.4294099,0.49538463,-0.8911255,-3.0890777,0.0,-0.08345422,-0.13175368,-0.00959605,0.0,0.0,0.0,0.0,0.0,0.0,-0.01809614,-0.00851016,-0.73388094
234080468,0.4294099,0.49538463,-0.8911255,-3.0890777,0.0,-0.10789558,-0.12693976,-0.006648183,0.0,0.0,0.0,0.0,0.0,0.0,-0.02113584,-0.006597466,-0.73207784
234200471,0.4294099,0.49538463,-0.8911255,-3.0890777,0.0,-0.14091249,-0.12101696,-0.0038805604,0.0,0.0,0.0,0.0,0.0,0.0,-0.027195547,-0.0066533955,-0.7341296
234300526,0.4294099,0.49538463,-0.8911255,-3.0890777,0.0,-0.17061521,-0.11706089,-0.0027985573,0.0,0.0,0.0,0.0,0.0,0.0,-0.031469885,-0.010050573,-0.7374305
234400649,0.4294099,0.49538463,-0.8911255,-3.0890777,0.0,-0.19784532,-0.11486851,-0.0028960705,0.0,0.0,0.0,0.0,0.0,0.0,-0.033729814,-0.006847688,-0.73845744
234500785,0.4294099,0.49538463,-0.8911255,-3.0890777,0.0,-0.22739059,-0.11362357,-0.004428625,0.0,0.0,0.0,0.0,0.0,0.0,-0.04352828,-0.008740181,-0.7357964
234602610,0.4294099,0.49538463,-0.8911255,-3.0890777,0.0,-0.2584667,-0.11362288,-0.0056132674,0.0,0.0,0.0,0.0,0.0,0.0,-0.047482327,-0.011807002,-0.7361999
234701106,0.4294099,0.49538463,-0.8911255,-3.0890777,0.0,-0.28755453,-0.1150078,-0.005838573,0.0,0.0,0.0,0.0,0.0,0.0,-0.0482688,-0.015961021,-0.73569846
235121383,0.4294099,0.49538463,-0.8911255,-3.0890777,0.0,-0.40788135,-0.11997875,0.016738534,0.0,0.0,0.0,0.0,0.0,0.0,-0.05492316,-0.0072657326,-0.72200614
235221582,0.4294099,0.49538463,-0.8911255,-3.0890777,0.0,-0.42606956,-0.11274334,0.02279061,0.0,0.0,0.0,0.0,0.0,0.0,-0.055751134,-9.316951e-06,-0.72170186
235322073,0.4294099,0.49538463,-0.8911255,-3.0890777,0.0,-0.44038936,-0.10015828,0.027104318,0.0,0.0,0.0,0.0,0.0,0.0,-0.051782902,0.004023483,-0.7238395
235421857,0.4294099,0.49538463,-0.8911255,-3.0890777,0.0,-0.44893938,-0.08409965,0.026774287,0.0,0.0,0.0,0.0,0.0,0.0,-0.050394807,0.010017665,-0.73162764
235521887,0.4294099,0.49538463,-0.8911255,-3.0890777,0.0,-0.45391795,-0.06258645,0.020197332,0.0,0.0,0.0,0.0,0.0,0.0,-0.050316606,0.011755532,-0.74355906
235621991,0.4294099,0.49538463,-0.8911255,-3.0890777,0.0,-0.45544428,-0.03924819,0.008369684,0.0,0.0,0.0,0.0,0.0,0.0,-0.049682856,0.016041897,-0.7559564
235721968,0.4294099,0.49538463,-0.8911255,-3.0890777,0.0,-0.45479655,-0.012048203,-0.008009851,0.0,0.0,0.0,0.0,0.0,0.0,-0.052357916,0.019021994,-0.75854063
235822118,0.4294099,0.49538463,-0.8911255,-3.0890777,0.0,-0.4531993,0.012970076,-0.022556245,0.0,0.0,0.0,0.0,0.0,0.0,-0.04539144,0.015912298,-0.7602536
235922239,0.4294099,0.49538463,-0.8911255,-3.0890777,0.0,-0.4505594,0.03921034,-0.03589958,0.0,0.0,0.0,0.0,0.0,0.0,-0.046848316,0.01915828,-0.76051223
236022383,0.4294099,0.49538463,-0.8911255,-3.0890777,0.0,-0.44693205,0.061107565,-0.044949234,0.0,0.0,0.0,0.0,0.0,0.0,-0.045326542,0.021624124,-0.7594049
236122663,0.4294099,0.49538463,-0.8911255,-3.0890777,0.0,-0.44125214,0.081093915,-0.05188334,0.0,0.0,0.0,0.0,0.0,0.0,-0.038066752,0.022996916,-0.760486
236242875,0.4294099,0.49538463,-0.8911255,-3.0890777,0.0,-0.43115053,0.09855261,-0.05611235,0.0,0.0,0.0,0.0,0.0,0.0,-0.03265264,0.021766488,-0.7600305
236342936,0.4294099,0.49538463,-0.8911255,-3.0890777,0.0,-0.41876242,0.10813037,-0.058075547,0.0,0.0,0.0,0.0,0.0,0.0,-0.024028089,0.019912045,-0.7602185
236442851,0.4294099,0.49538463,-0.8911255,-3.0890777,0.0,-0.39918622,0.114048585,-0.059797823,0.0,0.0,0.0,0.0,0.0,0.0,-0.018852305,0.016652912,-0.7592379
236542931,0.4294099,0.49538463,-0.8911255,-3.0890777,0.0,-0.3755448,0.116109915,-0.060250282,0.0,0.0,0.0,0.0,0.0,0.0,-0.013836516,0.018260391,-0.7593814
236642950,0.4294099,0.49538463,-0.8911255,-3.0890777,0.0,-0.34258577,0.114583775,-0.06183386,0.0,0.0,0.0,0.0,0.0,0.0,-0.00509018,0.011416061,-0.75653344
236743033,0.4294099,0.49538463,-0.8911255,-3.0890777,0.0,-0.30664703,0.10985705,-0.06250095,0.0,0.0,0.0,0.0,0.0,0.0,-0.0011789072,0.0038784016,-0.7564957
236843066,0.4294099,0.49538463,-0.8911255,-3.0890777,0.0,-0.26236233,0.101117186,-0.06284946,0.0,0.0,0.0,0.0,0.0,0.0,0.007316511,-0.00066282414,-0.75469965
236943366,0.4294099,0.49538463,-0.8911255,-3.0890777,0.0,-0.21741223,0.08918322,-0.063863695,0.0,0.0,0.0,0.0,0.0,0.0,0.013660968,-0.005183408,-0.7587429
237043471,0.4294099,0.49538463,-0.8911255,-3.0890777,0.0,-0.16726062,0.071624555,-0.06589818,0.0,0.0,0.0,0.0,0.0,0.0,0.016495347,-0.012337984,-0.7587813
237143960,0.4294099,0.49538463,-0.8911255,-3.0890777,0.0,-0.121301524,0.049996834,-0.069245756,0.0,0.0,0.0,0.0,0.0,0.0,0.023500485,-0.020293774,-0.76150906
237243749,0.4294099,0.49538463,-0.8911255,-3.0890777,0.0,-0.07386244,0.023031583,-0.07316047,0.0,0.0,0.0,0.0,0.0,0.0,0.026641851,-0.02463563,-0.7607
237343796,0.4294099,0.49538463,-0.8911255,-3.0890777,0.0,-0.031801373,-0.0051200357,-0.07591033,0.0,0.0,0.0,0.0,0.0,0.0,0.028243773,-0.026000915,-0.760587
237463711,0.4294099,0.49538463,-0.8911255,-3.0890777,0.0,0.017297314,-0.0425721,-0.07964647,0.0,0.0,0.0,0.0,0.0,0.0,0.031533085,-0.031730354,-0.7616283
237563801,0.4294099,0.49538463,-0.8911255,-3.0890777,0.0,0.05447373,-0.0749133,-0.0816319,0.0,0.0,0.0,0.0,0.0,0.0,0.03273966,-0.033995494,-0.7618649
237665846,0.4294099,0.49538463,-0.8911255,-3.0890777,0.0,0.08646814,-0.10443217,-0.08357233,0.0,0.0,0.0,0.0,0.0,0.0,0.032488383,-0.03338751,-0.76281977
237764233,0.4294099,0.49538463,-0.8911255,-3.0890777,0.0,0.11141623,-0.12791137,-0.08432627,0.0,0.0,0.0,0.0,0.0,0.0,0.031005103,-0.03455519,-0.7598012
237865859,0.4294099,0.49538463,-0.8911255,-3.0890777,0.0,0.13477752,-0.14728695,-0.08445096,0.0,0.0,0.0,0.0,0.0,0.0,0.032696817,-0.029463498,-0.75917834
237964340,0.4294099,0.49538463,-0.8911255,-3.0890777,0.0,0.15382293,-0.15912552,-0.08268839,0.0,0.0,0.0,0.0,0.0,0.0,0.03191551,-0.02735658,-0.7546252
238065343,0.4294099,0.49538463,-0.8911255,-3.0890777,0.0,0.17333287,-0.16321154,-0.07957333,0.0,0.0,0.0,0.0,0.0,0.0,0.035085607,-0.019648697,-0.7560699
238164393,0.4294099,0.49538463,-0.8911255,-3.0890777,0.0,0.18992469,-0.15868488,-0.0768469,0.0,0.0,0.0,0.0,0.0,0.0,0.033470336,-0.012776241,-0.75623983
238265458,0.4294099,0.49538463,-0.8911255,-3.0890777,0.0,0.20639104,-0.14547315,-0.075256765,0.0,0.0,0.0,0.0,0.0,0.0,0.03216919,-0.007957431,-0.7564236
238364583,0.4294099,0.49538463,-0.8911255,-3.0890777,0.0,0.21919689,-0.1273872,-0.073678076,0.0,0.0,0.0,0.0,0.0,0.0,0.032074854,-0.0024457308,-0.75517607
238465318,0.4294099,0.49538463,-0.8911255,-3.0890777,0.0,0.23136479,-0.10385812,-0.072669566,0.0,0.0,0.0,0.0,0.0,0.0,0.033732727,0.00238352,-0.7556341
238564974,0.4294099,0.49538463,-0.8911255,-3.0890777,0.0,0.24084817,-0.08095377,-0.07162917,0.0,0.0,0.0,0.0,0.0,0.0,0.033144567,0.0005031945,-0.7533907
238665854,0.4294099,0.49538463,-0.8911255,-3.0890777,0.0,0.2493255,-0.057043206,-0.06928015,0.0,0.0,0.0,0.0,0.0,0.0,0.033275474,0.006521767,-0.7480097
238785991,0.4294099,0.49538463,-0.8911255,-3.0890777,0.0,0.25821367,-0.031604234,-0.06516534,0.0,0.0,0.0,0.0,0.0,0.0,0.033768464,0.010726804,-0.7465059
238885181,0.4294099,0.49538463,-0.8911255,-3.0890777,0.0,0.26459754,-0.013899424,-0.06090218,0.0,0.0,0.0,0.0,0.0,0.0,0.033215795,0.009584244,-0.74388313
238985445,0.4294099,0.49538463,-0.8911255,-3.0890777,0.0,0.27151614,0.0014437243,-0.055531442,0.0,0.0,0.0,0.0,0.0,0.0,0.03376138,0.013512698,-0.7426412
239085307,0.4294099,0.49538463,-0.8911255,-3.0890777,0.0,0.27806288,0.01316175,-0.050943375,0.0,0.0,0.0,0.0,0.0,0.0,0.034137618,0.013857449,-0.7423668
239185462,0.4294099,0.49538463,-0.8911255,-3.0890777,0.0,0.284789,0.023213716,-0.047962487,0.0,0.0,0.0,0.0,0.0,0.0,0.03282859,0.01361433,-0.7466321
239685951,0.4294099,0.49538463,-0.8911255,-3.0890777,0.0,0.26719487,0.029428782,-0.047474742,0.0,0.0,0.0,0.0,0.0,0.0,0.014543131,-0.0060091894,-0.74526393
240206788,0.4294099,0.49538463,-0.8911255,-3.0890777,0.0,0.15974426,-0.05694825,-0.04001075,0.0,0.0,0.0,0.0,0.0,0.0,-0.00041672494,-0.028299307,-0.7487285
240307388,0.4294099,0.49538463,-0.8911255,-3.0890777,0.0,0.13399944,-0.08405441,-0.041937947,0.0,0.0,0.0,0.0,0.0,0.0,-0.004974627,-0.033621058,-0.75361633
240407624,0.4294099,0.49538463,-0.8911255,-3.0890777,0.0,0.11090064,-0.10911966,-0.0456869,0.0,0.0,0.0,0.0,0.0,0.0,-0.0051158797,-0.03667244,-0.75837725
240507185,0.4294099,0.49538463,-0.8911255,-3.0890777,0.0,0.08840274,-0.13481565,-0.05237168,0.0,0.0,0.0,0.0,0.0,0.0,-0.0012816358,-0.0355054,-0.76432127
240607662,0.4294099,0.49538463,-0.8911255,-3.0890777,0.0,0.07153523,-0.15624441,-0.061357617,0.0,0.0,0.0,0.0,0.0,0.0,-0.0029459493,-0.03646314,-0.76841176
240707027,0.4294099,0.49538463,-0.8911255,-3.0890777,0.0,0.057068404,-0.17704529,-0.07139516,0.0,0.0,0.0,0.0,0.0,0.0,-0.0018686093,-0.041593432,-0.77339005
240807417,0.4294099,0.49538463,-0.8911255,-3.0890777,0.0,0.04705602,-0.19447756,-0.08112568,0.0,0.0,0.0,0.0,0.0,0.0,-0.0030099303,-0.040124264,-0.77561885
240907762,0.4294099,0.49538463,-0.8911255,-3.0890777,0.0,0.038867902,-0.21190287,-0.09137702,0.0,0.0,0.0,0.0,0.0,0.0,0.0017482662,-0.043495655,-0.7783745
241008560,0.4294099,0.49538463,-0.8911255,-3.0890777,0.0,0.032439984,-0.22714865,-0.09961671,0.0,0.0,0.0,0.0,0.0,0.0,0.002093322,-0.043204095,-0.7788454
241127995,0.4294099,0.49538463,-0.8911255,-3.0890777,0.0,0.026548667,-0.2405456,-0.10478538,0.0,0.0,0.0,0.0,0.0,0.0,-0.00011190958,-0.038933218,-0.77018905
241227649,0.4294099,0.49538463,-0.8911255,-3.0890777,0.0,0.021945188,-0.24758525,-0.10530007,0.0,0.0,0.0,0.0,0.0,0.0,0.0037533897,-0.036021207,-0.7712402
241328668,0.4294099,0.49538463,-0.8911255,-3.0890777,0.0,0.016126264,-0.25174835,-0.10273695,0.0,0.0,0.0,0.0,0.0,0.0,0.00016373117,-0.037921194,-0.7647258
241427688,0.4294099,0.49538463,-0.8911255,-3.0890777,0.0,0.009781046,-0.25248003,-0.09735358,0.0,0.0,0.0,0.0,0.0,0.0,-0.00028223684,-0.03283317,-0.7632721
241528650,0.4294099,0.49538463,-0.8911255,-3.0890777,0.0,0.0011560157,-0.2497517,-0.09012318,0.0,0.0,0.0,0.0,0.0,0.0,-0.002598755,-0.027840843,-0.75407785
241627830,0.4294099,0.49538463,-0.8911255,-3.0890777,0.0,-0.0086192265,-0.24413915,-0.082226336,0.0,0.0,0.0,0.0,0.0,0.0,-0.0031722975,-0.028806882,-0.75107074
241728132,0.4294099,0.49538463,-0.8911255,-3.0890777,0.0,-0.021018105,-0.23500264,-0.07390767,0.0,0.0,0.0,0.0,0.0,0.0,-0.0077670855,-0.028121293,-0.75222564
241828305,0.4294099,0.49538463,-0.8911255,-3.0890777,0.0,-0.0340097,-0.22469303,-0.06789601,0.0,0.0,0.0,0.0,0.0,0.0,-0.011124996,-0.022626013,-0.7516031
241928332,0.4294099,0.49538463,-0.8911255,-3.0890777,0.0,-0.049695935,-0.21181919,-0.06489384,0.0,0.0,0.0,0.0,0.0,0.0,-0.015112374,-0.02067493,-0.7551555
242028346,0.4294099,0.49538463,-0.8911255,-3.0890777,0.0,-0.06604535,-0.20002466,-0.06509501,0.0,0.0,0.0,0.0,0.0,0.0,-0.018955113,-0.021815795,-0.76022565
242128364,0.4294099,0.49538463,-0.8911255,-3.0890777,0.0,-0.086491436,-0.18768083,-0.06791657,0.0,0.0,0.0,0.0,0.0,0.0,-0.02186465,-0.020979675,-0.7606702
242228428,0.4294099,0.49538463,-0.8911255,-3.0890777,0.0,-0.10744479,-0.17697716,-0.07141954,0.0,0.0,0.0,0.0,0.0,0.0,-0.026533995,-0.019986453,-0.7597604
242328567,0.4294099,0.49538463,-0.8911255,-3.0890777,0.0,-0.13145575,-0.16621275,-0.07272738,0.0,0.0,0.0,0.0,0.0,0.0,-0.028327065,-0.017753253,-0.75453484
242428649,0.4294099,0.49538463,-0.8911255,-3.0890777,0.0,-0.1539006,-0.15822701,-0.06991553,0.0,0.0,0.0,0.0,0.0,0.0,-0.028708119,-0.016427465,-0.7488435
242548945,0.4294099,0.49538463,-0.8911255,-3.0890777,0.0,-0.18091792,-0.15049416,-0.06024307,0.0,0.0,0.0,0.0,0.0,0.0,-0.030523842,-0.01940164,-0.74015963
242649020,0.4294099,0.49538463,-0.8911255,-3.0890777,0.0,-0.20194477,-0.1449231,-0.047664165,0.0,0.0,0.0,0.0,0.0,0.0,-0.03181257,-0.019038891,-0.73441446
242749239,0.4294099,0.49538463,-0.8911255,-3.0890777,0.0,-0.21836261,-0.13990997,-0.034686923,0.0,0.0,0.0,0.0,0.0,0.0,-0.028855251,-0.014208999,-0.7306055
242849188,0.4294099,0.49538463,-0.8911255,-3.0890777,0.0,-0.23249522,-0.13237718,-0.020861447,0.0,0.0,0.0,0.0,0.0,0.0,-0.030484885,-0.011245702,-0.7345414
242949205,0.4294099,0.49538463,-0.8911255,-3.0890777,0.0,-0.242567,-0.121360324,-0.011347413,0.0,0.0,0.0,0.0,0.0,0.0,-0.03525316,-0.005460794,-0.73011833
243049250,0.4294099,0.49538463,-0.8911255,-3.0890777,0.0,-0.25150725,-0.10533788,-0.0018588305,0.0,0.0,0.0,0.0,0.0,0.0,-0.027700031,0.0023084357,-0.7346511
243149457,0.4294099,0.49538463,-0.8911255,-3.0890777,0.0,-0.2569355,-0.0812857,0.0028290153,0.0,0.0,0.0,0.0,0.0,0.0,-0.034067567,0.01230105,-0.7303993
243249467,0.4294099,0.49538463,-0.8911255,-3.0890777,0.0,-0.26078188,-0.054608356,0.0071514845,0.0,0.0,0.0,0.0,0.0,0.0,-0.02982454,0.01300864,-0.7316359
243350230,0.4294099,0.49538463,-0.8911255,-3.0890777,0.0,-0.26292953,-0.02178913,0.010098994,0.0,0.0,0.0,0.0,0.0,0.0,-0.03334793,0.018862374,-0.7344119
243450017,0.4294099,0.49538463,-0.8911255,-3.0890777,0.0,-0.26472777,0.010581234,0.011351526,0.0,0.0,0.0,0.0,0.0,0.0,-0.029595815,0.021301925,-0.7332273
243570110,0.4294099,0.49538463,-0.8911255,-3.0890777,0.0,-0.26681414,0.051446024,0.011930883,0.0,0.0,0.0,0.0,0.0,0.0,-0.03030775,0.019569263,-0.7348429
243670354,0.4294099,0.49538463,-0.8911255,-3.0890777,0.0,-0.26915136,0.08446669,0.012108862,0.0,0.0,0.0,0.0,0.0,0.0,-0.030610751,0.020952748,-0.73792624
243770173,0.4294099,0.49538463,-0.8911255,-3.0890777,0.0,-0.27225608,0.11177047,0.0123208165,0.0,0.0,0.0,0.0,0.0,0.0,-0.03446804,0.024669765,-0.73734087
243870156,0.4294099,0.49538463,-0.8911255,-3.0890777,0.0,-0.27599669,0.13740242,0.011886656,0.0,0.0,0.0,0.0,0.0,0.0,-0.03240581,0.023612585,-0.73584163
243970253,0.4294099,0.49538463,-0.8911255,-3.0890777,0.0,-0.2800415,0.1558033,0.01279223,0.0,0.0,0.0,0.0,0.0,0.0,-0.033905547,0.018219857,-0.73929954
244070368,0.4294099,0.49538463,-0.8911255,-3.0890777,0.0,-0.2837286,0.16890839,0.014494598,0.0,0.0,0.0,0.0,0.0,0.0,-0.03384809,0.01694184,-0.73863566
244170981,0.4294099,0.49538463,-0.8911255,-3.0890777,0.0,-0.2856529,0.17483155,0.016563118,0.0,0.0,0.0,0.0,0.0,0.0,-0.034661606,0.014411122,-0.7352469
244270757,0.4294099,0.49538463,-0.8911255,-3.0890777,0.0,-0.28486294,0.1747553,0.020167947,0.0,0.0,0.0,0.0,0.0,0.0,-0.028977782,0.014946174,-0.73121035
244370967,0.4294099,0.49538463,-0.8911255,-3.0890777,0.0,-0.2802155,0.16911344,0.025391817,0.0,0.0,0.0,0.0,0.0,0.0,-0.026302865,0.0067370157,-0.73147476
244490967,0.4294099,0.49538463,-0.8911255,-3.0890777,0.0,-0.270123,0.15717587,0.031010091,0.0,0.0,0.0,0.0,0.0,0.0,-0.026485555,0.0015643584,-0.7328207
244590911,0.4294099,0.49538463,-0.8911255,-3.0890777,0.0,-0.25988722,0.14586459,0.035198748,0.0,0.0,0.0,0.0,0.0,0.0,-0.02510748,-0.001238958,-0.73072916
244690896,0.4294099,0.49538463,-0.8911255,-3.0890777,0.0,-0.2484385,0.13377257,0.040516913,0.0,0.0,0.0,0.0,0.0,0.0,-0.021937832,-0.0014912491,-0.7266735
244791005,0.4294099,0.49538463,-0.8911255,-3.0890777,0.0,-0.23762907,0.12378555,0.0460158,0.0,0.0,0.0,0.0,0.0,0.0,-0.018511714,-0.0030539092,-0.7246393
244891349,0.4294099,0.49538463,-0.8911255,-3.0890777,0.0,-0.22549225,0.11371142,0.05246705,0.0,0.0,0.0,0.0,0.0,0.0,-0.015533159,-0.0048883813,-0.7248318
244991332,0.4294099,0.49538463,-0.8911255,-3.0890777,0.0,-0.21255487,0.10439999,0.056319475,0.0,0.0,0.0,0.0,0.0,0.0,-0.012337003,-0.005250793,-0.72976387
245091427,0.4294099,0.49538463,-0.8911255,-3.0890777,0.0,-0.19489865,0.09509702,0.05782634,0.0,0.0,0.0,0.0,0.0,0.0,-0.003978682,-0.0074455156,-0.73304564
