timestamp,ref_timestamp,ref_lat,ref_lon,x,y,z,delta_xy[0],delta_xy[1],delta_z,vx,vy,vz,z_deriv,delta_vxy[0],delta_vxy[1],delta_vz,ax,ay,az,yaw,ref_alt,dist_bottom,dist_bottom_rate,eph,epv,evh,evv,vxy_max,vz_max,hagl_min,hagl_max,xy_valid,z_valid,v_xy_valid,v_z_valid,xy_reset_counter,z_reset_counter,vxy_reset_counter,vz_reset_counter,xy_global,z_global,dist_bottom_valid
138967294,0,0.0,0.0,0.2888987,0.6181289,-0.036253605,0.26472634,0.68447477,-0.254872,-0.0015252088,-0.00012911537,-0.00056650717,-0.0004845015,-0.0020145755,-0.0010988325,0.0014978752,-0.014159912,0.008685236,-0.011541572,-3.0918899,0.0,0.10017344,0.00056650717,0.0053478805,0.0036937036,0.025856663,0.017299835,inf,inf,inf,inf,1,1,1,1,2,1,2,3,0,0,0
139071270,0,0.0,0.0,0.28878516,0.6181698,-0.036274713,0.26472634,0.68447477,-0.254872,-0.0012300035,0.0003113308,-0.0010340839,-0.0009102298,-0.0020145755,-0.0010988325,0.0014978752,-0.00035848265,0.0015686,0.0027879947,-3.0918882,0.0,0.10022713,0.0010340839,0.0052372892,0.0036152287,0.02597457,0.017368175,inf,inf,inf,inf,1,1,1,1,2,1,2,3,0,0,0
139167270,0,0.0,0.0,0.28873268,0.6182302,-0.036353152,0.26472634,0.68447477,-0.254872,-0.0015238635,0.00013595799,-0.0017547283,-0.0016083311,-0.0020145755,-0.0010988325,0.0014978752,-0.011265759,0.002238306,-0.008200115,-3.0918643,0.0,0.100296065,0.0017547283,0.0051269615,0.003538741,0.025865072,0.017300949,inf,inf,inf,inf,1,1,1,1,2,1,2,3,0,0,0
139271287,0,0.0,0.0,0.2886631,0.61828315,-0.036521606,0.26472634,0.68447477,-0.254872,-0.001647845,0.0006740454,-0.0022799096,-0.0021170604,-0.0020145755,-0.0010988325,0.0014978752,0.011036576,0.037153326,-0.0037518556,-3.0918453,0.0,0.10040801,0.0022799096,0.005191689,0.0035794277,0.026036315,0.017405413,inf,inf,inf,inf,1,1,1,1,2,1,2,3,0,0,0
139375270,0,0.0,0.0,0.28862157,0.6183839,-0.03667714,0.26472634,0.68447477,-0.254872,-0.0020183933,0.0004832452,-0.0018616533,-0.0016669397,-0.0020145755,-0.0010988325,0.0014978752,0.3124475,-0.53082716,0.083976984,-3.0921378,0.0,0.10050282,0.0018616533,0.0052535734,0.0036200404,0.026112683,0.017452713,inf,inf,inf,inf,1,1,1,1,2,1,2,3,0,0,0
139479302,0,0.0,0.0,0.2885072,0.6184326,-0.03675087,0.26472634,0.68447477,-0.254872,-0.0004753613,0.0002970114,-0.0014112743,-0.0011545778,-0.0020145755,-0.0010988325,0.0014978752,0.57433236,0.14258294,0.039937086,-3.0918992,0.0,0.100542545,0.0014112743,0.0053140246,0.0036598274,0.026222706,0.017520335,inf,inf,inf,inf,1,1,1,1,2,1,2,3,0,0,0
139575312,0,0.0,0.0,0.28835824,0.6185171,-0.036768794,0.26472634,0.68447477,-0.254872,-0.002777398,-0.00048273357,-0.0015415519,-0.0012038212,-0.0020145755,-0.0010988325,0.0014978752,0.10184066,0.20237952,-0.100453295,-3.0913646,0.0,0.100553066,0.0015415519,0.005227617,0.0036032908,0.026000407,0.017386774,inf,inf,inf,inf,1,1,1,1,2,1,2,3,0,0,0
139679270,0,0.0,0.0,0.28823546,0.6185673,-0.03669678,0.26472634,0.68447477,-0.254872,-0.0027579756,0.00039627092,0.0004443948,0.00086445204,-0.0020145755,-0.0010988325,0.0014978752,0.19121593,-0.024543416,0.00231161,-3.0919428,0.0,0.10047044,-0.0004443948,0.0053042215,0.003653182,0.026204444,0.017510416,inf,inf,inf,inf,1,1,1,1,2,1,2,3,0,0,0
139783301,0,0.0,0.0,0.28814495,0.6185021,-0.03649684,0.26472634,0.68447477,-0.254872,-0.0016915469,0.0017156827,0.00026714028,0.0007451354,-0.0020145755,-0.0010988325,0.0014978752,-0.078282684,0.7022562,-0.15407327,-3.09128,0.0,0.100265086,-0.00026714028,0.005354138,0.0036864623,0.026287854,0.017561475,inf,inf,inf,inf,1,1,1,1,2,1,2,3,0,0,0
139881689,0,0.0,0.0,0.28812736,0.61857057,-0.03628629,0.26472634,0.68447477,-0.254872,-0.0045335167,0.0016652204,0.0005803449,0.0010927006,-0.0020145755,-0.0010988325,0.0014978752,-1.0046562,0.8708874,-0.5202015,-3.092071,0.0,0.100108445,-0.0005803449,0.005272909,0.0036332419,0.026092842,0.01744361,inf,inf,inf,inf,1,1,1,1,2,1,2,3,0,0,0
139987270,0,0.0,0.0,0.28812215,0.6184182,-0.036068425,0.26472634,0.68447477,-0.254872,-0.005944602,-0.0030051076,0.0027709187,0.0032787076,-0.0020145755,-0.0010988325,0.0014978752,-0.69202757,0.08058651,0.097105525,-3.0916867,0.0,0.1,-0.0027709187,0.0053769243,0.0037002927,0.026416637,0.017639186,inf,inf,inf,inf,1,1,1,1,2,1,2,3,0,0,0
140082470,0,0.0,0.0,0.28798765,0.6185249,-0.03590203,0.26472634,0.68447477,-0.254872,-0.0029248367,-0.0011311509,0.0010246994,0.0014886432,-0.0020145755,-0.0010988325,0.0014978752,0.60396576,-0.55380476,0.1972911,-3.0920885,0.0,0.1,-0.0010246994,0.005401643,0.0037166222,0.026681473,0.017827228,inf,inf,inf,inf,1,1,1,1,2,1,2,3,0,0,0
140187299,0,0.0,0.0,0.28759927,0.6182451,-0.035775084,0.26472634,0.68447477,-0.254872,-0.0061030574,0.0010665256,0.0030138048,0.0033824178,-0.0020145755,-0.0010988325,0.0014978752,0.10468555,0.5547892,0.23590723,-3.0919132,0.0,0.1,-0.0030138048,0.0053842533,0.003708485,0.026418915,0.01766646,inf,inf,inf,inf,1,1,1,1,2,1,2,3,0,0,0
140289714,0,0.0,0.0,0.28731677,0.6179604,-0.035611615,0.26472634,0.68447477,-0.254872,-0.005073854,-0.0058008195,-0.00030141487,-7.416887e-05,-0.0020145755,-0.0010988325,0.0014978752,0.07414793,-1.1327864,-0.261558,-3.0918858,0.0,0.1,0.00030141487,0.0053619565,0.0036944172,0.026279267,0.017570404,inf,inf,inf,inf,1,1,1,1,2,1,2,3,0,0,0
140394486,0,0.0,0.0,0.2871763,0.61787385,-0.035513096,0.26472634,0.68447477,-0.254872,-0.00042930906,-0.001749941,0.00044051168,0.00054491515,-0.0020145755,-0.0010988325,0.0014978752,1.3912611,0.28604102,-0.68100685,-3.0921814,0.0,0.1,-0.00044051168,0.005420749,0.0037326107,0.026477989,0.017691614,inf,inf,inf,inf,1,1,1,1,2,1,2,3,0,0,0
140490470,0,0.0,0.0,0.2872743,0.61789554,-0.035574578,0.26472634,0.68447477,-0.254872,-0.005246626,0.0016567392,-0.0017575864,-0.0017719083,-0.0020145755,-0.0010988325,0.0014978752,-1.2366084,-0.23489249,-0.78710073,-3.0921526,0.0,0.1,0.0017575864,0.005325967,0.0036693036,0.02626087,0.01755036,inf,inf,inf,inf,1,1,1,1,2,1,2,3,0,0,0
140594479,0,0.0,0.0,0.2874973,0.61800635,-0.03575637,0.26472634,0.68447477,-0.254872,-0.0015921816,-0.0013000619,0.0005721649,0.00043838652,-0.0020145755,-0.0010988325,0.0014978752,0.36997584,-0.7369848,0.29040578,-3.092047,0.0,0.1,-0.0005721649,0.005398584,0.0037158648,0.026457164,0.01766515,inf,inf,inf,inf,1,1,1,1,2,1,2,3,0,0,0
140698472,0,0.0,0.0,0.2877568,0.61825556,-0.036002576,0.26472634,0.68447477,-0.254872,-0.00027380371,0.003139885,-0.0005984713,-0.00083654094,-0.0020145755,-0.0010988325,0.0014978752,0.45466858,1.470528,0.48911572,-3.0918791,0.0,0.1,0.0005984713,0.005112491,0.0035279875,0.025713168,0.017210035,inf,inf,inf,inf,1,1,1,1,2,1,2,3,0,0,0
140794469,0,0.0,0.0,0.28802276,0.6185493,-0.03625421,0.26472634,0.68447477,-0.254872,-0.0020186654,0.001198461,-6.682767e-05,-0.00035925975,-0.0020145755,-0.0010988325,0.0014978752,-0.45207512,-0.437328,0.3922555,-3.092221,0.0,0.1,6.682767e-05,0.005418056,0.0037273297,0.026503533,0.017686768,inf,inf,inf,inf,1,1,1,1,2,1,2,3,0,0,0
140898494,0,0.0,0.0,0.2882902,0.6187745,-0.036504477,0.26472634,0.68447477,-0.254872,-0.0017638779,0.00053265895,-0.0041153673,-0.0044028154,-0.0020145755,-0.0010988325,0.0014978752,-0.38049898,-0.8041011,-0.52664346,-3.0922337,0.0,0.10005219,0.0041153673,0.0051197484,0.0035323857,0.025708374,0.017203161,inf,inf,inf,inf,1,1,1,1,2,1,2,3,0,0,0
141002470,0,0.0,0.0,0.28846616,0.6189238,-0.036745965,0.26472634,0.68447477,-0.254872,0.0009301392,2.7313696e-05,-0.0009780106,-0.0012247207,-0.0020145755,-0.0010988325,0.0014978752,0.9872142,-0.5792822,0.07521569,-3.0920787,0.0,0.10025449,0.0009780106,0.0051736967,0.0035679946,0.025822178,0.01727527,inf,inf,inf,inf,1,1,1,1,2,1,2,3,0,0,0
141098470,0,0.0,0.0,0.28856894,0.61900735,-0.036939856,0.26472634,0.68447477,-0.254872,-0.004434026,0.0015200602,-0.002705079,-0.0028620167,-0.0020145755,-0.0010988325,0.0014978752,-0.71547,0.42411724,-0.06485951,-3.092126,0.0,0.10047871,0.002705079,0.005112695,0.0035275961,0.025687944,0.017193614,inf,inf,inf,inf,1,1,1,1,2,1,2,3,0,0,0
141202475,0,0.0,0.0,0.28860262,0.61895156,-0.037128918,0.26472634,0.68447477,-0.254872,-0.00082747755,0.00096684025,-0.002261198,-0.0022995938,-0.0020145755,-0.0010988325,0.0014978752,0.76007885,-0.169784,0.06586525,-3.092312,0.0,0.10063261,0.002261198,0.005185688,0.0035754628,0.025872553,0.01730562,inf,inf,inf,inf,1,1,1,1,2,1,2,3,0,0,0
141306469,0,0.0,0.0,0.28860494,0.61882466,-0.03721066,0.26472634,0.68447477,-0.254872,-0.0052311257,0.00013144343,-0.00050021836,-0.0004184038,-0.0020145755,-0.0010988325,0.0014978752,-1.3599566,-0.257298,0.14891563,-3.0921915,0.0,0.100680456,0.00050021836,0.005266909,0.0036284202,0.02609741,0.017440245,inf,inf,inf,inf,1,1,1,1,2,1,2,3,0,0,0
141402470,0,0.0,0.0,0.28862333,0.61870843,-0.03725317,0.26472634,0.68447477,-0.254872,-0.002212829,-0.0008624239,-0.0022261683,-0.0020010583,-0.0020145755,-0.0010988325,0.0014978752,-0.13510813,-0.26553354,-0.19930029,-3.0923474,0.0,0.10083054,0.0022261683,0.0051878346,0.0035770244,0.025868818,0.017303986,inf,inf,inf,inf,1,1,1,1,2,1,2,3,0,0,0
141506476,0,0.0,0.0,0.2886748,0.61861855,-0.037188523,0.26472634,0.68447477,-0.254872,-0.0041168844,-0.0033855354,9.125004e-05,0.00045836685,-0.0020145755,-0.0010988325,0.0014978752,-1.2443727,-1.9351577,0.45377454,-3.0925362,0.0,0.10073636,-9.125004e-05,0.005250702,0.0036183372,0.026027802,0.017401531,inf,inf,inf,inf,1,1,1,1,2,1,2,3,0,0,0
141610470,0,0.0,0.0,0.2887642,0.6185477,-0.036993355,0.26472634,0.68447477,-0.254872,0.0011674141,0.004104165,-0.001195328,-0.0007197005,-0.0020145755,-0.0010988325,0.0014978752,0.9327916,1.9831009,0.21594653,-3.0925503,0.0,0.10057833,0.001195328,0.0053098476,0.0036572788,0.02617025,0.017487166,inf,inf,inf,inf,1,1,1,1,2,1,2,3,0,0,0
141714488,0,0.0,0.0,0.28888273,0.6185212,-0.03668564,0.26472634,0.68447477,-0.254872,0.0015031559,0.0018513023,0.0002737482,0.0008469656,-0.0020145755,-0.0010988325,0.0014978752,0.7394273,0.26890707,-0.42409694,-3.0924191,0.0,0.10032974,-0.0002737482,0.0054058204,0.0037192132,0.026464414,0.017665133,inf,inf,inf,inf,1,1,1,1,2,1,2,3,0,0,0
141810476,0,0.0,0.0,0.2890441,0.61855406,-0.036452033,0.26472634,0.68447477,-0.254872,-0.0016244093,0.0008200398,-0.00014421862,0.00046049096,-0.0020145755,-0.0010988325,0.0014978752,-1.3268869,0.0978626,-0.09679754,-3.0923133,0.0,0.10017946,0.00014421862,0.005332228,0.0036713874,0.026261931,0.017543603,inf,inf,inf,inf,1,1,1,1,2,1,2,3,0,0,0
141914482,0,0.0,0.0,0.28920895,0.6186415,-0.036197357,0.26472634,0.68447477,-0.254872,5.346673e-06,-0.0013150583,0.0022102555,0.002793263,-0.0020145755,-0.0010988325,0.0014978752,0.36363986,-1.3020452,0.25762305,-3.0922923,0.0,0.1,-0.0022102555,0.0054193055,0.0037281702,0.02648779,0.017681457,inf,inf,inf,inf,1,1,1,1,2,1,2,3,0,0,0
142018484,0,0.0,0.0,0.28938124,0.6187474,-0.036058124,0.26472634,0.68447477,-0.254872,0.0037156977,0.0022788758,-0.00044549437,5.7950514e-05,-0.0020145755,-0.0010988325,0.0014978752,1.3901528,0.59760326,0.34456554,-3.0924852,0.0,0.1,0.00044549437,0.005119422,0.0035323922,0.025692472,0.017200014,inf,inf,inf,inf,1,1,1,1,2,1,2,3,0,0,0
142122470,0,0.0,0.0,0.28953022,0.6188478,-0.035991166,0.26472634,0.68447477,-0.254872,0.0024314406,0.0026578505,0.0011853862,0.0015800537,-0.0020145755,-0.0010988325,0.0014978752,1.1021196,0.60857004,-0.05015085,-3.092606,0.0,0.1,-0.0011853862,0.0051876204,0.003577229,0.025863413,0.017303402,inf,inf,inf,inf,1,1,1,1,2,1,2,3,0,0,0
142217668,0,0.0,0.0,0.2895512,0.6189214,-0.036060605,0.26472634,0.68447477,-0.254872,0.004297654,0.0018496051,-0.0010575232,-0.0007580285,-0.0020145755,-0.0010988325,0.0014978752,1.848184,-0.069591306,-0.38956237,-3.0925865,0.0,0.1,0.0010575232,0.005119332,0.0035323834,0.025695866,0.017199252,inf,inf,inf,inf,1,1,1,1,2,1,2,3,0,0,0
142322470,0,0.0,0.0,0.28949487,0.6190396,-0.03619792,0.26472634,0.68447477,-0.254872,-0.0007114041,0.0040372727,-0.0009132805,-0.00071596017,-0.0020145755,-0.0010988325,0.0014978752,-0.80267406,0.44450852,0.31629235,-3.0927954,0.0,0.1,0.0009132805,0.0051547713,0.0035563859,0.025737792,0.01722719,inf,inf,inf,inf,1,1,1,1,2,1,2,3,0,0,0
142425669,0,0.0,0.0,0.28937384,0.61914515,-0.036362503,0.26472634,0.68447477,-0.254872,1.7938435e-05,0.002728443,-0.0038924306,-0.003771402,-0.0020145755,-0.0010988325,0.0014978752,-0.26454258,-0.14998947,-0.9546423,-3.0928874,0.0,0.1,0.0038924306,0.005224395,0.003601079,0.025962265,0.017359361,inf,inf,inf,inf,1,1,1,1,2,1,2,3,0,0,0
142529707,0,0.0,0.0,0.2892705,0.6192261,-0.03651523,0.26472634,0.68447477,-0.254872,-0.0018869836,0.004365015,0.00079637975,0.0009015495,-0.0020145755,-0.0010988325,0.0014978752,-1.3214259,0.6326425,0.29305965,-3.0926125,0.0,0.1000501,-0.00079637975,0.005318392,0.0036620456,0.026243681,0.017532762,inf,inf,inf,inf,1,1,1,1,2,1,2,3,0,0,0
142625670,0,0.0,0.0,0.28937912,0.6193312,-0.036646973,0.26472634,0.68447477,-0.254872,0.0036991464,0.0036577198,-0.00037432436,-0.00025758884,-0.0020145755,-0.0010988325,0.0014978752,1.0318958,0.8811084,0.12463619,-3.0926092,0.0,0.10015078,0.00037432436,0.0052606543,0.003624231,0.02609329,0.01744237,inf,inf,inf,inf,1,1,1,1,2,1,2,3,0,0,0
142729698,0,0.0,0.0,0.28952986,0.61948615,-0.036691923,0.26472634,0.68447477,-0.254872,0.0005664981,0.005245776,0.00020567715,0.0003815027,-0.0020145755,-0.0010988325,0.0014978752,-0.84602773,0.42579573,0.4043186,-3.0927548,0.0,0.100265056,-0.00020567715,0.0053207255,0.0036641306,0.026213178,0.017515412,inf,inf,inf,inf,1,1,1,1,2,1,2,3,0,0,0
142833670,0,0.0,0.0,0.28968984,0.61957705,-0.03670174,0.26472634,0.68447477,-0.254872,0.000624753,0.0015821462,-0.0021033918,-0.0018707758,-0.0020145755,-0.0010988325,0.0014978752,-0.869813,-0.73993117,-0.024841085,-3.0927439,0.0,0.10024567,0.0021033918,0.0053981324,0.0037144634,0.02643316,0.017647939,inf,inf,inf,inf,1,1,1,1,2,1,2,3,0,0,0
142929670,0,0.0,0.0,0.28984252,0.61957514,-0.036621362,0.26472634,0.68447477,-0.254872,0.0043026586,0.00035989916,-0.0006482181,-0.00036887827,-0.0020145755,-0.0010988325,0.0014978752,0.9430086,-0.51827025,0.17611775,-3.09273,0.0,0.10022056,0.0006482181,0.005294272,0.0036473598,0.026128247,0.017463053,inf,inf,inf,inf,1,1,1,1,2,1,2,3,0,0,0
143033669,0,0.0,0.0,0.28995374,0.61951596,-0.036531717,0.26472634,0.68447477,-0.254872,0.0015988993,0.0016568583,0.000353797,0.00067061064,-0.0020145755,-0.0010988325,0.0014978752,-0.56958,0.3132819,-0.18131433,-3.0930092,0.0,0.10013066,-0.000353797,0.005364209,0.0036928707,0.026323244,0.017582033,inf,inf,inf,inf,1,1,1,1,2,1,2,3,0,0,0
143137683,0,0.0,0.0,0.28998464,0.61938405,-0.036464147,0.26472634,0.68447477,-0.254872,-0.00027934276,-0.0007600867,1.0909172e-05,0.00034784983,-0.0020145755,-0.0010988325,0.0014978752,-0.5476475,-1.0555484,0.33181712,-3.0930626,0.0,0.100129746,-1.0909172e-05,0.005085246,0.003509754,0.025631448,0.017164238,inf,inf,inf,inf,1,1,1,1,2,1,2,3,0,0,0
143233683,0,0.0,0.0,0.28991628,0.61915493,-0.03639167,0.26472634,0.68447477,-0.254872,0.00071345654,0.0044468874,-0.00018930918,0.00015023617,-0.0020145755,-0.0010988325,0.0014978752,-0.24764806,1.5833455,-0.5456708,-3.092862,0.0,0.10006608,0.00018930918,0.005403127,0.003717284,0.02647429,0.017673543,inf,inf,inf,inf,1,1,1,1,2,1,2,3,0,0,0
143337670,0,0.0,0.0,0.2897281,0.6188964,-0.036334675,0.26472634,0.68447477,-0.254872,-0.0011981004,-0.0012460528,0.0010737197,0.0013811251,-0.0020145755,-0.0010988325,0.0014978752,-0.31786293,-0.592976,0.12576863,-3.0930233,0.0,0.1,-0.0010737197,0.0051152185,0.0035294094,0.025695765,0.01720162,inf,inf,inf,inf,1,1,1,1,2,1,2,3,0,0,0
143441687,0,0.0,0.0,0.28949407,0.6185971,-0.036329724,0.26472634,0.68447477,-0.254872,-0.0027623838,-0.0025173258,0.00064395374,0.0009280062,-0.0020145755,-0.0010988325,0.0014978752,-0.662706,-1.1103148,-0.11389253,-3.092945,0.0,0.1,-0.00064395374,0.0051915515,0.0035793635,0.025908997,0.017329996,inf,inf,inf,inf,1,1,1,1,2,1,2,3,0,0,0
143537670,0,0.0,0.0,0.28931543,0.6184221,-0.036326036,0.26472634,0.68447477,-0.254872,0.0005534462,0.0028390447,-0.00091092655,-0.00065175846,-0.0020145755,-0.0010988325,0.0014978752,0.78323305,1.0013887,0.08932297,-3.092929,0.0,0.1,0.00091092655,0.0054969015,0.0037790427,0.026670381,0.017791076,inf,inf,inf,inf,1,1,1,1,2,1,2,3,0,0,0
143641669,0,0.0,0.0,0.28914192,0.618285,-0.036338143,0.26472634,0.68447477,-0.254872,-0.0005860792,6.395864e-05,-0.0004410269,-0.00020140098,-0.0020145755,-0.0010988325,0.0014978752,-0.30654392,-0.033956528,-0.026582176,-3.0928276,0.0,0.1,0.0004410269,0.0051778457,0.0035709757,0.025833841,0.017286519,inf,inf,inf,inf,1,1,1,1,2,1,2,3,0,0,0
143745705,0,0.0,0.0,0.28903106,0.6181846,-0.03640227,0.26472634,0.68447477,-0.254872,-0.0021582076,-0.0018720059,-0.0006972223,-0.00046632224,-0.0020145755,-0.0010988325,0.0014978752,-0.579454,-0.8418374,0.38508907,-3.0929456,0.0,0.10007302,0.0006972223,0.005226066,0.0036031443,0.025925495,0.017342197,inf,inf,inf,inf,1,1,1,1,2,1,2,3,0,0,0
143841669,0,0.0,0.0,0.28896213,0.6181322,-0.036484815,0.26472634,0.68447477,-0.254872,0.00082378933,0.000567599,-0.00054341595,-0.0003257672,-0.0020145755,-0.0010988325,0.0014978752,0.9457442,0.8194976,0.13727014,-3.0929751,0.0,0.10013401,0.00054341595,0.0051508457,0.003553331,0.025773898,0.017249186,inf,inf,inf,inf,1,1,1,1,2,1,2,3,0,0,0
143945676,0,0.0,0.0,0.28891745,0.61810094,-0.036572397,0.26472634,0.68447477,-0.254872,-0.0019551548,-0.002602304,-0.0008327144,-0.00061974075,-0.0020145755,-0.0010988325,0.0014978752,-1.0016737,-0.60044676,0.30365312,-3.0929756,0.0,0.10016003,0.0008327144,0.0052008796,0.0035863686,0.02588576,0.017316489,inf,inf,inf,inf,1,1,1,1,2,1,2,3,0,0,0
144049671,0,0.0,0.0,0.28889674,0.6180274,-0.03667844,0.26472634,0.68447477,-0.254872,-0.0010255083,-0.00013248113,-0.0013604489,-0.0011414484,-0.0020145755,-0.0010988325,0.0014978752,0.07539438,-0.640458,0.09753509,-3.0929568,0.0,0.100242935,0.0013604489,0.0052864817,0.0036417807,0.026139569,0.017471988,inf,inf,inf,inf,1,1,1,1,2,1,2,3,0,0,0
144153711,0,0.0,0.0,0.28893653,0.61795205,-0.03675231,0.26472634,0.68447477,-0.254872,0.0010601963,-2.2259846e-05,-0.002027232,-0.0017871396,-0.0020145755,-0.0010988325,0.0014978752,0.54459745,0.5724146,-0.17107339,-3.0931177,0.0,0.10024363,0.002027232,0.0053597684,0.0036898616,0.026311854,0.017575137,inf,inf,inf,inf,1,1,1,1,2,1,2,3,0,0,0
144257675,0,0.0,0.0,0.28901914,0.6179177,-0.036800582,0.26472634,0.68447477,-0.254872,0.00016703215,-0.0016299288,-0.0020542769,-0.0017744659,-0.0020145755,-0.0010988325,0.0014978752,-0.025321586,-0.21663567,-0.37328368,-3.0930002,0.0,0.10032773,0.0020542769,0.005096522,0.0035169343,0.025667513,0.017184008,inf,inf,inf,inf,1,1,1,1,2,1,2,3,0,0,0
144353677,0,0.0,0.0,0.2890779,0.6179225,-0.03679289,0.26472634,0.68447477,-0.254872,-0.00025335437,0.0019253265,0.0005932879,0.000925119,-0.0020145755,-0.0010988325,0.0014978752,-0.25176844,1.3403174,0.16130356,-3.092806,0.0,0.10032704,-0.0005932879,0.0053884527,0.00370843,0.026385494,0.01761905,inf,inf,inf,inf,1,1,1,1,2,1,2,3,0,0,0
144456894,0,0.0,0.0,0.28916034,0.6180702,-0.036694873,0.26472634,0.68447477,-0.254872,-7.204731e-05,-0.00054047775,-0.0005813679,-0.00020285291,-0.0020145755,-0.0010988325,0.0014978752,0.10695377,-1.6771144,0.054021876,-3.0928488,0.0,0.10022579,0.0005813679,0.0054773386,0.00376623,0.026624788,0.017763793,inf,inf,inf,inf,1,1,1,1,2,1,2,3,0,0,0
144560870,0,0.0,0.0,0.28924587,0.6182469,-0.0364636,0.26472634,0.68447477,-0.254872,0.0018186234,-0.00018397077,1.2863569e-05,0.00044146308,-0.0020145755,-0.0010988325,0.0014978752,-0.050241157,0.47296357,-0.4060576,-3.092874,0.0,0.10008831,-1.2863569e-05,0.005156741,0.003557161,0.025780315,0.01725475,inf,inf,inf,inf,1,1,1,1,2,1,2,3,0,0,0
144656910,0,0.0,0.0,0.28939113,0.61825883,-0.036323167,0.26472634,0.68447477,-0.254872,0.00095220626,0.0013491277,-0.0010186852,-0.0005699252,-0.0020145755,-0.0010988325,0.0014978752,-0.74059975,1.3136103,-0.00089503406,-3.0929332,0.0,0.1,0.0010186852,0.0054593403,0.0037547008,0.026595378,0.017748483,inf,inf,inf,inf,1,1,1,1,2,1,2,3,0,0,0
144760876,0,0.0,0.0,0.2895462,0.6181568,-0.036234014,0.26472634,0.68447477,-0.254872,0.00074665644,-0.0014438351,0.0006144088,0.0010279365,-0.0020145755,-0.0010988325,0.0014978752,-0.6034596,0.1426023,0.1934869,-3.0925446,0.0,0.1,-0.0006144088,0.005127411,0.00353811,0.025695013,0.017203374,inf,inf,inf,inf,1,1,1,1,2,1,2,3,0,0,0
144864872,0,0.0,0.0,0.2896357,0.61792254,-0.03617359,0.26472634,0.68447477,-0.254872,0.0014870649,-0.005409439,0.0016275926,0.00197065,-0.0020145755,-0.0010988325,0.0014978752,1.3634441,-1.9868795,-0.3045906,-3.0924923,0.0,0.1,-0.0016275926,0.0051715975,0.0035675406,0.025784036,0.01725657,inf,inf,inf,inf,1,1,1,1,2,1,2,3,0,0,0
144968872,0,0.0,0.0,0.28959662,0.617762,-0.036265083,0.26472634,0.68447477,-0.254872,-0.0032406922,-0.006309964,0.0009985951,0.001249183,-0.0020145755,-0.0010988325,0.0014978752,-1.6537888,-1.2402352,0.6093501,-3.0924077,0.0,0.1,-0.0009985951,0.005559814,0.0038221092,0.026731515,0.017829772,inf,inf,inf,inf,1,1,1,1,2,1,2,3,0,0,0
145064898,0,0.0,0.0,0.28948957,0.6176946,-0.036396105,0.26472634,0.68447477,-0.254872,0.003742386,0.00044135915,-0.007597888,-0.0074361973,-0.0020145755,-0.0010988325,0.0014978752,-0.4366863,-0.12940748,-1.0758116,-3.0933342,0.0,0.10005063,0.007597888,0.0054293997,0.0037365449,0.026462486,0.01766744,inf,inf,inf,inf,1,1,1,1,2,1,2,3,0,0,0
145168870,0,0.0,0.0,0.28932393,0.61752814,-0.03647757,0.26472634,0.68447477,-0.254872,0.006886571,-0.0011304511,-0.004075678,-0.0040040123,-0.0020145755,-0.0010988325,0.0014978752,2.6011727,-1.0284842,-0.63334596,-3.0931437,0.0,0.10013209,0.004075678,0.0051185084,0.0035323408,0.02570405,0.017208265,inf,inf,inf,inf,1,1,1,1,2,1,2,3,0,0,0
145272883,0,0.0,0.0,0.28926668,0.6174833,-0.03658269,0.26472634,0.68447477,-0.254872,0.006583864,-0.006506921,-0.0059993966,-0.005985902,-0.0020145755,-0.0010988325,0.0014978752,1.1911963,-2.422059,-0.54522127,-3.093106,0.0,0.10023722,0.0059993966,0.0051542954,0.0035561803,0.025756406,0.017243471,inf,inf,inf,inf,1,1,1,1,2,1,2,3,0,0,0
145368870,0,0.0,0.0,0.28930923,0.61763006,-0.036662918,0.26472634,0.68447477,-0.254872,0.0046985843,-0.001004052,-0.007772123,-0.0077905343,-0.0020145755,-0.0010988325,0.0014978752,1.0188212,-1.5640475,-1.6596037,-3.09329,0.0,0.10031745,0.007772123,0.005102137,0.003521055,0.02568767,0.017194292,inf,inf,inf,inf,1,1,1,1,2,1,2,3,0,0,0
145472870,0,0.0,0.0,0.28930765,0.6176448,-0.036792718,0.26472634,0.68447477,-0.254872,-0.0015048368,-0.00027359574,0.0025217535,0.0024813595,-0.0020145755,-0.0010988325,0.0014978752,-0.00077874266,1.8287407,0.92373955,-3.0930479,0.0,0.100447245,-0.0025217535,0.0051811496,0.0035727886,0.025875686,0.017312597,inf,inf,inf,inf,1,1,1,1,2,1,2,3,0,0,0
145576897,0,0.0,0.0,0.28940785,0.6177042,-0.036884926,0.26472634,0.68447477,-0.254872,0.0032557307,-0.0009678638,-0.0055205226,-0.0055762897,-0.0020145755,-0.0010988325,0.0014978752,-0.036819987,-0.13088198,-1.7949612,-3.093144,0.0,0.10053945,0.0055205226,0.0052666194,0.0036286025,0.026095646,0.017448436,inf,inf,inf,inf,1,1,1,1,2,1,2,3,0,0,0
145672870,0,0.0,0.0,0.28941303,0.61780256,-0.03697322,0.26472634,0.68447477,-0.254872,0.0017866864,-0.0010679449,-0.005509587,-0.005564575,-0.0020145755,-0.0010988325,0.0014978752,-0.14790669,-1.2494206,-0.04343274,-3.0935087,0.0,0.10062775,0.005509587,0.0051878127,0.0035773753,0.02587035,0.017306682,inf,inf,inf,inf,1,1,1,1,2,1,2,3,0,0,0
145776870,0,0.0,0.0,0.28936,0.6178617,-0.03713739,0.26472634,0.68447477,-0.254872,0.0030765766,2.770038e-06,0.006422115,0.006408507,-0.0020145755,-0.0010988325,0.0014978752,1.1258558,0.6934323,1.092423,-3.0931454,0.0,0.100791916,-0.006422115,0.0052676112,0.0036293846,0.026085667,0.017439876,inf,inf,inf,inf,1,1,1,1,2,1,2,3,0,0,0
145880869,0,0.0,0.0,0.2892953,0.6178841,-0.037235025,0.26472634,0.68447477,-0.254872,0.00036561847,0.0013768396,-0.010336864,-0.010263582,-0.0020145755,-0.0010988325,0.0014978752,1.1489433,1.2547891,-3.16623,-3.0933905,0.0,0.10088955,0.010336864,0.0053581167,0.0036881554,0.02635024,0.017598735,inf,inf,inf,inf,1,1,1,1,2,1,2,3,0,0,0
145976870,0,0.0,0.0,0.2891266,0.6179292,-0.037422955,0.26472634,0.68447477,-0.254872,0.0046388125,-0.0018923276,-0.013804191,-0.013651415,-0.0020145755,-0.0010988325,0.0014978752,1.7813085,-1.3444052,-2.1356509,-3.0935447,0.0,0.10107748,0.013804191,0.005265002,0.0036278486,0.026085187,0.017432777,inf,inf,inf,inf,1,1,1,1,2,1,2,3,0,0,0
146080904,0,0.0,0.0,0.2890123,0.618036,-0.03783713,0.26472634,0.68447477,-0.254872,-0.005519898,0.003273835,0.006840156,0.0070856363,-0.0020145755,-0.0010988325,0.0014978752,-1.1839137,2.8587666,2.9348,-3.0933015,0.0,0.10149166,-0.006840156,0.0053368337,0.0036747756,0.026260437,0.017543882,inf,inf,inf,inf,1,1,1,1,2,1,2,3,0,0,0
146184919,0,0.0,0.0,0.28887352,0.6180399,-0.038169857,0.26472634,0.68447477,-0.254872,0.003607593,-0.0006527901,-0.0148547,-0.014512958,-0.0020145755,-0.0010988325,0.0014978752,-0.44521224,-0.22956075,-0.06494414,-3.0933213,0.0,0.10182439,0.0148547,0.005419791,0.0037286943,0.026480585,0.017680274,inf,inf,inf,inf,1,1,1,1,2,1,2,3,0,0,0
146288911,0,0.0,0.0,0.28893605,0.6181906,-0.03845075,0.26472634,0.68447477,-0.254872,0.0045965253,9.475293e-06,-0.012011588,-0.011564726,-0.0020145755,-0.0010988325,0.0014978752,0.18288402,-1.2542537,-2.7414382,-3.093572,0.0,0.102105275,0.012011588,0.005090699,0.00351407,0.025601193,0.01714168,inf,inf,inf,inf,1,1,1,1,2,1,2,3,0,0,0
146392909,0,0.0,0.0,0.288973,0.6182497,-0.03860482,0.26472634,0.68447477,-0.254872,0.0014855326,0.0023031244,-0.0031845798,-0.00259334,-0.0020145755,-0.0010988325,0.0014978752,1.7303401,1.2852242,-2.4893854,-3.0933142,0.0,0.102259345,0.0031845798,0.005172516,0.0035671727,0.025861626,0.017292855,inf,inf,inf,inf,1,1,1,1,2,1,2,3,0,0,0
146496870,0,0.0,0.0,0.28909922,0.6182585,-0.038722686,0.26472634,0.68447477,-0.254872,-0.0040192506,0.0026360797,1.2378132e-05,0.0007655285,-0.0020145755,-0.0010988325,0.0014978752,-0.45477298,0.19377284,-1.4084988,-3.0933986,0.0,0.10237721,-1.2378132e-05,0.0052280384,0.0036039387,0.025957903,0.017361518,inf,inf,inf,inf,1,1,1,1,2,1,2,3,0,0,0
146592879,0,0.0,0.0,0.289294,0.6183766,-0.03882868,0.26472634,0.68447477,-0.254872,-0.003456386,0.002319637,-0.0032663492,-0.0023653875,-0.0020145755,-0.0010988325,0.0014978752,-0.63954234,2.2140813,1.4728999,-3.0934958,0.0,0.102483205,0.0032663492,0.0051685316,0.0035645294,0.025835901,0.017287025,inf,inf,inf,inf,1,1,1,1,2,1,2,3,0,0,0
146696870,0,0.0,0.0,0.28948545,0.61829156,-0.03882562,0.26472634,0.68447477,-0.254872,-0.0014202084,0.003301353,0.0034420348,0.0044762534,-0.0020145755,-0.0010988325,0.0014978752,-0.34662825,1.8502562,1.5362709,-3.0935466,0.0,0.10248014,-0.0034420348,0.00525977,0.0036239165,0.026092686,0.01743986,inf,inf,inf,inf,1,1,1,1,2,1,2,3,0,0,0
146800070,0,0.0,0.0,0.28942227,0.61764103,-0.038735818,0.26472634,0.68447477,-0.254872,0.005098204,-0.00965501,0.0017874592,0.002931969,-0.0020145755,-0.0010988325,0.0014978752,0.7001214,0.19549006,0.9977069,-3.093873,0.0,0.10239035,-0.0017874592,0.005335403,0.0036736378,0.026261838,0.017544545,inf,inf,inf,inf,1,1,1,1,2,1,2,3,0,0,0
146903296,0,0.0,0.0,0.28954333,0.616351,-0.038520474,0.26472634,0.68447477,-0.254872,-0.00040347732,-0.018546408,-0.0030050986,-0.0017865864,-0.0020145755,-0.0010988325,0.0014978752,-0.9412737,-1.5809748,-1.4741044,-3.0941834,0.0,0.102175,0.0030050986,0.0053978693,0.003715042,0.026376354,0.017619127,inf,inf,inf,inf,1,1,1,1,2,1,2,3,0,0,0
147000070,0,0.0,0.0,0.29010153,0.6147318,-0.038256142,0.26472634,0.68447477,-0.254872,0.00884271,-0.02150733,-0.0025636244,-0.0013073467,-0.0020145755,-0.0010988325,0.0014978752,0.55155987,-1.8567917,-2.240707,-3.0944068,0.0,0.101910666,0.0025636244,0.0053141387,0.0036599282,0.026190748,0.01749778,inf,inf,inf,inf,1,1,1,1,2,1,2,3,0,0,0
147104091,0,0.0,0.0,0.29057533,0.61313903,-0.037946146,0.26472634,0.68447477,-0.254872,0.00051029475,-0.026506407,0.0010655165,0.0023515208,-0.0020145755,-0.0010988325,0.0014978752,-0.4966383,-0.8712771,1.3627375,-3.0944078,0.0,0.10160068,-0.0010655165,0.00537446,0.0036995823,0.026308268,0.017578578,inf,inf,inf,inf,1,1,1,1,2,1,2,3,0,0,0
147208076,0,0.0,0.0,0.29074544,0.6119774,-0.037708074,0.26472634,0.68447477,-0.254872,0.0023169143,-0.016895488,0.0013129784,0.0025341697,-0.0020145755,-0.0010988325,0.0014978752,0.23767075,-2.4536414,-2.3603337,-3.0946152,0.0,0.1013626,-0.0013129784,0.005457814,0.003754143,0.026564024,0.017727967,inf,inf,inf,inf,1,1,1,1,2,1,2,3,0,0,0
147304070,0,0.0,0.0,0.2905399,0.6116842,-0.037551936,0.26472634,0.68447477,-0.254872,0.00346238,-0.020980781,-0.007385071,-0.006308562,-0.0020145755,-0.0010988325,0.0014978752,0.8041685,-1.2940704,-1.030136,-3.094189,0.0,0.10120647,0.007385071,0.0053743017,0.0036994405,0.026385479,0.017618233,inf,inf,inf,inf,1,1,1,1,2,1,2,3,0,0,0
147408069,0,0.0,0.0,0.2902717,0.61177486,-0.037359394,0.26472634,0.68447477,-0.254872,-0.0004966266,-0.013468544,-0.006069408,-0.005207575,-0.0020145755,-0.0010988325,0.0014978752,1.4947579,-3.7804317,-3.3946116,-3.0948458,0.0,0.10101392,0.006069408,0.0050904383,0.0035133755,0.025640544,0.017177407,inf,inf,inf,inf,1,1,1,1,2,1,2,3,0,0,0
147512096,0,0.0,0.0,0.28998944,0.6128253,-0.037442595,0.26472634,0.68447477,-0.254872,-0.00096862024,-0.008970791,-0.0041034734,-0.0034732409,-0.0020145755,-0.0010988325,0.0014978752,-0.4181184,-3.9939165,-2.4443939,-3.094869,0.0,0.10109712,0.0041034734,0.005177085,0.0035701215,0.025861291,0.017309226,inf,inf,inf,inf,1,1,1,1,2,1,2,3,0,0,0
147608117,0,0.0,0.0,0.28959876,0.6137522,-0.037555397,0.26472634,0.68447477,-0.254872,-0.0005859078,-0.0072382316,0.013675624,0.014071348,-0.0020145755,-0.0010988325,0.0014978752,-1.2181456,1.2975799,4.300308,-3.0953617,0.0,0.10120992,-0.013675624,0.005472696,0.0037635865,0.026604883,0.017756747,inf,inf,inf,inf,1,1,1,1,2,1,2,3,0,0,0
147712071,0,0.0,0.0,0.2890263,0.61487585,-0.037600014,0.26472634,0.68447477,-0.254872,-0.00726402,0.0047119157,0.017315153,0.017455673,-0.0020145755,-0.0010988325,0.0014978752,-0.7969448,1.6833521,4.221557,-3.0951526,0.0,0.10125454,-0.017315153,0.0051740143,0.0035679976,0.025869118,0.017310588,inf,inf,inf,inf,1,1,1,1,2,1,2,3,0,0,0
147816076,0,0.0,0.0,0.28860846,0.6159795,-0.037850782,0.26472634,0.68447477,-0.254872,-0.0006749631,0.002272718,0.005077586,0.005032035,-0.0020145755,-0.0010988325,0.0014978752,-0.21295685,0.4026138,0.27132365,-3.0956664,0.0,0.10150531,-0.005077586,0.00523058,0.0036057183,0.02596388,0.017368441,inf,inf,inf,inf,1,1,1,1,2,1,2,3,0,0,0
147912092,0,0.0,0.0,0.28839105,0.61692387,-0.03825193,0.26472634,0.68447477,-0.254872,-0.009198149,-0.0059069158,0.008692332,0.008479492,-0.0020145755,-0.0010988325,0.0014978752,-2.416567,1.295116,4.6047416,-3.095193,0.0,0.101906456,-0.008692332,0.005170264,0.0035658767,0.02582468,0.01728885,inf,inf,inf,inf,1,1,1,1,2,1,2,3,0,0,0
148016111,0,0.0,0.0,0.28767738,0.6178589,-0.038260154,0.26472634,0.68447477,-0.254872,-0.0061564436,0.010139686,0.00606291,0.00560988,-0.0020145755,-0.0010988325,0.0014978752,2.054539,4.2401776,0.563811,-3.0949442,0.0,0.10191468,-0.00606291,0.00524025,0.0036118482,0.0259794,0.017380958,inf,inf,inf,inf,1,1,1,1,2,1,2,3,0,0,0
148120100,0,0.0,0.0,0.28749868,0.61844724,-0.038661208,0.26472634,0.68447477,-0.254872,-0.005995625,-0.0007811494,0.0049408306,0.004347375,-0.0020145755,-0.0010988325,0.0014978752,-0.3594775,-2.7669818,0.17388242,-3.094702,0.0,0.10231574,-0.0049408306,0.005290268,0.0036450846,0.026103111,0.017454743,inf,inf,inf,inf,1,1,1,1,2,1,2,3,0,0,0
148224070,0,0.0,0.0,0.28676552,0.6189834,-0.03879726,0.26472634,0.68447477,-0.254872,-0.0021096107,-0.0036384605,-0.01215926,-0.012885062,-0.0020145755,-0.0010988325,0.0014978752,0.87297827,0.35567537,-2.7382894,-3.0950315,0.0,0.10245179,0.01215926,0.0053746155,0.00369979,0.026355201,0.017600477,inf,inf,inf,inf,1,1,1,1,2,1,2,3,0,0,0
148320070,0,0.0,0.0,0.28626072,0.6194696,-0.039178904,0.26472634,0.68447477,-0.254872,-0.0027026513,-0.0012489874,-0.0026467936,-0.0034424835,-0.0020145755,-0.0010988325,0.0014978752,2.794301,-1.3581357,-2.1374187,-3.0948496,0.0,0.102833435,0.0026467936,0.0052829324,0.0036400557,0.026096748,0.017452998,inf,inf,inf,inf,1,1,1,1,2,1,2,3,0,0,0
148424076,0,0.0,0.0,0.28608653,0.6196708,-0.04011074,0.26472634,0.68447477,-0.254872,-0.008681042,-0.00047448408,-0.01788294,-0.018738104,-0.0020145755,-0.0010988325,0.0014978752,-5.0034623,0.050217453,-1.8443565,-3.0950716,0.0,0.103765264,0.01788294,0.005394032,0.0037115582,0.026466258,0.017660443,inf,inf,inf,inf,1,1,1,1,2,1,2,3,0,0,0
148528073,0,0.0,0.0,0.2866695,0.6204432,-0.04158249,0.26472634,0.68447477,-0.254872,0.009626865,0.0042582974,0.0025507766,0.0015852738,-0.0020145755,-0.0010988325,0.0014978752,1.0501344,-1.3,1.0002649,-3.097443,0.0,0.10523702,-0.0025507766,0.005463037,0.0037572088,0.026582178,0.017735243,inf,inf,inf,inf,1,1,1,1,2,1,2,3,0,0,0
148624104,0,0.0,0.0,0.28687474,0.6206735,-0.04246125,0.26472634,0.68447477,-0.254872,-0.019729247,-0.0026341577,0.0041759284,0.0030203494,-0.0020145755,-0.0010988325,0.0014978752,-2.0076423,2.679656,3.015541,-3.0987415,0.0,0.10611577,-0.0041759284,0.005373467,0.0036986787,0.026356233,0.017589744,inf,inf,inf,inf,1,1,1,1,2,1,2,3,0,0,0
148728078,0,0.0,0.0,0.28680155,0.6203232,-0.043207433,0.26472634,0.68447477,-0.254872,-0.008205517,-0.011976231,-0.015378101,-0.016508231,-0.0020145755,-0.0010988325,0.0014978752,0.1719699,-2.0257843,-1.2618599,-3.0989647,0.0,0.106861964,0.015378101,0.005470153,0.003761037,0.026612729,0.017760683,inf,inf,inf,inf,1,1,1,1,2,1,2,3,0,0,0
148832073,0,0.0,0.0,0.2870215,0.6204055,-0.043939307,0.26472634,0.68447477,-0.254872,-0.031724095,0.012736203,0.0021800702,0.0013043227,-0.0020145755,-0.0010988325,0.0014978752,-2.9962702,2.5582676,3.0072439,-3.0987442,0.0,0.107593834,-0.0021800702,0.0051672542,0.0035638453,0.025816325,0.017276866,inf,inf,inf,inf,1,1,1,1,2,1,2,3,0,0,0
148936078,0,0.0,0.0,0.28628314,0.62109643,-0.043855444,0.26472634,0.68447477,-0.254872,0.009890934,0.016818501,0.0013915398,0.0007042961,-0.0020145755,-0.0010988325,0.0014978752,6.05745,0.9934412,-0.5950041,-3.1005123,0.0,0.10750997,-0.0013915398,0.005238354,0.0036107244,0.025982145,0.0173778,inf,inf,inf,inf,1,1,1,1,2,1,2,3,0,0,0
149032076,0,0.0,0.0,0.28579023,0.6210895,-0.044416923,0.26472634,0.68447477,-0.254872,-0.006342022,-0.0033705444,-0.011294478,-0.011819262,-0.0020145755,-0.0010988325,0.0014978752,1.4268967,-0.28631848,1.7188803,-3.0998912,0.0,0.10807145,0.011294478,0.0051406235,0.0035472836,0.025690515,0.01721221,inf,inf,inf,inf,1,1,1,1,2,1,2,3,0,0,0
149135304,0,0.0,0.0,0.2842485,0.62113845,-0.044490453,0.26472634,0.68447477,-0.254872,-0.019350903,0.00065252633,0.014067546,0.013599804,-0.0020145755,-0.0010988325,0.0014978752,5.1016674,-0.39246476,1.0712813,-3.1009154,0.0,0.10814498,-0.014067546,0.0052100453,0.0035926383,0.025926072,0.017341033,inf,inf,inf,inf,1,1,1,1,2,1,2,3,0,0,0
149239298,0,0.0,0.0,0.28217524,0.6205562,-0.043886866,0.26472634,0.68447477,-0.254872,-0.022255529,-0.017685704,-0.007692462,-0.008135943,-0.0020145755,-0.0010988325,0.0014978752,-1.6367596,-1.5188311,-1.7013385,-3.1000972,0.0,0.1075414,0.007692462,0.005286097,0.0036415986,0.026143659,0.017475624,inf,inf,inf,inf,1,1,1,1,2,1,2,3,0,0,0
149343303,0,0.0,0.0,0.28109887,0.6191228,-0.04374219,0.26472634,0.68447477,-0.254872,-0.021787379,-0.007973282,0.0142142605,0.014025437,-0.0020145755,-0.0010988325,0.0014978752,3.6051493,0.9847009,3.1060827,-3.0995147,0.0,0.10739672,-0.0142142605,0.0053804545,0.0037032675,0.0264089,0.017645527,inf,inf,inf,inf,1,1,1,1,2,1,2,3,0,0,0
149438519,0,0.0,0.0,0.2799708,0.6181789,-0.043016586,0.26472634,0.68447477,-0.254872,-0.008891573,-0.005267128,0.0023645035,0.002347898,-0.0020145755,-0.0010988325,0.0014978752,0.5364101,1.5589541,2.030167,-3.099109,0.0,0.10667111,-0.0023645035,0.005308454,0.0036565305,0.02621717,0.01752489,inf,inf,inf,inf,1,1,1,1,2,1,2,3,0,0,0
149543300,0,0.0,0.0,0.280346,0.61773443,-0.04368138,0.26472634,0.68447477,-0.254872,-0.023568178,0.01056171,-0.0045884238,-0.004464718,-0.0020145755,-0.0010988325,0.0014978752,-6.4249477,2.639026,-1.0867032,-3.0992868,0.0,0.10733591,0.0045884238,0.0053873286,0.0037085144,0.026374653,0.017628772,inf,inf,inf,inf,1,1,1,1,2,1,2,3,0,0,0
149647294,0,0.0,0.0,0.2810138,0.6175337,-0.043670714,0.26472634,0.68447477,-0.254872,-0.00847035,-0.017002964,-0.010414425,-0.010398144,-0.0020145755,-0.0010988325,0.0014978752,-3.541615,-2.3036737,-3.1506636,-3.101493,0.0,0.10732524,0.010414425,0.0054592756,0.0037555443,0.026575197,0.017735599,inf,inf,inf,inf,1,1,1,1,2,1,2,3,0,0,0
149743300,0,0.0,0.0,0.28241977,0.61721796,-0.043828227,0.26472634,0.68447477,-0.254872,0.01060816,-0.017451534,-0.016453665,-0.016571231,-0.0020145755,-0.0010988325,0.0014978752,2.7070868,-3.6438718,-4.830611,-3.0989416,0.0,0.10748275,0.016453665,0.0053540263,0.0036869647,0.026271524,0.017560424,inf,inf,inf,inf,1,1,1,1,2,1,2,3,0,0,0
149847284,0,0.0,0.0,0.28449607,0.6177524,-0.044382047,0.26472634,0.68447477,-0.254872,-0.0064524706,-0.0030492041,-0.008910903,-0.009112076,-0.0020145755,-0.0010988325,0.0014978752,-5.087233,-2.9476388,0.29689294,-3.0993645,0.0,0.10803658,0.008910903,0.0054438,0.0037446145,0.026573885,0.017729184,inf,inf,inf,inf,1,1,1,1,2,1,2,3,0,0,0
149951286,0,0.0,0.0,0.28614825,0.6185878,-0.044635523,0.26472634,0.68447477,-0.254872,0.005041736,-0.009911671,0.0058641485,0.005618505,-0.0020145755,-0.0010988325,0.0014978752,0.22389162,0.8057577,0.7961274,-3.100134,0.0,0.10829005,-0.0058641485,0.0051613953,0.0035595975,0.02583925,0.017291538,inf,inf,inf,inf,1,1,1,1,2,1,2,3,0,0,0
150047270,0,0.0,0.0,0.28791693,0.6185008,-0.044734262,0.26472634,0.68447477,-0.254872,0.012238798,-0.0053189495,0.01130042,0.0111147985,-0.0020145755,-0.0010988325,0.0014978752,2.5867267,0.6689701,3.5085583,-3.1013927,0.0,0.10838879,-0.01130042,0.0054800734,0.0037676722,0.026655998,0.01778187,inf,inf,inf,inf,1,1,1,1,2,1,2,3,0,0,0
150151274,0,0.0,0.0,0.28876573,0.61862844,-0.043921,0.26472634,0.68447477,-0.254872,0.011030145,0.014018193,0.010130244,0.010161549,-0.0020145755,-0.0010988325,0.0014978752,1.3426988,2.1546092,-0.8638918,-3.1011732,0.0,0.10757553,-0.010130244,0.005174054,0.0035683257,0.025836071,0.017290644,inf,inf,inf,inf,1,1,1,1,2,1,2,3,0,0,0
150255276,0,0.0,0.0,0.29015997,0.61905307,-0.043817922,0.26472634,0.68447477,-0.254872,0.011356963,-0.0051982612,-0.00067110936,-0.0003220521,-0.0020145755,-0.0010988325,0.0014978752,-0.5691596,-4.307972,-1.8803804,-3.1020226,0.0,0.10747245,0.00067110936,0.0052245413,0.0036023722,0.025907679,0.017342223,inf,inf,inf,inf,1,1,1,1,2,1,2,3,0,0,0
150359270,0,0.0,0.0,0.290928,0.6196445,-0.043231353,0.26472634,0.68447477,-0.254872,0.001173942,0.0047095395,-0.011261456,-0.010794303,-0.0020145755,-0.0010988325,0.0014978752,-4.0035887,1.8339696,-3.239909,-3.1015515,0.0,0.10688588,0.011261456,0.0052806665,0.0036390463,0.026102716,0.017442193,inf,inf,inf,inf,1,1,1,1,2,1,2,3,0,0,0
150455278,0,0.0,0.0,0.2918729,0.6200503,-0.042888254,0.26472634,0.68447477,-0.254872,0.019780198,0.01329809,0.002021639,0.0024427339,-0.0020145755,-0.0010988325,0.0014978752,1.6459155,1.9294742,-2.748212,-3.1013587,0.0,0.10654278,-0.002021639,0.0052238395,0.003600873,0.025986714,0.01738299,inf,inf,inf,inf,1,1,1,1,2,1,2,3,0,0,0
150559301,0,0.0,0.0,0.29219088,0.6205973,-0.042454004,0.26472634,0.68447477,-0.254872,0.0037878256,-0.0050311154,0.0062670256,0.0065718032,-0.0020145755,-0.0010988325,0.0014978752,0.13484712,-5.7132196,-1.0143411,-3.1009831,0.0,0.10610853,-0.0062670256,0.005299701,0.0036506015,0.0261709,0.017489983,inf,inf,inf,inf,1,1,1,1,2,1,2,3,0,0,0
150663298,0,0.0,0.0,0.29227284,0.62148005,-0.042268135,0.26472634,0.68447477,-0.254872,0.0077906866,0.014562754,-0.013375112,-0.013202114,-0.0020145755,-0.0010988325,0.0014978752,-0.6860222,1.0518007,-1.120468,-3.0997903,0.0,0.10592266,0.013375112,0.005385922,0.003706685,0.026415965,0.017632153,inf,inf,inf,inf,1,1,1,1,2,1,2,3,0,0,0
150759270,0,0.0,0.0,0.29348925,0.623385,-0.043264724,0.26472634,0.68447477,-0.254872,0.009426953,0.025014976,-0.010466728,-0.010465426,-0.0020145755,-0.0010988325,0.0014978752,-1.337277,-0.5883783,-0.5001764,-3.099231,0.0,0.10691925,0.010466728,0.005288906,0.0036439528,0.026107468,0.017459191,inf,inf,inf,inf,1,1,1,1,2,1,2,3,0,0,0
150863279,0,0.0,0.0,0.29417512,0.62644255,-0.04439541,0.26472634,0.68447477,-0.254872,0.016966607,0.02404765,-0.004859087,-0.0053266147,-0.0020145755,-0.0010988325,0.0014978752,1.3987148,-4.4060125,-2.1410341,-3.0997927,0.0,0.10804994,0.004859087,0.00534515,0.0036805565,0.02627707,0.01754392,inf,inf,inf,inf,1,1,1,1,2,1,2,3,0,0,0
150967277,0,0.0,0.0,0.29456198,0.6297572,-0.044621218,0.26472634,0.68447477,-0.254872,-0.0037714557,0.027909663,-0.0025988515,-0.0035814622,-0.0020145755,-0.0010988325,0.0014978752,-2.4413116,0.7042469,0.84200686,-3.0990193,0.0,0.10827574,0.0025988515,0.0050783316,0.003504667,0.025632255,0.017158095,inf,inf,inf,inf,1,1,1,1,2,1,2,3,0,0,0
151063306,0,0.0,0.0,0.29458353,0.63207465,-0.044816494,0.26472634,0.68447477,-0.254872,0.0039036085,0.018603515,-0.0070611644,-0.008166715,-0.0020145755,-0.0010988325,0.0014978752,-5.926768,-2.4906967,-2.7038953,-3.098287,0.0,0.10847102,0.0070611644,0.0053821676,0.003703529,0.026397144,0.01763541,inf,inf,inf,inf,1,1,1,1,2,1,2,3,0,0,0
151167276,0,0.0,0.0,0.29366228,0.63345057,-0.044818714,0.26472634,0.68447477,-0.254872,0.00059471384,0.00854039,0.006730213,0.0057290234,-0.0020145755,-0.0010988325,0.0014978752,-0.36566165,-4.934588,1.442916,-3.0969536,0.0,0.10847324,-0.006730213,0.0051066712,0.0035238536,0.025681982,0.017196633,inf,inf,inf,inf,1,1,1,1,2,1,2,3,0,0,0
151271269,0,0.0,0.0,0.29292953,0.63537896,-0.044714674,0.26472634,0.68447477,-0.254872,0.002890457,0.03532622,0.00083518866,-4.551424e-05,-0.0020145755,-0.0010988325,0.0014978752,-0.9815164,4.0867467,1.3424859,-3.0917335,0.0,0.1083692,-0.00083518866,0.005155592,0.0035567535,0.025759542,0.017251806,inf,inf,inf,inf,1,1,1,1,2,1,2,3,0,0,0
151373696,0,0.0,0.0,0.29239047,0.6373032,-0.044759728,0.26472634,0.68447477,-0.254872,0.0079264585,0.031320687,0.016642528,0.01575791,-0.0020145755,-0.0010988325,0.0014978752,2.0692036,1.4910948,3.9204812,-3.0874155,0.0,0.108414255,-0.016642528,0.0052386755,0.0036108105,0.026024973,0.017406348,inf,inf,inf,inf,1,1,1,1,2,1,2,3,0,0,0
151472074,0,0.0,0.0,0.29195976,0.63955945,-0.044960767,0.26472634,0.68447477,-0.254872,-0.00037400945,0.026355635,-0.01501831,-0.016015228,-0.0020145755,-0.0010988325,0.0014978752,1.8343618,0.29316092,-0.6923924,-3.0830648,0.0,0.108615294,0.01501831,0.005176163,0.0035696668,0.025859391,0.017301267,inf,inf,inf,inf,1,1,1,1,2,1,2,3,0,0,0
151573695,0,0.0,0.0,0.29125255,0.6411073,-0.04621449,0.26472634,0.68447477,-0.254872,0.0049231467,0.038549136,-5.0440198e-05,-0.0011713387,-0.0020145755,-0.0010988325,0.0014978752,1.1353929,-4.2203712,-1.7924938,-3.0756326,0.0,0.10986902,5.0440198e-05,0.0052509895,0.0036197416,0.026099885,0.01746875,inf,inf,inf,inf,1,1,1,1,2,1,2,3,0,0,0
151678508,0,0.0,0.0,0.29098356,0.64542896,-0.04587713,0.26472634,0.68447477,-0.254872,-0.0030976858,0.07320944,0.01388704,0.012544488,-0.0020145755,-0.0010988325,0.0014978752,-1.4133034,2.7877033,-0.549035,-3.0628786,0.0,0.109531656,-0.01388704,0.0052883727,0.00364372,0.026153626,0.017481428,inf,inf,inf,inf,1,1,1,1,2,1,2,3,0,0,0
151782479,0,0.0,0.0,0.29023004,0.6505878,-0.04686214,0.26472634,0.68447477,-0.254872,-0.001598808,0.055298198,-0.017306909,-0.018487906,-0.0020145755,-0.0010988325,0.0014978752,1.503074,1.8804213,3.8362937,-3.0487392,0.0,0.11051667,0.017306909,0.005374682,0.003699361,0.026394261,0.01763089,inf,inf,inf,inf,1,1,1,1,2,1,2,3,0,0,0
151878469,0,0.0,0.0,0.28973958,0.65651095,-0.04766206,0.26472634,0.68447477,-0.254872,-0.006070293,0.068147436,0.0014132097,0.0003962541,-0.0020145755,-0.0010988325,0.0014978752,-3.546655,-3.1084545,0.20808119,-3.0376244,0.0,0.11131659,-0.0014132097,0.005288462,0.0036438385,0.02613812,0.017479245,inf,inf,inf,inf,1,1,1,1,2,1,2,3,0,0,0
151982505,0,0.0,0.0,0.28952166,0.6653906,-0.047393426,0.26472634,0.68447477,-0.254872,-0.01197862,0.0891079,-0.0028173754,-0.0038925558,-0.0020145755,-0.0010988325,0.0014978752,-1.5016329,0.91106844,-0.5460042,-3.0273485,0.0,0.11104795,0.0028173754,0.0053614257,0.003690926,0.026344068,0.01758225,inf,inf,inf,inf,1,1,1,1,2,1,2,3,0,0,0
152086470,0,0.0,0.0,0.28935203,0.67407715,-0.0481718,0.26472634,0.68447477,-0.254872,-0.0033016352,0.099975176,0.006020534,0.0051355776,-0.0020145755,-0.0010988325,0.0014978752,1.2772181,3.6739826,0.8494313,-3.0237882,0.0,0.11182633,-0.006020534,0.005428982,0.0037351225,0.026487844,0.01768699,inf,inf,inf,inf,1,1,1,1,2,1,2,3,0,0,0
152182519,0,0.0,0.0,0.28989753,0.6826085,-0.04750652,0.26472634,0.68447477,-0.254872,0.0008755055,0.10236012,0.015501168,0.014709727,-0.0020145755,-0.0010988325,0.0014978752,-3.1864738,-1.8997887,0.56133044,-3.0231225,0.0,0.111161046,-0.015501168,0.005340925,0.0036775891,0.026284778,0.017547417,inf,inf,inf,inf,1,1,1,1,2,1,2,3,0,0,0
152286470,0,0.0,0.0,0.29010683,0.69201225,-0.046837967,0.26472634,0.68447477,-0.254872,-0.0038962723,0.10502843,-0.005306816,-0.0058938107,-0.0020145755,-0.0010988325,0.0014978752,1.2023678,2.3012993,-0.5277726,-3.023925,0.0,0.1104925,0.005306816,0.0050622956,0.0034944755,0.02557436,0.017125051,inf,inf,inf,inf,1,1,1,1,2,1,2,3,0,0,0
152390510,0,0.0,0.0,0.2898634,0.70000607,-0.047468886,0.26472634,0.68447477,-0.254872,-0.0040231496,0.08917486,0.0029686093,0.0026293357,-0.0020145755,-0.0010988325,0.0014978752,-0.3083778,-3.5720925,-0.9632702,-3.033276,0.0,0.11112341,-0.0029686093,0.0051142545,0.0035294003,0.025655577,0.017180419,inf,inf,inf,inf,1,1,1,1,2,1,2,3,0,0,0
152494471,0,0.0,0.0,0.2885102,0.7092078,-0.045931097,0.26472634,0.68447477,-0.254872,-0.026779963,0.10239641,0.013694863,0.013162257,-0.0020145755,-0.0010988325,0.0014978752,-3.631027,-0.23356408,1.8857145,-3.0466964,0.0,0.10958563,-0.013694863,0.005185264,0.0035752403,0.025879422,0.017301153,inf,inf,inf,inf,1,1,1,1,2,1,2,3,0,0,0
152598470,0,0.0,0.0,0.2859817,0.7157806,-0.04578994,0.26472634,0.68447477,-0.254872,-0.024303842,0.07042813,0.006107456,0.0055315113,-0.0020145755,-0.0010988325,0.0014978752,-2.406961,1.2458844,-0.5467942,-3.0589569,0.0,0.10944447,-0.006107456,0.005266458,0.003627985,0.026088422,0.017441401,inf,inf,inf,inf,1,1,1,1,2,1,2,3,0,0,0
152694476,0,0.0,0.0,0.2832898,0.7201626,-0.04417293,0.26472634,0.68447477,-0.254872,-0.023413086,0.06771486,0.0203599,0.019798463,-0.0020145755,-0.0010988325,0.0014978752,0.58629066,1.9007392,-0.6801226,-3.0662096,0.0,0.107827455,-0.0203599,0.0051688966,0.0035654053,0.025802627,0.017260185,inf,inf,inf,inf,1,1,1,1,2,1,2,3,0,0,0
152798470,0,0.0,0.0,0.2811834,0.72312593,-0.04529325,0.26472634,0.68447477,-0.254872,-0.019290801,0.022035643,-0.03662955,-0.03717629,-0.0020145755,-0.0010988325,0.0014978752,-4.7002954,-0.6088856,1.9767423,-3.068812,0.0,0.108947776,0.03662955,0.0052756486,0.0036340004,0.026129669,0.01747665,inf,inf,inf,inf,1,1,1,1,2,1,2,3,0,0,0
152902469,0,0.0,0.0,0.27959752,0.7231806,-0.05021224,0.26472634,0.68447477,-0.254872,-0.033118885,0.010575018,-0.038677387,-0.039644737,-0.0020145755,-0.0010988325,0.0014978752,-3.3512027,-1.4520524,-0.2645655,-3.0667307,0.0,0.11386677,0.038677387,0.005342967,0.0036789495,0.02629465,0.017556,inf,inf,inf,inf,1,1,1,1,2,1,2,3,0,0,0
152998488,0,0.0,0.0,0.27711824,0.72380394,-0.0552325,0.26472634,0.68447477,-0.254872,-0.021882376,0.026486037,-0.039587554,-0.04191123,-0.0020145755,-0.0010988325,0.0014978752,2.3949213,1.1089548,-1.2982106,-3.0693142,0.0,0.11888702,0.039587554,0.005272131,0.0036313045,0.02616648,0.017446376,inf,inf,inf,inf,1,1,1,1,2,1,2,3,0,0,0
153102471,0,0.0,0.0,0.27401483,0.72564274,-0.060766924,0.26472634,0.68447477,-0.254872,-0.023663867,0.02645705,-0.033824004,-0.03757218,-0.0020145755,-0.0010988325,0.0014978752,0.6721286,-2.4180658,-1.762597,-3.0740016,0.0,0.12442145,0.033824004,0.005380135,0.0036998119,0.026449593,0.01763599,inf,inf,inf,inf,1,1,1,1,2,1,2,3,0,0,0
153206470,0,0.0,0.0,0.26963493,0.7294791,-0.065004565,0.26472634,0.68447477,-0.254872,-0.036100887,0.028027158,-0.016762836,-0.020993553,-0.0020145755,-0.0010988325,0.0014978752,3.422793,-1.5672911,-0.25768238,-3.0830317,0.0,0.1286591,0.016762836,0.0054439735,0.003742538,0.026541604,0.017701712,inf,inf,inf,inf,1,1,1,1,2,1,2,3,0,0,0
153302476,0,0.0,0.0,0.2646423,0.7333541,-0.06664052,0.26472634,0.68447477,-0.254872,-0.05858377,0.014264559,0.0019859772,-0.0016821297,-0.0020145755,-0.0010988325,0.0014978752,-3.550851,-1.1375967,0.7643098,-3.0935328,0.0,0.13029504,-0.0019859772,0.005347175,0.003680631,0.026252173,0.01754512,inf,inf,inf,inf,1,1,1,1,2,1,2,3,0,0,0
153406470,0,0.0,0.0,0.25715703,0.7383434,-0.06362403,0.26472634,0.68447477,-0.254872,-0.0798938,0.020454058,0.039887425,0.037832692,-0.0020145755,-0.0010988325,0.0014978752,-2.040007,-0.31030518,1.060651,-3.1027062,0.0,0.12727857,-0.039887425,0.0054567107,0.0037523448,0.0265708,0.017750937,inf,inf,inf,inf,1,1,1,1,2,1,2,3,0,0,0
153510480,0,0.0,0.0,0.24856578,0.7427504,-0.057506703,0.26472634,0.68447477,-0.254872,-0.077060215,0.015666248,0.03720729,0.037691083,-0.0020145755,-0.0010988325,0.0014978752,-0.11118777,2.2864723,-0.63029027,-3.1093557,0.0,0.12116123,-0.03720729,0.0051494776,0.0035533463,0.025721403,0.017261298,inf,inf,inf,inf,1,1,1,1,2,1,2,3,0,0,0
153606477,0,0.0,0.0,0.24127172,0.74486554,-0.05204442,0.26472634,0.68447477,-0.254872,-0.063590646,-0.0073168874,0.023010083,0.025924642,-0.0020145755,-0.0010988325,0.0014978752,-1.068451,-3.954679,2.4233656,-3.1114292,0.0,0.11569895,-0.023010083,0.005084492,0.003512025,0.025551805,0.017157702,inf,inf,inf,inf,1,1,1,1,2,1,2,3,0,0,0
153710470,0,0.0,0.0,0.23578398,0.74469364,-0.048937526,0.26472634,0.68447477,-0.254872,-0.02860167,-0.003941279,-0.009520174,-0.005158298,-0.0020145755,-0.0010988325,0.0014978752,0.3021073,2.147201,2.837274,-3.1143749,0.0,0.11259206,0.009520174,0.0051702,0.0035683026,0.025821619,0.017298402,inf,inf,inf,inf,1,1,1,1,2,1,2,3,0,0,0
153812898,0,0.0,0.0,0.23363082,0.7425912,-0.04981019,0.26472634,0.68447477,-0.254872,-0.02012305,-0.012941826,-0.018037314,-0.014196805,-0.0020145755,-0.0010988325,0.0014978752,0.5800189,2.2659383,3.9806192,-3.118995,0.0,0.11346471,0.018037314,0.005212653,0.0035958185,0.025933573,0.017335933,inf,inf,inf,inf,1,1,1,1,2,1,2,3,0,0,0
153917671,0,0.0,0.0,0.23329288,0.73889124,-0.052508097,0.26472634,0.68447477,-0.254872,-0.0064440444,-0.0076115597,-0.0111428015,-0.009465414,-0.0020145755,-0.0010988325,0.0014978752,2.0451326,4.053666,1.2018402,-3.129544,0.0,0.11616263,0.0111428015,0.005278409,0.0036363634,0.02617143,0.017457299,inf,inf,inf,inf,1,1,1,1,2,1,2,3,0,0,0
154013711,0,0.0,0.0,0.23401465,0.73474777,-0.055170957,0.26472634,0.68447477,-0.254872,-0.014268697,-0.024206325,-0.0040097185,-0.004409864,-0.0020145755,-0.0010988325,0.0014978752,0.77452546,-0.18471089,-0.77718276,-3.1381538,0.0,0.11882548,0.0040097185,0.0051871166,0.003575249,0.025916219,0.01730744,inf,inf,inf,inf,1,1,1,1,2,1,2,3,0,0,0
154117678,0,0.0,0.0,0.23290445,0.7300476,-0.056351807,0.26472634,0.68447477,-0.254872,-0.041076805,-0.023831272,0.0031553793,0.001621394,-0.0020145755,-0.0010988325,0.0014978752,-2.6736734,-0.2048886,0.35489646,-3.1409426,0.0,0.12000634,-0.0031553793,0.0053025996,0.0036497028,0.026244964,0.017527588,inf,inf,inf,inf,1,1,1,1,2,1,2,3,0,0,0
154221692,0,0.0,0.0,0.22973248,0.72658664,-0.057656884,0.26472634,0.68447477,-0.254872,-0.0315763,0.00034463007,-0.010161439,-0.011443706,-0.0020145755,-0.0010988325,0.0014978752,2.5666559,2.90927,0.9502567,3.140872,0.0,0.12131141,0.010161439,0.0053741653,0.003698229,0.02634146,0.017609375,inf,inf,inf,inf,1,1,1,1,2,1,2,3,0,0,0
154317696,0,0.0,0.0,0.22560409,0.7246411,-0.059501443,0.26472634,0.68447477,-0.254872,-0.038937155,0.0017917736,-0.024938524,-0.02547656,-0.0020145755,-0.0010988325,0.0014978752,0.40171766,0.47431386,-2.092945,3.1407664,0.0,0.12315597,0.024938524,0.005283607,0.0036405618,0.026111545,0.017458325,inf,inf,inf,inf,1,1,1,1,2,1,2,3,0,0,0
154421670,0,0.0,0.0,0.21895999,0.72395736,-0.060909476,0.26472634,0.68447477,-0.254872,-0.06257915,-0.002280712,-0.024241326,-0.024316687,-0.0020145755,-0.0010988325,0.0014978752,-3.1423655,-4.386235,-2.4085536,-3.140485,0.0,0.12456401,0.024241326,0.0053431494,0.0036795952,0.026281837,0.017550353,inf,inf,inf,inf,1,1,1,1,2,1,2,3,0,0,0
154525692,0,0.0,0.0,0.21065505,0.72531295,-0.0638206,0.26472634,0.68447477,-0.254872,-0.07247138,0.031544175,-0.040871635,-0.04074728,-0.0020145755,-0.0010988325,0.0014978752,-0.8599178,2.5353131,2.4479938,-3.1367779,0.0,0.12747513,0.040871635,0.0054235044,0.0037310945,0.026503656,0.01768959,inf,inf,inf,inf,1,1,1,1,2,1,2,3,0,0,0
154621677,0,0.0,0.0,0.20192455,0.7289445,-0.06960453,0.26472634,0.68447477,-0.254872,-0.08966502,0.038404807,-0.073190086,-0.07311365,-0.0020145755,-0.0010988325,0.0014978752,-4.961382,0.12835795,0.93043154,-3.1337206,0.0,0.13325906,0.073190086,0.0053397827,0.0036765342,0.026298808,0.01755384,inf,inf,inf,inf,1,1,1,1,2,1,2,3,0,0,0
154725670,0,0.0,0.0,0.19194163,0.7358038,-0.078495756,0.26472634,0.68447477,-0.254872,-0.07237952,0.07355583,-0.07552843,-0.07622306,-0.0020145755,-0.0010988325,0.0014978752,2.168675,-1.190789,0.5889366,-3.1316485,0.0,0.14215028,0.07552843,0.0054581477,0.003751907,0.02666128,0.017762315,inf,inf,inf,inf,1,1,1,1,2,1,2,3,0,0,0
154829670,0,0.0,0.0,0.1818093,0.74593484,-0.08836998,0.26472634,0.68447477,-0.254872,-0.084515624,0.08915733,-0.084854014,-0.08672424,-0.0020145755,-0.0010988325,0.0014978752,-6.7542753,-0.103037745,-0.013108428,-3.127256,0.0,0.15202451,0.084854014,0.005152985,0.0035524995,0.02583346,0.017252658,inf,inf,inf,inf,1,1,1,1,2,1,2,3,0,0,0
154933709,0,0.0,0.0,0.1723609,0.75927424,-0.09753307,0.26472634,0.68447477,-0.254872,-0.06407273,0.12030194,-0.071979254,-0.07459708,-0.0020145755,-0.0010988325,0.0014978752,1.8574553,1.9565508,0.88687193,-3.1276648,0.0,0.16118759,0.071979254,0.005204886,0.0035866762,0.025918934,0.017317029,inf,inf,inf,inf,1,1,1,1,2,1,2,3,0,0,0
155037689,0,0.0,0.0,0.16536391,0.77477384,-0.10513258,0.26472634,0.68447477,-0.254872,-0.0581593,0.10870885,-0.050058816,-0.05244197,-0.0020145755,-0.0010988325,0.0014978752,-2.0324385,-2.2632244,0.5479691,-3.1333148,0.0,0.1687871,0.050058816,0.005274668,0.0036326235,0.026093815,0.017447323,inf,inf,inf,inf,1,1,1,1,2,1,2,3,0,0,0
155133670,0,0.0,0.0,0.16199298,0.79073733,-0.10807244,0.26472634,0.68447477,-0.254872,-0.023511156,0.14594202,-0.018876739,-0.020133294,-0.0020145755,-0.0010988325,0.0014978752,3.2808108,3.424184,-0.9429863,3.1403787,0.0,0.17172697,0.018876739,0.005206289,0.0035887333,0.025919415,0.01734944,inf,inf,inf,inf,1,1,1,1,2,1,2,3,0,0,0
155237670,0,0.0,0.0,0.16064855,0.8090584,-0.106515996,0.26472634,0.68447477,-0.254872,-0.032973494,0.15028933,0.015151638,0.016200393,-0.0020145755,-0.0010988325,0.0014978752,-0.98871624,4.0173006,2.4588728,3.1322243,0.0,0.17017052,-0.015151638,0.0052751014,0.0036354489,0.026053183,0.017459655,inf,inf,inf,inf,1,1,1,1,2,1,2,3,0,0,0
155341696,0,0.0,0.0,0.16083229,0.8282564,-0.100885704,0.26472634,0.68447477,-0.254872,-0.029732771,0.14860724,0.033345383,0.037476886,-0.0020145755,-0.0010988325,0.0014978752,-6.413281,-3.0210056,1.369266,3.1262908,0.0,0.16454023,-0.033345383,0.00535428,0.0036891191,0.026248347,0.017591238,inf,inf,inf,inf,1,1,1,1,2,1,2,3,0,0,0
155437719,0,0.0,0.0,0.16133524,0.845888,-0.09267406,0.26472634,0.68447477,-0.254872,-0.018835189,0.16292048,0.051420555,0.05829884,-0.0020145755,-0.0010988325,0.0014978752,-0.65616703,0.14955002,-0.2517962,3.1238503,0.0,0.15632859,-0.051420555,0.0052584293,0.0036279804,0.025986714,0.017437179,inf,inf,inf,inf,1,1,1,1,2,1,2,3,0,0,0
155541705,0,0.0,0.0,0.16180296,0.8628232,-0.082874835,0.26472634,0.68447477,-0.254872,-0.020604493,0.13698307,0.054581422,0.06365245,-0.0020145755,-0.0010988325,0.0014978752,-0.36297423,3.2700558,-1.6723086,3.119519,0.0,0.14652936,-0.054581422,0.00534526,0.0036850986,0.026239034,0.017585458,inf,inf,inf,inf,1,1,1,1,2,1,2,3,0,0,0
155645670,0,0.0,0.0,0.16206485,0.8762524,-0.07450735,0.26472634,0.68447477,-0.254872,-0.013874714,0.113696136,0.042054977,0.05196184,-0.0020145755,-0.0010988325,0.0014978752,2.205172,1.5273588,1.1170906,3.115233,0.0,0.13816187,-0.042054977,0.005436345,0.0037445077,0.026498316,0.017723843,inf,inf,inf,inf,1,1,1,1,2,1,2,3,0,0,0
155741676,0,0.0,0.0,0.16220802,0.88381267,-0.06891141,0.26472634,0.68447477,-0.254872,-0.0013543869,0.05675735,0.036813833,0.046034053,-0.0020145755,-0.0010988325,0.0014978752,3.1971922,1.4913063,-1.3037273,3.1149867,0.0,0.13256595,-0.036813833,0.005592834,0.003849961,0.026677543,0.01781514,inf,inf,inf,inf,1,1,1,1,2,1,2,3,0,0,0
155845686,0,0.0,0.0,0.16159317,0.88602376,-0.06541684,0.26472634,0.68447477,-0.254872,-0.004457095,0.011039612,0.024687657,0.031550914,-0.0020145755,-0.0010988325,0.0014978752,-1.1896565,-0.1696231,-0.20964147,3.117459,0.0,0.12907137,-0.024687657,0.0055055767,0.0037917963,0.026489453,0.017683255,inf,inf,inf,inf,1,1,1,1,2,1,2,3,0,0,0
155949670,0,0.0,0.0,0.16050662,0.88161826,-0.06411713,0.26472634,0.68447477,-0.254872,0.0026927558,-0.056232214,0.012080189,0.01588599,-0.0020145755,-0.0010988325,0.0014978752,-1.5814557,0.6262291,-2.7549608,3.1176147,0.0,0.12777166,-0.012080189,0.0051490036,0.003554421,0.02575786,0.017234202,inf,inf,inf,inf,1,1,1,1,2,1,2,3,0,0,0
156048870,0,0.0,0.0,0.15870486,0.86946636,-0.06393099,0.26472634,0.68447477,-0.254872,-0.015627028,-0.11115393,0.03226357,0.03340394,-0.0020145755,-0.0010988325,0.0014978752,2.4794393,4.823918,0.9289588,3.1183908,0.0,0.12758552,-0.03226357,0.0054088924,0.0037228416,0.026459623,0.017655604,inf,inf,inf,inf,1,1,1,1,2,1,2,3,0,0,0
156152876,0,0.0,0.0,0.1560223,0.8493164,-0.0642713,0.26472634,0.68447477,-0.254872,-0.010366628,-0.16033387,0.018337052,0.017351981,-0.0020145755,-0.0010988325,0.0014978752,-2.3234396,0.9740368,0.26096034,3.1222267,0.0,0.12792583,-0.018337052,0.0051453654,0.0035482636,0.025881916,0.017302966,inf,inf,inf,inf,1,1,1,1,2,1,2,3,0,0,0
156256871,0,0.0,0.0,0.15370648,0.8217705,-0.06454237,0.26472634,0.68447477,-0.254872,-0.0032169423,-0.22942665,0.019501358,0.017443506,-0.0020145755,-0.0010988325,0.0014978752,4.234865,-1.5160503,-0.7516523,3.1303246,0.0,0.1281969,-0.019501358,0.005277616,0.0036354323,0.026302394,0.017588656,inf,inf,inf,inf,1,1,1,1,2,1,2,3,0,0,0
156352869,0,0.0,0.0,0.15186138,0.79127216,-0.06456502,0.26472634,0.68447477,-0.254872,-0.003734129,-0.2689202,0.0075263586,0.005155345,-0.0020145755,-0.0010988325,0.0014978752,2.6005297,-3.5442655,-1.3402686,3.14061,0.0,0.12821954,-0.0075263586,0.0051778588,0.0035715948,0.025928551,0.017358512,inf,inf,inf,inf,1,1,1,1,2,1,2,3,0,0,0
156456910,0,0.0,0.0,0.14962149,0.75496227,-0.06528028,0.26472634,0.68447477,-0.254872,-0.025186896,-0.28590238,-0.010607897,-0.012810014,-0.0020145755,-0.0010988325,0.0014978752,-2.1122448,-0.52956223,0.6583846,-3.1300287,0.0,0.1289348,0.010607897,0.0052664294,0.0036296383,0.02614387,0.017491598,inf,inf,inf,inf,1,1,1,1,2,1,2,3,0,0,0
156560870,0,0.0,0.0,0.14771527,0.7163641,-0.068093814,0.26472634,0.68447477,-0.254872,-0.012436517,-0.31444722,-0.027424669,-0.02953982,-0.0020145755,-0.0010988325,0.0014978752,2.6840827,2.1533484,-0.8302612,-3.1176438,0.0,0.13174835,0.027424669,0.0053396705,0.0036777104,0.02630818,0.01758365,inf,inf,inf,inf,1,1,1,1,2,1,2,3,0,0,0
156656887,0,0.0,0.0,0.14609799,0.6807265,-0.072600104,0.26472634,0.68447477,-0.254872,-0.020203857,-0.3247382,-0.038013868,-0.040537905,-0.0020145755,-0.0010988325,0.0014978752,0.71587336,4.7846155,2.2915566,-3.1101635,0.0,0.13625464,0.038013868,0.005270901,0.0036320125,0.026156725,0.017465983,inf,inf,inf,inf,1,1,1,1,2,1,2,3,0,0,0
156760887,0,0.0,0.0,0.14368187,0.64355695,-0.07846263,0.26472634,0.68447477,-0.254872,-0.020804068,-0.33075,-0.050332654,-0.05367631,-0.0020145755,-0.0010988325,0.0014978752,-1.6321176,-3.0104685,-0.5881849,-3.102909,0.0,0.14211716,0.050332654,0.0053230445,0.0036656251,0.026239535,0.01751369,inf,inf,inf,inf,1,1,1,1,2,1,2,3,0,0,0
156864870,0,0.0,0.0,0.1411482,0.61091244,-0.08498231,0.26472634,0.68447477,-0.254872,-0.017357077,-0.30602214,-0.04083346,-0.04486862,-0.0020145755,-0.0010988325,0.0014978752,0.5505419,0.57535166,2.0192387,-3.099329,0.0,0.14863685,0.04083346,0.005414131,0.0037235303,0.026512923,0.017677076,inf,inf,inf,inf,1,1,1,1,2,1,2,3,0,0,0
156960870,0,0.0,0.0,0.13862647,0.58320767,-0.090499185,0.26472634,0.68447477,-0.254872,-0.027072433,-0.30502054,-0.044661425,-0.04882526,-0.0020145755,-0.0010988325,0.0014978752,-2.1872492,-4.7091494,1.0979229,-3.1014833,0.0,0.1541537,0.044661425,0.005321981,0.0036637187,0.026250288,0.017524542,inf,inf,inf,inf,1,1,1,1,2,1,2,3,0,0,0
157064876,0,0.0,0.0,0.13561893,0.55736035,-0.09589924,0.26472634,0.68447477,-0.254872,-0.011125681,-0.25535077,-0.04724755,-0.050902974,-0.0020145755,-0.0010988325,0.0014978752,2.3527098,3.822603,-1.9383149,-3.102664,0.0,0.15955377,0.04724755,0.005413989,0.0037237494,0.026485344,0.0176825,inf,inf,inf,inf,1,1,1,1,2,1,2,3,0,0,0
157168893,0,0.0,0.0,0.13316901,0.5354495,-0.10029418,0.26472634,0.68447477,-0.254872,-0.027103312,-0.23454575,-0.03616521,-0.038825605,-0.0020145755,-0.0010988325,0.0014978752,-4.400374,2.1337686,2.2451086,-3.1024039,0.0,0.16394871,0.03616521,0.0051025962,0.0035213453,0.0256461,0.017172055,inf,inf,inf,inf,1,1,1,1,2,1,2,3,0,0,0
157264920,0,0.0,0.0,0.13172916,0.5191899,-0.1029029,0.26472634,0.68447477,-0.254872,-0.025545727,-0.21898206,-0.024730137,-0.026250819,-0.0020145755,-0.0010988325,0.0014978752,-2.6885123,1.0618236,-0.37769553,-3.1044726,0.0,0.16655743,0.024730137,0.0053924276,0.0037110678,0.026409809,0.017638506,inf,inf,inf,inf,1,1,1,1,2,1,2,3,0,0,0
157368876,0,0.0,0.0,0.13014792,0.5054926,-0.103944145,0.26472634,0.68447477,-0.254872,-0.009669012,-0.19128747,-0.019143684,-0.019197548,-0.0020145755,-0.0010988325,0.0014978752,1.1883647,1.7399379,1.0028448,-3.105767,0.0,0.16759866,0.019143684,0.005459013,0.0037552891,0.026552407,0.017732233,inf,inf,inf,inf,1,1,1,1,2,1,2,3,0,0,0
157472870,0,0.0,0.0,0.12883198,0.49526396,-0.1037189,0.26472634,0.68447477,-0.254872,-0.008835685,-0.18234502,-0.019543713,-0.01793915,-0.0020145755,-0.0010988325,0.0014978752,-3.678818,-0.91287595,-0.809256,-3.1040404,0.0,0.16737342,0.019543713,0.005145439,0.0035509423,0.025737884,0.017241174,inf,inf,inf,inf,1,1,1,1,2,1,2,3,0,0,0
157576870,0,0.0,0.0,0.12853149,0.4868228,-0.10193652,0.26472634,0.68447477,-0.254872,0.0061362474,-0.15109098,0.010104596,0.013212486,-0.0020145755,-0.0010988325,0.0014978752,1.0636454,-1.0872357,1.0962712,-3.1028874,0.0,0.16559105,-0.010104596,0.0052298717,0.0036060896,0.025982777,0.017397584,inf,inf,inf,inf,1,1,1,1,2,1,2,3,0,0,0
157680869,0,0.0,0.0,0.1293671,0.4801769,-0.097205415,0.26472634,0.68447477,-0.254872,0.007975578,-0.13852909,0.031581186,0.03593932,-0.0020145755,-0.0010988325,0.0014978752,-0.44972658,1.4070826,-0.79598397,-3.1027699,0.0,0.16085994,-0.031581186,0.0053051696,0.0036555268,0.026180716,0.01751644,inf,inf,inf,inf,1,1,1,1,2,1,2,3,0,0,0
157784918,0,0.0,0.0,0.13102448,0.47253796,-0.09026152,0.26472634,0.68447477,-0.254872,0.027612977,-0.12401575,0.05161364,0.057297207,-0.0020145755,-0.0010988325,0.0014978752,1.7005202,4.0537524,1.1032393,-3.0983295,0.0,0.15391605,-0.05161364,0.0053909775,0.0037119468,0.026396798,0.017660119,inf,inf,inf,inf,1,1,1,1,2,1,2,3,0,0,0
157880872,0,0.0,0.0,0.13344179,0.4653944,-0.08311636,0.26472634,0.68447477,-0.254872,0.029578274,-0.104199566,0.04946685,0.05634558,-0.0020145755,-0.0010988325,0.0014978752,-0.064353116,4.242526,1.5950147,-3.092968,0.0,0.1467709,-0.04946685,0.0053055836,0.00365735,0.026136328,0.017503105,inf,inf,inf,inf,1,1,1,1,2,1,2,3,0,0,0
157984877,0,0.0,0.0,0.1367404,0.45634264,-0.07551213,0.26472634,0.68447477,-0.254872,0.048945628,-0.10868344,0.04383565,0.051450394,-0.0020145755,-0.0010988325,0.0014978752,1.1809607,-0.0013447136,-1.1994481,-3.0827703,0.0,0.13916665,-0.04383565,0.0053857276,0.0037099791,0.026361968,0.017640395,inf,inf,inf,inf,1,1,1,1,2,1,2,3,0,0,0
158088870,0,0.0,0.0,0.14156932,0.4460129,-0.069234,0.26472634,0.68447477,-0.254872,0.05443073,-0.10055439,0.03334637,0.040717803,-0.0020145755,-0.0010988325,0.0014978752,0.004874497,2.3409982,-1.9896355,-3.072523,0.0,0.13288853,-0.03334637,0.0051055592,0.0035255814,0.025675615,0.017200772,inf,inf,inf,inf,1,1,1,1,2,1,2,3,0,0,0
158184870,0,0.0,0.0,0.14767407,0.43589547,-0.06694163,0.26472634,0.68447477,-0.254872,0.07398017,-0.07934338,0.004376113,0.010700658,-0.0020145755,-0.0010988325,0.0014978752,2.2305157,2.5083072,1.3112545,-3.0652478,0.0,0.13059616,-0.004376113,0.005055332,0.0034916326,0.025565386,0.017128874,inf,inf,inf,inf,1,1,1,1,2,1,2,3,0,0,0
158287293,0,0.0,0.0,0.15608549,0.42495444,-0.070388235,0.26472634,0.68447477,-0.254872,0.102401786,-0.09405557,-0.056778643,-0.052605085,-0.0020145755,-0.0010988325,0.0014978752,4.1131625,-0.23204207,-0.8655982,-3.057966,0.0,0.13404277,0.056778643,0.005129642,0.003539829,0.025756283,0.017225148,inf,inf,inf,inf,1,1,1,1,2,1,2,3,0,0,0
158392070,0,0.0,0.0,0.16629079,0.4144982,-0.08162494,0.26472634,0.68447477,-0.254872,0.097119294,-0.07244072,-0.107863724,-0.10711141,-0.0020145755,-0.0010988325,0.0014978752,-2.5176659,-1.1401374,-1.6183335,-3.0510757,0.0,0.14527947,0.107863724,0.0051769903,0.0035699406,0.025878618,0.017270438,inf,inf,inf,inf,1,1,1,1,2,1,2,3,0,0,0
158495309,0,0.0,0.0,0.17832203,0.40576005,-0.099273115,0.26472634,0.68447477,-0.254872,0.1109896,-0.0680612,-0.1435635,-0.14723815,-0.0020145755,-0.0010988325,0.0014978752,-4.2407093,1.0048841,3.4278147,-3.0491118,0.0,0.16292764,0.1435635,0.005224521,0.0035982728,0.026066719,0.017361458,inf,inf,inf,inf,1,1,1,1,2,1,2,3,0,0,0
158592077,0,0.0,0.0,0.1915591,0.3985712,-0.1199549,0.26472634,0.68447477,-0.254872,0.13096975,-0.060233243,-0.16927564,-0.17710923,-0.0020145755,-0.0010988325,0.0014978752,-2.6151364,2.1386793,-0.19355758,-3.050144,0.0,0.18360943,0.16927564,0.0051415754,0.0035421723,0.02585279,0.017219268,inf,inf,inf,inf,1,1,1,1,2,1,2,3,0,0,0
158696070,0,0.0,0.0,0.20794055,0.3919701,-0.14471672,0.26472634,0.68447477,-0.254872,0.169088,-0.045244507,-0.18603474,-0.19725859,-0.0020145755,-0.0010988325,0.0014978752,4.343673,1.7017509,0.38779774,-3.0526328,0.0,0.20837125,0.18603474,0.005245319,0.0036081998,0.026169965,0.017423872,inf,inf,inf,inf,1,1,1,1,2,1,2,3,0,0,0
158800089,0,0.0,0.0,0.2266007,0.38727245,-0.16880104,0.26472634,0.68447477,-0.254872,0.17200503,-0.021121826,-0.18104064,-0.19372186,-0.0020145755,-0.0010988325,0.0014978752,-2.4869778,1.4119315,-1.4893587,-3.0550816,0.0,0.23245557,0.18104064,0.0053358227,0.0036673846,0.02636534,0.017558688,inf,inf,inf,inf,1,1,1,1,2,1,2,3,0,0,0
158896070,0,0.0,0.0,0.24527635,0.3836167,-0.18864574,0.26472634,0.68447477,-0.254872,0.18381548,-0.022146633,-0.17104945,-0.18305343,-0.0020145755,-0.0010988325,0.0014978752,2.017099,4.5493665,-1.2181118,-3.0572128,0.0,0.25230026,0.17104945,0.005252509,0.0036150229,0.026055837,0.017396236,inf,inf,inf,inf,1,1,1,1,2,1,2,3,0,0,0
159000080,0,0.0,0.0,0.2651065,0.38146377,-0.20636573,0.26472634,0.68447477,-0.254872,0.1804809,-0.013116533,-0.15890343,-0.16804408,-0.0020145755,-0.0010988325,0.0014978752,2.513039,1.247748,0.939998,-3.0596728,0.0,0.27002025,0.15890343,0.0053255404,0.003664762,0.026209226,0.01750828,inf,inf,inf,inf,1,1,1,1,2,1,2,3,0,0,0
159104091,0,0.0,0.0,0.28458828,0.38055852,-0.22026399,0.26472634,0.68447477,-0.254872,0.19545193,0.0034659412,-0.15143713,-0.15627775,-0.0020145755,-0.0010988325,0.0014978752,6.1855955,-1.0672183,-1.3988986,-3.0597737,0.0,0.2839185,0.15143713,0.0054130447,0.0037234058,0.026442442,0.017670255,inf,inf,inf,inf,1,1,1,1,2,1,2,3,0,0,0
159200076,0,0.0,0.0,0.30376676,0.3811654,-0.23157077,0.26472634,0.68447477,-0.254872,0.19814913,0.0041757836,-0.14303377,-0.1436239,-0.0020145755,-0.0010988325,0.0014978752,-0.77920866,-1.8523177,1.4810374,-3.0592678,0.0,0.2952253,0.14303377,0.005318049,0.003663276,0.026169017,0.01751525,inf,inf,inf,inf,1,1,1,1,2,1,2,3,0,0,0
159304118,0,0.0,0.0,0.32511652,0.38440034,-0.2406644,0.26472634,0.68447477,-0.254872,0.19370483,0.036702443,-0.10960909,-0.10630572,-0.0020145755,-0.0010988325,0.0014978752,-3.2077596,-0.81182814,1.5092969,-3.0576246,0.0,0.3043189,0.10960909,0.005408978,0.0037231068,0.026452193,0.017676074,inf,inf,inf,inf,1,1,1,1,2,1,2,3,0,0,0
159408070,0,0.0,0.0,0.3447261,0.38924938,-0.2444247,0.26472634,0.68447477,-0.254872,0.18734084,0.058618914,-0.052817367,-0.046409175,-0.0020145755,-0.0010988325,0.0014978752,1.6603249,4.6156178,3.8153677,-3.0530932,0.0,0.30807924,0.052817367,0.005102101,0.0035225933,0.025631022,0.017180614,inf,inf,inf,inf,1,1,1,1,2,1,2,3,0,0,0
159504086,0,0.0,0.0,0.3611175,0.39557365,-0.24425736,0.26472634,0.68447477,-0.254872,0.18109056,0.073884614,-0.034501575,-0.02535766,-0.0020145755,-0.0010988325,0.0014978752,-3.7234776,0.7133615,-0.5229641,-3.0516388,0.0,0.30791187,0.034501575,0.0054081464,0.0037233306,0.026413562,0.017675202,inf,inf,inf,inf,1,1,1,1,2,1,2,3,0,0,0
159608113,0,0.0,0.0,0.3773885,0.40379804,-0.2404688,0.26472634,0.68447477,-0.254872,0.17971131,0.09196031,-0.0021939345,0.009891576,-0.0020145755,-0.0010988325,0.0014978752,-0.16443464,1.3794098,0.7868641,-3.050303,0.0,0.30412334,0.0021939345,0.005467679,0.0037641306,0.026514806,0.017756108,inf,inf,inf,inf,1,1,1,1,2,1,2,3,0,0,0
159712078,0,0.0,0.0,0.39180723,0.41272625,-0.23247956,0.26472634,0.68447477,-0.254872,0.15288346,0.09805055,0.046762068,0.06129983,-0.0020145755,-0.0010988325,0.0014978752,3.945426,4.1691713,1.9177777,-3.049246,0.0,0.29613408,-0.046762068,0.0055066478,0.003791286,0.02659175,0.017796885,inf,inf,inf,inf,1,1,1,1,2,1,2,3,0,0,0
159816091,0,0.0,0.0,0.4031589,0.42232826,-0.22113214,0.26472634,0.68447477,-0.254872,0.11676493,0.08677324,0.060863357,0.07718933,-0.0020145755,-0.0010988325,0.0014978752,0.675681,-3.355524,-3.3230727,-3.0472324,0.0,0.28478667,-0.060863357,0.005190815,0.0035842177,0.025807977,0.017328957,inf,inf,inf,inf,1,1,1,1,2,1,2,3,0,0,0
159920070,0,0.0,0.0,0.4103409,0.43085477,-0.20835453,0.26472634,0.68447477,-0.254872,0.049313687,0.049571153,0.08114063,0.09849678,-0.0020145755,-0.0010988325,0.0014978752,-6.142284,-2.3792846,1.603674,-3.0445528,0.0,0.27200907,-0.08114063,0.005282123,0.0036440068,0.02609212,0.017500788,inf,inf,inf,inf,1,1,1,1,2,1,2,3,0,0,0
160016077,0,0.0,0.0,0.41225085,0.43650275,-0.19600527,0.26472634,0.68447477,-0.254872,0.021507367,0.044570398,0.09359039,0.11085005,-0.0020145755,-0.0010988325,0.0014978752,-1.2804611,-2.0006104,-1.6638595,-3.0432444,0.0,0.2596598,-0.09359039,0.0052245944,0.0036061676,0.025954982,0.017407447,inf,inf,inf,inf,1,1,1,1,2,1,2,3,0,0,0
160120070,0,0.0,0.0,0.40765306,0.4394421,-0.18203087,0.26472634,0.68447477,-0.254872,-0.058236763,0.026099676,0.121123634,0.13703246,-0.0020145755,-0.0010988325,0.0014978752,-1.285739,-1.9769628,0.87933075,-3.041412,0.0,0.2456854,-0.121123634,0.0053170105,0.0036661292,0.026211713,0.017546128,inf,inf,inf,inf,1,1,1,1,2,1,2,3,0,0,0
160224077,0,0.0,0.0,0.39517656,0.4388652,-0.16823237,0.26472634,0.68447477,-0.254872,-0.11422478,0.013408392,0.12077932,0.13450794,-0.0020145755,-0.0010988325,0.0014978752,1.0900571,-3.0242398,-1.3565193,-3.0408094,0.0,0.2318869,-0.12077932,0.0053753476,0.003704204,0.02630794,0.017607022,inf,inf,inf,inf,1,1,1,1,2,1,2,3,0,0,0
160320081,0,0.0,0.0,0.37634507,0.43590197,-0.15658975,0.26472634,0.68447477,-0.254872,-0.19040371,0.00021600584,0.11965086,0.13101326,-0.0020145755,-0.0010988325,0.0014978752,-0.23937699,-0.21328187,1.0482664,-3.0409777,0.0,0.22024427,-0.11965086,0.005299634,0.003653813,0.026138047,0.017504403,inf,inf,inf,inf,1,1,1,1,2,1,2,3,0,0,0
160424071,0,0.0,0.0,0.34799382,0.43007383,-0.14560117,0.26472634,0.68447477,-0.254872,-0.2531208,0.00021776702,0.1134336,0.12201524,-0.0020145755,-0.0010988325,0.0014978752,1.8113312,1.806818,0.37762347,-3.0430598,0.0,0.2092557,-0.1134336,0.0053842426,0.0037083928,0.026396653,0.017643677,inf,inf,inf,inf,1,1,1,1,2,1,2,3,0,0,0
160528075,0,0.0,0.0,0.312056,0.42343274,-0.13627942,0.26472634,0.68447477,-0.254872,-0.3274977,-0.024503956,0.10526965,0.11083934,-0.0020145755,-0.0010988325,0.0014978752,-2.456812,-3.083932,-0.1311762,-3.0474396,0.0,0.19993395,-0.10526965,0.0054607075,0.0037575546,0.02660607,0.017758617,inf,inf,inf,inf,1,1,1,1,2,1,2,3,0,0,0
160624087,0,0.0,0.0,0.2715615,0.41617137,-0.1276894,0.26472634,0.68447477,-0.254872,-0.39117825,-0.029382864,0.12242363,0.12517674,-0.0020145755,-0.0010988325,0.0014978752,2.1246252,1.2214174,2.5305433,-3.046297,0.0,0.19134393,-0.12242363,0.0053728363,0.0036995958,0.02637337,0.017607685,inf,inf,inf,inf,1,1,1,1,2,1,2,3,0,0,0
160727269,0,0.0,0.0,0.22293338,0.40839663,-0.1185497,0.26472634,0.68447477,-0.254872,-0.42059776,-0.020865053,0.12106602,0.121260025,-0.0020145755,-0.0010988325,0.0014978752,7.517015,2.2815611,1.3925604,-3.043416,0.0,0.18220422,-0.12106602,0.005435692,0.0037400343,0.026510565,0.0177029,inf,inf,inf,inf,1,1,1,1,2,1,2,3,0,0,0
160831335,0,0.0,0.0,0.17169374,0.40353623,-0.11086732,0.26472634,0.68447477,-0.254872,-0.44699493,-0.0029375064,0.09865079,0.09703172,-0.0020145755,-0.0010988325,0.0014978752,3.9841025,1.6567277,2.8856394,-3.0405502,0.0,0.17452185,-0.09865079,0.0051169875,0.0035315305,0.025698556,0.017208988,inf,inf,inf,inf,1,1,1,1,2,1,2,3,0,0,0
160935276,0,0.0,0.0,0.12132594,0.40317833,-0.10377265,0.26472634,0.68447477,-0.254872,-0.4572784,0.012916193,0.08878591,0.08572264,-0.0020145755,-0.0010988325,0.0014978752,-2.7729826,-3.1513207,-1.357535,-3.0433283,0.0,0.16742718,-0.08878591,0.0052189077,0.0035977473,0.0260203,0.017402003,inf,inf,inf,inf,1,1,1,1,2,1,2,3,0,0,0
161031269,0,0.0,0.0,0.07821459,0.40751427,-0.09822235,0.26472634,0.68447477,-0.254872,-0.42710125,0.046348926,0.079826735,0.07557536,-0.0020145755,-0.0010988325,0.0014978752,3.204508,-2.6939964,-1.4272971,-3.0502691,0.0,0.16187689,-0.079826735,0.005152198,0.003554001,0.02579504,0.017266484,inf,inf,inf,inf,1,1,1,1,2,1,2,3,0,0,0
161135290,0,0.0,0.0,0.036958776,0.4170025,-0.09332839,0.26472634,0.68447477,-0.254872,-0.40165898,0.077655576,0.067984566,0.062715866,-0.0020145755,-0.0010988325,0.0014978752,-1.7922662,0.40185356,3.4229798,-3.0612276,0.0,0.15698291,-0.067984566,0.005217195,0.0035968958,0.025966847,0.017355844,inf,inf,inf,inf,1,1,1,1,2,1,2,3,0,0,0
161239320,0,0.0,0.0,0.0026939982,0.43043712,-0.09053459,0.26472634,0.68447477,-0.254872,-0.35115045,0.10121426,0.031361565,0.025280153,-0.0020145755,-0.0010988325,0.0014978752,-7.14442,-0.31921867,-0.46114257,-3.0729334,0.0,0.15418911,-0.031361565,0.005314347,0.003659447,0.026249744,0.017533809,inf,inf,inf,inf,1,1,1,1,2,1,2,3,0,0,0
161335329,0,0.0,0.0,-0.021735437,0.44634828,-0.09015766,0.26472634,0.68447477,-0.254872,-0.28745663,0.1464496,0.022796126,0.01600877,-0.0020145755,-0.0010988325,0.0014978752,1.7757523,2.4071982,-1.3495398,-3.081495,0.0,0.15381218,-0.022796126,0.0052089994,0.0035911028,0.025919113,0.017323816,inf,inf,inf,inf,1,1,1,1,2,1,2,3,0,0,0
161439310,0,0.0,0.0,-0.03980701,0.46705195,-0.090794615,0.26472634,0.68447477,-0.254872,-0.2269964,0.15492831,0.014752786,0.0072288387,-0.0020145755,-0.0010988325,0.0014978752,4.96338,2.0067995,1.9941919,-3.0925012,0.0,0.15444914,-0.014752786,0.005291956,0.0036440666,0.02620289,0.017479397,inf,inf,inf,inf,1,1,1,1,2,1,2,3,0,0,0
161543315,0,0.0,0.0,-0.04879709,0.48984757,-0.09158866,0.26472634,0.68447477,-0.254872,-0.16954415,0.1725393,0.0011095619,-0.00675311,-0.0020145755,-0.0010988325,0.0014978752,-2.8692029,2.6312153,-2.4687016,-3.1075473,0.0,0.15524319,-0.0011095619,0.005364499,0.0036910626,0.026355399,0.017585097,inf,inf,inf,inf,1,1,1,1,2,1,2,3,0,0,0
161639277,0,0.0,0.0,-0.048745118,0.51055545,-0.09347278,0.26472634,0.68447477,-0.254872,-0.09176959,0.15120848,-0.011803847,-0.019386053,-0.0020145755,-0.0010988325,0.0014978752,1.6541889,-6.099298,-1.6143126,-3.120874,0.0,0.1571273,0.011803847,0.0052954303,0.0036457996,0.0261761,0.01748722,inf,inf,inf,inf,1,1,1,1,2,1,2,3,0,0,0
161743315,0,0.0,0.0,-0.04166593,0.53061396,-0.09551638,0.26472634,0.68447477,-0.254872,-0.04197137,0.1462724,-0.008224561,-0.015032536,-0.0020145755,-0.0010988325,0.0014978752,0.9622631,-0.39315754,0.81109166,-3.1320672,0.0,0.15917091,0.008224561,0.0053684535,0.0036939248,0.026380777,0.017599816,inf,inf,inf,inf,1,1,1,1,2,1,2,3,0,0,0
162863339,0,0.0,0.0,0.03972593,0.53253746,-0.12851147,0.26472634,0.68447477,-0.254872,0.027174339,-0.015050999,-0.034039643,-0.032834556,-0.0020145755,-0.0010988325,0.0014978752,2.6938574,0.2518414,0.8330762,-3.1166263,0.0,0.192166,0.034039643,0.0054136384,0.0037229003,0.026484642,0.017676486,inf,inf,inf,inf,1,1,1,1,2,1,2,3,0,0,0
162967286,0,0.0,0.0,0.034126267,0.5310539,-0.1309145,0.26472634,0.68447477,-0.254872,0.022895988,-0.024925979,-0.0398877,-0.037386626,-0.0020145755,-0.0010988325,0.0014978752,-0.7791156,-2.333545,-3.3773372,-3.1161897,0.0,0.19456902,0.0398877,0.005088917,0.0035124682,0.02557179,0.017143412,inf,inf,inf,inf,1,1,1,1,2,1,2,3,0,0,0
163071277,0,0.0,0.0,0.029459307,0.5331147,-0.13166942,0.26472634,0.68447477,-0.254872,0.025941806,-0.010401414,-0.02159261,-0.017115345,-0.0020145755,-0.0010988325,0.0014978752,1.9451632,-3.923665,0.94401443,-3.1154125,0.0,0.19532394,0.02159261,0.005157103,0.0035583952,0.025764234,0.017270068,inf,inf,inf,inf,1,1,1,1,2,1,2,3,0,0,0
163174492,0,0.0,0.0,0.02639715,0.537387,-0.13050376,0.26472634,0.68447477,-0.254872,0.024320733,-0.010661708,-0.0202103,-0.013969261,-0.0020145755,-0.0010988325,0.0014978752,-1.6013005,-3.369119,-3.0068707,-3.1136565,0.0,0.19415829,0.0202103,0.005215035,0.003597407,0.025890514,0.017345376,inf,inf,inf,inf,1,1,1,1,2,1,2,3,0,0,0
163274481,0,0.0,0.0,0.025473922,0.5430833,-0.1287307,0.26472634,0.68447477,-0.254872,0.025791047,0.0069301412,-0.013109571,-0.005744633,-0.0020145755,-0.0010988325,0.0014978752,-1.2521486,-0.9434324,-0.6444446,-3.1119459,0.0,0.19238523,0.013109571,0.005149559,0.0035538883,0.02574268,0.017256318,inf,inf,inf,inf,1,1,1,1,2,1,2,3,0,0,0
163378470,0,0.0,0.0,0.026449505,0.54953295,-0.12714227,0.26472634,0.68447477,-0.254872,0.046310417,0.006902853,-0.0028632493,0.005091778,-0.0020145755,-0.0010988325,0.0014978752,2.376959,-2.406955,-1.4631797,-3.1098783,0.0,0.19079679,0.0028632493,0.0052468902,0.0036179572,0.026020017,0.017421352,inf,inf,inf,inf,1,1,1,1,2,1,2,3,0,0,0
163482494,0,0.0,0.0,0.029074062,0.5556126,-0.12599209,0.26472634,0.68447477,-0.254872,0.044621713,-0.0032238415,-0.014177586,-0.0063146385,-0.0020145755,-0.0010988325,0.0014978752,-0.13408697,-1.1097674,-1.1645849,-3.1069386,0.0,0.18964662,0.014177586,0.0053668558,0.003697281,0.026487824,0.017718399,inf,inf,inf,inf,1,1,1,1,2,1,2,3,0,0,0
163578487,0,0.0,0.0,0.03275194,0.5597243,-0.12579937,0.26472634,0.68447477,-0.254872,0.041828066,-0.0009734372,-0.018415606,-0.011129755,-0.0020145755,-0.0010988325,0.0014978752,-1.1064936,2.4948266,-2.7142792,-3.1033132,0.0,0.1894539,0.018415606,0.00527095,0.0036346517,0.026145482,0.017510807,inf,inf,inf,inf,1,1,1,1,2,1,2,3,0,0,0
163682470,0,0.0,0.0,0.037999667,0.5617795,-0.12730625,0.26472634,0.68447477,-0.254872,0.04690963,0.00049808895,-0.014089984,-0.007840424,-0.0020145755,-0.0010988325,0.0014978752,3.5034134,3.9540293,1.4571058,-3.0982955,0.0,0.19096078,0.014089984,0.005334308,0.003676159,0.026304575,0.017590025,inf,inf,inf,inf,1,1,1,1,2,1,2,3,0,0,0
163786476,0,0.0,0.0,0.0440919,0.5634455,-0.13061547,0.26472634,0.68447477,-0.254872,0.048917416,0.0093394825,-0.04170506,-0.036786426,-0.0020145755,-0.0010988325,0.0014978752,1.758297,3.5874922,-1.95363,-3.0944636,0.0,0.19427,0.04170506,0.0050606276,0.0034952692,0.025610683,0.017158557,inf,inf,inf,inf,1,1,1,1,2,1,2,3,0,0,0
163882470,0,0.0,0.0,0.04971513,0.56419784,-0.13523538,0.26472634,0.68447477,-0.254872,0.0666434,-0.0024423008,-0.052024286,-0.04844376,-0.0020145755,-0.0010988325,0.0014978752,5.5387297,-1.7502948,-3.7103133,-3.0916684,0.0,0.19888991,0.052024286,0.0053526764,0.003686139,0.02633014,0.017591162,inf,inf,inf,inf,1,1,1,1,2,1,2,3,0,0,0
163986470,0,0.0,0.0,0.05450028,0.56409746,-0.141507,0.26472634,0.68447477,-0.254872,0.032819673,0.009744229,-0.043656312,-0.041557815,-0.0020145755,-0.0010988325,0.0014978752,1.5375371,2.581783,1.9154543,-3.0904865,0.0,0.20516153,0.043656312,0.0050841984,0.003508892,0.025668345,0.017173918,inf,inf,inf,inf,1,1,1,1,2,1,2,3,0,0,0
164090521,0,0.0,0.0,0.05782201,0.5634009,-0.14826694,0.26472634,0.68447477,-0.254872,0.037929542,0.012676838,-0.056050833,-0.055155266,-0.0020145755,-0.0010988325,0.0014978752,2.54355,3.602033,-2.0606334,-3.0900557,0.0,0.21192147,0.056050833,0.0051760306,0.003568428,0.02588794,0.017308833,inf,inf,inf,inf,1,1,1,1,2,1,2,3,0,0,0
164194484,0,0.0,0.0,0.060078133,0.56384903,-0.15443689,0.26472634,0.68447477,-0.254872,0.01790416,0.021781579,-0.035925932,-0.03565797,-0.0020145755,-0.0010988325,0.0014978752,0.74973094,4.6288395,1.7795514,-3.0904293,0.0,0.21809141,0.035925932,0.0052323607,0.0036059392,0.02598102,0.017365923,inf,inf,inf,inf,1,1,1,1,2,1,2,3,0,0,0
164298518,0,0.0,0.0,0.06136937,0.56497973,-0.15870608,0.26472634,0.68447477,-0.254872,0.013377351,-0.0028236953,-0.028961046,-0.028613133,-0.0020145755,-0.0010988325,0.0014978752,-1.9732493,2.5741155,-0.7059044,-3.0913892,0.0,0.22236061,0.028961046,0.005306211,0.0036540593,0.026184391,0.017499413,inf,inf,inf,inf,1,1,1,1,2,1,2,3,0,0,0
164394476,0,0.0,0.0,0.061540585,0.5660327,-0.1610336,0.26472634,0.68447477,-0.254872,0.024199976,0.009551017,-0.036424857,-0.035317242,-0.0020145755,-0.0010988325,0.0014978752,1.9856598,1.9413879,-3.031445,-3.092903,0.0,0.22468813,0.036424857,0.0052235513,0.0036005778,0.02596407,0.01737682,inf,inf,inf,inf,1,1,1,1,2,1,2,3,0,0,0
164498469,0,0.0,0.0,0.06131038,0.5680938,-0.16278554,0.26472634,0.68447477,-0.254872,0.013102178,0.016174123,-0.013145578,-0.010782584,-0.0020145755,-0.0010988325,0.0014978752,3.4607792,2.9525151,1.9898958,-3.093274,0.0,0.22644007,0.013145578,0.005283134,0.0036407365,0.026098864,0.017462566,inf,inf,inf,inf,1,1,1,1,2,1,2,3,0,0,0
164602470,0,0.0,0.0,0.06082981,0.56950015,-0.16357213,0.26472634,0.68447477,-0.254872,0.0030625598,0.0066826046,-0.016606566,-0.01316063,-0.0020145755,-0.0010988325,0.0014978752,-3.2611318,3.2359216,2.6463451,-3.093968,0.0,0.22722666,0.016606566,0.0053555584,0.0036883992,0.0262814,0.017572643,inf,inf,inf,inf,1,1,1,1,2,1,2,3,0,0,0
164698479,0,0.0,0.0,0.06052981,0.57125,-0.16411838,0.26472634,0.68447477,-0.254872,0.023704901,0.004554804,-0.025258513,-0.02120515,-0.0020145755,-0.0010988325,0.0014978752,1.3873322,0.41457698,-0.8127684,-3.0957894,0.0,0.2277729,0.025258513,0.005274246,0.0036353043,0.026080357,0.017451942,inf,inf,inf,inf,1,1,1,1,2,1,2,3,0,0,0
164802509,0,0.0,0.0,0.061063804,0.57165027,-0.16602531,0.26472634,0.68447477,-0.254872,0.020865152,-0.0022786942,-0.04271098,-0.038575877,-0.0020145755,-0.0010988325,0.0014978752,1.5800478,-0.6067968,-1.9521873,-3.0959094,0.0,0.22967984,0.04271098,0.0053387373,0.0036773826,0.026252149,0.017550161,inf,inf,inf,inf,1,1,1,1,2,1,2,3,0,0,0
164906469,0,0.0,0.0,0.063455194,0.5712806,-0.1732823,0.26472634,0.68447477,-0.254872,0.040965687,-0.017278006,-0.11144583,-0.10794268,-0.0020145755,-0.0010988325,0.0014978752,2.7042718,-3.5523424,-1.8281511,-3.0977867,0.0,0.23693682,0.11144583,0.005419316,0.0037293728,0.026494578,0.017684337,inf,inf,inf,inf,1,1,1,1,2,1,2,3,0,0,0
165002470,0,0.0,0.0,0.06748549,0.5699783,-0.18671632,0.26472634,0.68447477,-0.254872,0.039757635,-0.005857959,-0.15542664,-0.15372553,-0.0020145755,-0.0010988325,0.0014978752,-2.911746,3.4479995,-1.2299149,-3.1016302,0.0,0.25037086,0.15542664,0.005355117,0.0036864842,0.026378373,0.017587418,inf,inf,inf,inf,1,1,1,1,2,1,2,3,0,0,0
165106469,0,0.0,0.0,0.07315266,0.56826735,-0.20685323,0.26472634,0.68447477,-0.254872,0.04794655,-0.0060763475,-0.17149654,-0.1733984,-0.0020145755,-0.0010988325,0.0014978752,-0.14414519,1.4618862,1.3510506,-3.106628,0.0,0.27050775,0.17149654,0.0050717634,0.003498804,0.025686285,0.017134309,inf,inf,inf,inf,1,1,1,1,2,1,2,3,0,0,0
165210470,0,0.0,0.0,0.080060855,0.56596136,-0.2312716,0.26472634,0.68447477,-0.254872,0.069207944,-0.021031886,-0.19664279,-0.20257281,-0.0020145755,-0.0010988325,0.0014978752,3.7817104,-0.6384094,1.6755868,-3.1117427,0.0,0.2949261,0.19664279,0.0051275943,0.0035337065,0.025799634,0.017200645,inf,inf,inf,inf,1,1,1,1,2,1,2,3,0,0,0
165314476,0,0.0,0.0,0.087808706,0.563274,-0.2578602,0.26472634,0.68447477,-0.254872,0.058071773,-0.021997528,-0.2011652,-0.21019264,-0.0020145755,-0.0010988325,0.0014978752,1.4668268,-1.3095853,2.495927,-3.116551,0.0,0.32151473,0.2011652,0.0052120727,0.0035878324,0.026023027,0.017345196,inf,inf,inf,inf,1,1,1,1,2,1,2,3,0,0,0
165418470,0,0.0,0.0,0.095541306,0.5606101,-0.28407294,0.26472634,0.68447477,-0.254872,0.05483376,-0.01171789,-0.210598,-0.22098015,-0.0020145755,-0.0010988325,0.0014978752,2.3019273,0.07826075,1.3864474,-3.1196377,0.0,0.34772748,0.210598,0.005283694,0.0036349886,0.026172936,0.017454138,inf,inf,inf,inf,1,1,1,1,2,1,2,3,0,0,0
165514470,0,0.0,0.0,0.10265519,0.5578869,-0.30707714,0.26472634,0.68447477,-0.254872,0.060249884,-0.027903257,-0.21121462,-0.22107728,-0.0020145755,-0.0010988325,0.0014978752,0.81173855,1.3387346,-1.5147972,-3.1215866,0.0,0.37073165,0.21121462,0.0052183312,0.003593156,0.025998047,0.01737404,inf,inf,inf,inf,1,1,1,1,2,1,2,3,0,0,0
165616883,0,0.0,0.0,0.109465696,0.55578935,-0.32906654,0.26472634,0.68447477,-0.254872,0.049079347,-0.008228092,-0.20196928,-0.20988253,-0.0020145755,-0.0010988325,0.0014978752,-1.6508969,2.819081,-0.80861956,-3.1239736,0.0,0.39272106,0.20196928,0.005270797,0.003629545,0.026085818,0.017438775,inf,inf,inf,inf,1,1,1,1,2,1,2,3,0,0,0
165722470,0,0.0,0.0,0.114266805,0.5538515,-0.3481082,0.26472634,0.68447477,-0.254872,0.043000013,-0.015265219,-0.18985318,-0.19496161,-0.0020145755,-0.0010988325,0.0014978752,0.36530614,1.0539087,-2.7056038,-3.124733,0.0,0.4117627,0.18985318,0.005341957,0.0036774825,0.026265135,0.017563118,inf,inf,inf,inf,1,1,1,1,2,1,2,3,0,0,0
165819305,0,0.0,0.0,0.116165966,0.55250955,-0.36302558,0.26472634,0.68447477,-0.254872,0.008345673,-0.00685025,-0.16695577,-0.16921899,-0.0020145755,-0.0010988325,0.0014978752,-0.38718367,0.96498865,1.9800102,-3.1247897,0.0,0.4266801,0.16695577,0.005279093,0.0036369448,0.026120156,0.017480416,inf,inf,inf,inf,1,1,1,1,2,1,2,3,0,0,0
165921696,0,0.0,0.0,0.11545484,0.55122054,-0.37661394,0.26472634,0.68447477,-0.254872,-0.0073574446,-0.008776125,-0.1505917,-0.14994112,-0.0020145755,-0.0010988325,0.0014978752,-3.2645633,0.4186956,1.8613716,-3.1235738,0.0,0.44026846,0.1505917,0.005351839,0.0036863147,0.026259704,0.017572097,inf,inf,inf,inf,1,1,1,1,2,1,2,3,0,0,0
166025700,0,0.0,0.0,0.11170937,0.550466,-0.3872724,0.26472634,0.68447477,-0.254872,-0.021778004,0.00024960583,-0.122070886,-0.11886095,-0.0020145755,-0.0010988325,0.0014978752,0.9248836,4.676293,-0.46251115,-3.1217253,0.0,0.4509269,0.122070886,0.005389348,0.0037126765,0.026319848,0.017611912,inf,inf,inf,inf,1,1,1,1,2,1,2,3,0,0,0
166129678,0,0.0,0.0,0.10536185,0.549504,-0.39439473,0.26472634,0.68447477,-0.254872,-0.033217266,-0.013032244,-0.08770443,-0.0823068,-0.0020145755,-0.0010988325,0.0014978752,5.3637805,-2.5069656,-1.1071953,-3.118245,0.0,0.45804924,0.08770443,0.0050904634,0.0035165017,0.025577238,0.017167507,inf,inf,inf,inf,1,1,1,1,2,1,2,3,0,0,0
166225676,0,0.0,0.0,0.09746961,0.54882854,-0.39816588,0.26472634,0.68447477,-0.254872,-0.06909271,-0.0070245387,-0.069138184,-0.062011976,-0.0020145755,-0.0010988325,0.0014978752,-3.7030585,-0.07402413,-0.21337618,-3.1138556,0.0,0.46182042,0.069138184,0.0054002297,0.003719585,0.0264013,0.017674001,inf,inf,inf,inf,1,1,1,1,2,1,2,3,0,0,0
166329702,0,0.0,0.0,0.08746981,0.54759675,-0.4012021,0.26472634,0.68447477,-0.254872,-0.076368496,-0.017997991,-0.059726886,-0.05104481,-0.0020145755,-0.0010988325,0.0014978752,-4.9463935,-2.5286987,1.8334091,-3.1092303,0.0,0.46485662,0.059726886,0.005110229,0.0035301463,0.025626052,0.017207116,inf,inf,inf,inf,1,1,1,1,2,1,2,3,0,0,0
166433686,0,0.0,0.0,0.077008955,0.54667985,-0.4041618,0.26472634,0.68447477,-0.254872,-0.08008166,-0.012186846,-0.060159985,-0.05076003,-0.0020145755,-0.0010988325,0.0014978752,-5.389468,0.18263584,0.5514741,-3.107291,0.0,0.46781635,0.060159985,0.005180778,0.0035769576,0.025815062,0.017308988,inf,inf,inf,inf,1,1,1,1,2,1,2,3,0,0,0
166537678,0,0.0,0.0,0.06728339,0.5447167,-0.4081667,0.26472634,0.68447477,-0.254872,-0.071883,-0.015404045,-0.055358686,-0.046458207,-0.0020145755,-0.0010988325,0.0014978752,1.3533463,-1.8806304,0.8118442,-3.105709,0.0,0.47182125,0.055358686,0.005276995,0.0036391944,0.026098477,0.017472124,inf,inf,inf,inf,1,1,1,1,2,1,2,3,0,0,0
166633719,0,0.0,0.0,0.059945703,0.5431208,-0.41319156,0.26472634,0.68447477,-0.254872,-0.06094561,-0.021529397,-0.06174724,-0.05421503,-0.0020145755,-0.0010988325,0.0014978752,-0.84569436,-1.5533465,-0.928962,-3.1070457,0.0,0.4768461,0.06174724,0.0051910104,0.0035823488,0.025851823,0.017312223,inf,inf,inf,inf,1,1,1,1,2,1,2,3,0,0,0
166737670,0,0.0,0.0,0.053880636,0.5400823,-0.42085242,0.26472634,0.68447477,-0.254872,-0.049677823,-0.027478112,-0.07881207,-0.07339039,-0.0020145755,-0.0010988325,0.0014978752,0.79754573,1.4479153,1.2769321,-3.1096432,0.0,0.48450696,0.07881207,0.0052616256,0.0036280113,0.026028521,0.017411785,inf,inf,inf,inf,1,1,1,1,2,1,2,3,0,0,0
166841669,0,0.0,0.0,0.050202962,0.5371132,-0.43209317,0.26472634,0.68447477,-0.254872,-0.033749577,-0.0321246,-0.10268254,-0.09968659,-0.0020145755,-0.0010988325,0.0014978752,3.9879293,-4.017657,-0.22887401,-3.1118882,0.0,0.4957477,0.10268254,0.0053170105,0.0036633592,0.026202312,0.017507091,inf,inf,inf,inf,1,1,1,1,2,1,2,3,0,0,0
166945709,0,0.0,0.0,0.048797917,0.53293014,-0.44711345,0.26472634,0.68447477,-0.254872,-0.03515171,-0.031312436,-0.13171414,-0.13159274,-0.0020145755,-0.0010988325,0.0014978752,-3.1190112,0.83759534,-0.9406898,-3.116042,0.0,0.510768,0.13171414,0.005429556,0.0037344922,0.026581487,0.017721329,inf,inf,inf,inf,1,1,1,1,2,1,2,3,0,0,0
167041670,0,0.0,0.0,0.049098715,0.52947205,-0.46326727,0.26472634,0.68447477,-0.254872,-0.016689273,-0.026656562,-0.13297313,-0.13557036,-0.0020145755,-0.0010988325,0.0014978752,2.4034634,1.8599437,1.0634687,-3.1239412,0.0,0.5269218,0.13297313,0.005330401,0.0036695139,0.026285956,0.017533736,inf,inf,inf,inf,1,1,1,1,2,1,2,3,0,0,0
167145670,0,0.0,0.0,0.051517963,0.5253047,-0.4816916,0.26472634,0.68447477,-0.254872,-0.0036305343,-0.04253795,-0.13825493,-0.14340393,-0.0020145755,-0.0010988325,0.0014978752,-0.46958014,-2.4529018,0.17876704,-3.1325307,0.0,0.54534614,0.13825493,0.005405309,0.0037171156,0.0264961,0.017658666,inf,inf,inf,inf,1,1,1,1,2,1,2,3,0,0,0
167249670,0,0.0,0.0,0.055157334,0.5207623,-0.49912387,0.26472634,0.68447477,-0.254872,-0.004840584,-0.031132074,-0.12763621,-0.13433756,-0.0020145755,-0.0010988325,0.0014978752,-1.9158481,1.8960837,0.5123049,-3.1374533,0.0,0.5627784,0.12763621,0.005116552,0.0035284176,0.025723943,0.017204959,inf,inf,inf,inf,1,1,1,1,2,1,2,3,0,0,0
167353700,0,0.0,0.0,0.058957506,0.51690036,-0.5143279,0.26472634,0.68447477,-0.254872,0.0052167764,-0.029648263,-0.116868764,-0.12367537,-0.0020145755,-0.0010988325,0.0014978752,1.9982605,-1.3725716,-0.87804276,-3.1381419,0.0,0.5779824,0.116868764,0.0051886206,0.0035764193,0.025879027,0.017312763,inf,inf,inf,inf,1,1,1,1,2,1,2,3,0,0,0
167449726,0,0.0,0.0,0.06185687,0.5139519,-0.525603,0.26472634,0.68447477,-0.254872,-0.003360951,-0.018246053,-0.10189781,-0.10757559,-0.0020145755,-0.0010988325,0.0014978752,-3.5148718,1.4884045,0.45771304,-3.1355023,0.0,0.58925754,0.10189781,0.0051382305,0.0035440777,0.025750652,0.017254198,inf,inf,inf,inf,1,1,1,1,2,1,2,3,0,0,0
167553708,0,0.0,0.0,0.063517675,0.512297,-0.5343654,0.26472634,0.68447477,-0.254872,0.0005999066,-0.0073700715,-0.07761754,-0.08123937,-0.0020145755,-0.0010988325,0.0014978752,1.8474127,1.0673336,-0.2775212,-3.130168,0.0,0.59801996,0.07761754,0.0051947325,0.0035830801,0.02583624,0.017309492,inf,inf,inf,inf,1,1,1,1,2,1,2,3,0,0,0
167657670,0,0.0,0.0,0.06330787,0.51189566,-0.54034495,0.26472634,0.68447477,-0.254872,-0.015158275,-0.0035080928,-0.07450645,-0.075519346,-0.0020145755,-0.0010988325,0.0014978752,-2.9551375,0.09656464,-0.41826817,-3.1261911,0.0,0.6039995,0.07450645,0.00525388,0.0036227833,0.02599417,0.017418036,inf,inf,inf,inf,1,1,1,1,2,1,2,3,0,0,0
167753676,0,0.0,0.0,0.06116003,0.512756,-0.54419804,0.26472634,0.68447477,-0.254872,-0.017114775,0.0021819347,-0.05941158,-0.058187723,-0.0020145755,-0.0010988325,0.0014978752,3.3861957,-3.2301195,0.14988115,-3.1229286,0.0,0.6078526,0.05941158,0.0051907613,0.003581974,0.025844535,0.017324477,inf,inf,inf,inf,1,1,1,1,2,1,2,3,0,0,0
167857683,0,0.0,0.0,0.057641204,0.51454586,-0.54772955,0.26472634,0.68447477,-0.254872,-0.028904885,0.008415935,-0.05282461,-0.04989124,-0.0020145755,-0.0010988325,0.0014978752,-0.10666146,-0.92668337,0.2814591,-3.119081,0.0,0.6113841,0.05282461,0.0052817445,0.003641421,0.026104117,0.017477192,inf,inf,inf,inf,1,1,1,1,2,1,2,3,0,0,0
167959276,0,0.0,0.0,0.05236775,0.516961,-0.5504309,0.26472634,0.68447477,-0.254872,-0.036236815,0.0039773663,-0.03715723,-0.03339478,-0.0020145755,-0.0010988325,0.0014978752,-1.0705782,-1.4808288,3.1485224,-3.1163342,0.0,0.61408544,0.03715723,0.005342443,0.0036814036,0.026249642,0.017553877,inf,inf,inf,inf,1,1,1,1,2,1,2,3,0,0,0
168061670,0,0.0,0.0,0.046174947,0.5188567,-0.55328846,0.26472634,0.68447477,-0.254872,-0.028688284,0.0023166186,-0.042147245,-0.038296737,-0.0020145755,-0.0010988325,0.0014978752,2.6188323,-0.3754272,0.17136578,-3.1142004,0.0,0.616943,0.042147245,0.005348379,0.0036860951,0.026192715,0.017519457,inf,inf,inf,inf,1,1,1,1,2,1,2,3,0,0,0
168160099,0,0.0,0.0,0.03999859,0.5191577,-0.55836105,0.26472634,0.68447477,-0.254872,-0.04422658,-0.013073415,-0.06495368,-0.06163017,-0.0020145755,-0.0010988325,0.0014978752,-0.39217827,0.64301056,2.589706,-3.1099176,0.0,0.6220156,0.06495368,0.0052707703,0.0036330854,0.026054783,0.017429277,inf,inf,inf,inf,1,1,1,1,2,1,2,3,0,0,0
168264870,0,0.0,0.0,0.03386918,0.5192167,-0.5652844,0.26472634,0.68447477,-0.254872,-0.027462378,-0.020514954,-0.05566445,-0.053723324,-0.0020145755,-0.0010988325,0.0014978752,6.1364565,-1.7988807,-0.4986443,-3.1061087,0.0,0.6289389,0.05566445,0.0054296493,0.0037353835,0.026657913,0.017786449,inf,inf,inf,inf,1,1,1,1,2,1,2,3,0,0,0
168368870,0,0.0,0.0,0.028502341,0.51772314,-0.5721552,0.26472634,0.68447477,-0.254872,-0.03399632,-0.0074465913,-0.04485129,-0.04475919,-0.0020145755,-0.0010988325,0.0014978752,1.1638879,4.229496,-1.0283535,-3.101691,0.0,0.6358097,0.04485129,0.0050985087,0.0035189698,0.025683722,0.01719403,inf,inf,inf,inf,1,1,1,1,2,1,2,3,0,0,0
168464896,0,0.0,0.0,0.024531558,0.5154541,-0.57806516,0.26472634,0.68447477,-0.254872,-0.036186084,-0.024515677,-0.053593453,-0.054769564,-0.0020145755,-0.0010988325,0.0014978752,0.086447686,0.83170456,-1.8063245,-3.1006413,0.0,0.6417197,0.053593453,0.0053982744,0.0037156034,0.026441269,0.017664721,inf,inf,inf,inf,1,1,1,1,2,1,2,3,0,0,0
168568870,0,0.0,0.0,0.020903008,0.5110047,-0.584629,0.26472634,0.68447477,-0.254872,-0.041428573,-0.03901639,-0.041863825,-0.04366351,-0.0020145755,-0.0010988325,0.0014978752,-0.27310303,1.6865343,2.6090946,-3.1022885,0.0,0.64828354,0.041863825,0.0054815123,0.0037703465,0.0266327,0.017793456,inf,inf,inf,inf,1,1,1,1,2,1,2,3,0,0,0
168672872,0,0.0,0.0,0.018653918,0.50542814,-0.59120446,0.26472634,0.68447477,-0.254872,-0.021864135,-0.056881893,-0.046784963,-0.048828438,-0.0020145755,-0.0010988325,0.0014978752,2.6893091,-2.9336474,2.1764324,-3.1068013,0.0,0.654859,0.046784963,0.005172916,0.003568957,0.0258449,0.017302873,inf,inf,inf,inf,1,1,1,1,2,1,2,3,0,0,0
168768870,0,0.0,0.0,0.017727232,0.49989614,-0.5966037,0.26472634,0.68447477,-0.254872,-0.01333615,-0.044082496,-0.044771075,-0.04695852,-0.0020145755,-0.0010988325,0.0014978752,-0.86524796,3.064838,0.7711144,-3.1118832,0.0,0.66025823,0.044771075,0.005113122,0.0035295407,0.025687026,0.017209424,inf,inf,inf,inf,1,1,1,1,2,1,2,3,0,0,0
168872890,0,0.0,0.0,0.017851152,0.49457675,-0.60191774,0.26472634,0.68447477,-0.254872,-0.003890238,-0.049549654,-0.039513778,-0.0417663,-0.0020145755,-0.0010988325,0.0014978752,-0.12470664,-1.2576917,-0.22567275,-3.1171741,0.0,0.6655723,0.039513778,0.005167771,0.003565755,0.025784556,0.0172673,inf,inf,inf,inf,1,1,1,1,2,1,2,3,0,0,0
168976873,0,0.0,0.0,0.018364543,0.4903023,-0.60622644,0.26472634,0.68447477,-0.254872,0.0016068274,-0.04462543,-0.03986935,-0.04197577,-0.0020145755,-0.0010988325,0.0014978752,3.4269428,-0.86438656,-0.95860475,-3.1218154,0.0,0.669881,0.03986935,0.0052360743,0.0036104626,0.025962872,0.017377492,inf,inf,inf,inf,1,1,1,1,2,1,2,3,0,0,0
169080870,0,0.0,0.0,0.018543486,0.48709178,-0.6099747,0.26472634,0.68447477,-0.254872,-0.014626335,-0.016423015,-0.026293851,-0.028035669,-0.0020145755,-0.0010988325,0.0014978752,-0.5257034,-0.23415303,0.7206824,-3.1219158,0.0,0.6736292,0.026293851,0.005301565,0.0036534267,0.02614202,0.01748698,inf,inf,inf,inf,1,1,1,1,2,1,2,3,0,0,0
169184876,0,0.0,0.0,0.01866384,0.48616695,-0.61331767,0.26472634,0.68447477,-0.254872,-0.009791077,-0.0011280638,-0.033152945,-0.034510538,-0.0020145755,-0.0010988325,0.0014978752,-0.10643667,4.671804,-0.2513051,-3.1198325,0.0,0.6769722,0.033152945,0.0054017473,0.0037181273,0.02645703,0.017672963,inf,inf,inf,inf,1,1,1,1,2,1,2,3,0,0,0
169280870,0,0.0,0.0,0.01924945,0.4868044,-0.6161642,0.26472634,0.68447477,-0.254872,-0.004462729,0.0070838165,-0.034298457,-0.03539289,-0.0020145755,-0.0010988325,0.0014978752,-0.3288566,0.5227511,-1.6434237,-3.1174307,0.0,0.67981875,0.034298457,0.005315054,0.0036618484,0.026201932,0.017523553,inf,inf,inf,inf,1,1,1,1,2,1,2,3,0,0,0
169384879,0,0.0,0.0,0.020386262,0.489317,-0.61963195,0.26472634,0.68447477,-0.254872,-0.01168626,0.026346456,-0.031469334,-0.032453597,-0.0020145755,-0.0010988325,0.0014978752,-3.065286,4.776082,0.39786226,-3.1131325,0.0,0.6832865,0.031469334,0.005410139,0.0037234155,0.026471103,0.017682612,inf,inf,inf,inf,1,1,1,1,2,1,2,3,0,0,0
169488870,0,0.0,0.0,0.021131974,0.49393353,-0.6232752,0.26472634,0.68447477,-0.254872,-0.005382216,0.024935005,-0.03826759,-0.039287955,-0.0020145755,-0.0010988325,0.0014978752,0.022944592,-0.60706115,-0.167477,-3.1077101,0.0,0.68692976,0.03826759,0.0051006526,0.0035212776,0.025639452,0.017170623,inf,inf,inf,inf,1,1,1,1,2,1,2,3,0,0,0
169584876,0,0.0,0.0,0.021461392,0.49956244,-0.62797457,0.26472634,0.68447477,-0.254872,0.007100048,0.03201341,-0.04668579,-0.047858045,-0.0020145755,-0.0010988325,0.0014978752,4.372865,1.3749056,0.5326092,-3.1035569,0.0,0.6916291,0.04668579,0.0054085637,0.0037221212,0.026465375,0.017673802,inf,inf,inf,inf,1,1,1,1,2,1,2,3,0,0,0
169688880,0,0.0,0.0,0.021250054,0.506555,-0.6347549,0.26472634,0.68447477,-0.254872,-0.011910391,0.037785202,-0.06891332,-0.07047314,-0.0020145755,-0.0010988325,0.0014978752,-2.920489,-0.73426235,-0.8722777,-3.099236,0.0,0.69840944,0.06891332,0.0054522217,0.0037511073,0.026550222,0.017712096,inf,inf,inf,inf,1,1,1,1,2,1,2,3,0,0,0
169792870,0,0.0,0.0,0.020445604,0.51295364,-0.6433537,0.26472634,0.68447477,-0.254872,-0.020600434,0.023411581,-0.082542956,-0.08479301,-0.0020145755,-0.0010988325,0.0014978752,-1.4067228,-1.9939151,1.2754484,-3.0947716,0.0,0.70700824,0.082542956,0.005129443,0.00353952,0.02571947,0.017208897,inf,inf,inf,inf,1,1,1,1,2,1,2,3,0,0,0
169888911,0,0.0,0.0,0.019621685,0.51698095,-0.6534256,0.26472634,0.68447477,-0.254872,-0.012897074,0.01914301,-0.09609226,-0.09915259,-0.0020145755,-0.0010988325,0.0014978752,-0.72324944,-0.85977566,-0.37172014,-3.0914142,0.0,0.7170801,0.09609226,0.00544013,0.0037413752,0.026571935,0.01771571,inf,inf,inf,inf,1,1,1,1,2,1,2,3,0,0,0
169992870,0,0.0,0.0,0.0183765,0.5190084,-0.66505843,0.26472634,0.68447477,-0.254872,-0.017350158,0.0039305966,-0.102578126,-0.106543586,-0.0020145755,-0.0010988325,0.0014978752,-4.765155,-0.28038505,0.40486726,-3.0899343,0.0,0.728713,0.102578126,0.0051439293,0.003547233,0.025809616,0.017252056,inf,inf,inf,inf,1,1,1,1,2,1,2,3,0,0,0
170096870,0,0.0,0.0,0.01738971,0.5186736,-0.6763453,0.26472634,0.68447477,-0.254872,-0.010273666,-0.0056575825,-0.09793608,-0.10242827,-0.0020145755,-0.0010988325,0.0014978752,-1.7435228,-1.7455257,0.65695065,-3.092078,0.0,0.73999983,0.09793608,0.0052013183,0.003584987,0.025916323,0.017324518,inf,inf,inf,inf,1,1,1,1,2,1,2,3,0,0,0
170192889,0,0.0,0.0,0.01778741,0.5169442,-0.68668586,0.26472634,0.68447477,-0.254872,0.013322316,-0.016646756,-0.0956697,-0.10002984,-0.0020145755,-0.0010988325,0.0014978752,0.39456928,0.42095423,-0.25857773,-3.0933871,0.0,0.7503404,0.0956697,0.00515831,0.0035562862,0.025839396,0.01728601,inf,inf,inf,inf,1,1,1,1,2,1,2,3,0,0,0
170296870,0,0.0,0.0,0.019728303,0.51274747,-0.69702405,0.26472634,0.68447477,-0.254872,0.029623007,-0.036729224,-0.10344734,-0.10701835,-0.0020145755,-0.0010988325,0.0014978752,3.233495,0.1359486,0.76073176,-3.0931532,0.0,0.7606786,0.10344734,0.005212311,0.0035927596,0.02594728,0.017357789,inf,inf,inf,inf,1,1,1,1,2,1,2,3,0,0,0
170400883,0,0.0,0.0,0.023228684,0.50651574,-0.70758754,0.26472634,0.68447477,-0.254872,0.038701102,-0.04319449,-0.11324821,-0.11569259,-0.0020145755,-0.0010988325,0.0014978752,1.9974425,2.3116257,-2.1052623,-3.0902698,0.0,0.7712421,0.11324821,0.0052979994,0.00364911,0.026182238,0.017506469,inf,inf,inf,inf,1,1,1,1,2,1,2,3,0,0,0
170503312,0,0.0,0.0,0.028346462,0.4980584,-0.7201905,0.26472634,0.68447477,-0.254872,0.050333906,-0.07133596,-0.14277172,-0.14420855,-0.0020145755,-0.0010988325,0.0014978752,-0.002060184,1.1207539,1.7784835,-3.084432,0.0,0.78384507,0.14277172,0.00535254,0.0036854711,0.026268005,0.017549131,inf,inf,inf,inf,1,1,1,1,2,1,2,3,0,0,0
170600077,0,0.0,0.0,0.034574684,0.4889597,-0.73450744,0.26472634,0.68447477,-0.254872,0.069440074,-0.07248423,-0.16032496,-0.16126065,-0.0020145755,-0.0010988325,0.0014978752,1.1812565,1.1841404,0.21903001,-3.0788412,0.0,0.798162,0.16032496,0.005296891,0.0036488827,0.02619119,0.017493412,inf,inf,inf,inf,1,1,1,1,2,1,2,3,0,0,0
170704075,0,0.0,0.0,0.0426915,0.47783008,-0.75149083,0.26472634,0.68447477,-0.254872,0.07294265,-0.08366189,-0.16392852,-0.16490641,-0.0020145755,-0.0010988325,0.0014978752,-2.2873256,0.25179496,-0.86132693,-3.0748665,0.0,0.8151454,0.16392852,0.0053652353,0.0036919145,0.02639387,0.017599931,inf,inf,inf,inf,1,1,1,1,2,1,2,3,0,0,0
170808077,0,0.0,0.0,0.051272135,0.46573967,-0.7672054,0.26472634,0.68447477,-0.254872,0.07913477,-0.09780086,-0.14028583,-0.14145137,-0.0020145755,-0.0010988325,0.0014978752,-3.2732925,1.6334851,1.90928,-3.0714202,0.0,0.83085996,0.14028583,0.0054588583,0.003751676,0.02666054,0.0177602,inf,inf,inf,inf,1,1,1,1,2,1,2,3,0,0,0
170904078,0,0.0,0.0,0.059091263,0.4542991,-0.7793363,0.26472634,0.68447477,-0.254872,0.08396017,-0.10295373,-0.11411147,-0.114660844,-0.0020145755,-0.0010988325,0.0014978752,4.5395083,0.23041059,1.0855402,-3.0685105,0.0,0.8429908,0.11411147,0.005357099,0.003686369,0.026322337,0.017574832,inf,inf,inf,inf,1,1,1,1,2,1,2,3,0,0,0
171008082,0,0.0,0.0,0.06690226,0.44171235,-0.78884435,0.26472634,0.68447477,-0.254872,0.08309966,-0.1125199,-0.10185715,-0.100520134,-0.0020145755,-0.0010988325,0.0014978752,2.5966527,-0.5397025,-1.4527051,-3.0655565,0.0,0.8524989,0.10185715,0.00542954,0.0037347872,0.02648834,0.017698541,inf,inf,inf,inf,1,1,1,1,2,1,2,3,0,0,0
171112070,0,0.0,0.0,0.073760465,0.4305133,-0.7941773,0.26472634,0.68447477,-0.254872,0.067138426,-0.08473341,-0.06669593,-0.06254305,-0.0020145755,-0.0010988325,0.0014978752,-1.265288,3.2777247,0.16164586,-3.062434,0.0,0.85783184,0.06669593,0.005135237,0.0035439392,0.025702277,0.017241346,inf,inf,inf,inf,1,1,1,1,2,1,2,3,0,0,0
171208085,0,0.0,0.0,0.078449436,0.4218019,-0.795401,0.26472634,0.68447477,-0.254872,0.06127692,-0.085564874,-0.03358033,-0.026643408,-0.0020145755,-0.0010988325,0.0014978752,3.265714,1.7379953,-1.1895251,-3.0605936,0.0,0.8590555,0.03358033,0.0054418626,0.0037459417,0.026484335,0.017725026,inf,inf,inf,inf,1,1,1,1,2,1,2,3,0,0,0
171312070,0,0.0,0.0,0.081347406,0.41539934,-0.7911744,0.26472634,0.68447477,-0.254872,0.036935773,-0.05209829,0.0042415303,0.014054715,-0.0020145755,-0.0010988325,0.0014978752,-3.2572017,0.6031772,-2.3357449,-3.0577283,0.0,0.85482895,-0.0042415303,0.005141815,0.0035504086,0.02571046,0.017257974,inf,inf,inf,inf,1,1,1,1,2,1,2,3,0,0,0
171416070,0,0.0,0.0,0.08226549,0.41064128,-0.78354585,0.26472634,0.68447477,-0.254872,0.019968932,-0.06407734,0.040223863,0.052638866,-0.0020145755,-0.0010988325,0.0014978752,-0.48312643,-1.7172496,1.2549337,-3.0563402,0.0,0.8472004,-0.040223863,0.0052238083,0.0036052663,0.025887776,0.0173814,inf,inf,inf,inf,1,1,1,1,2,1,2,3,0,0,0
171520070,0,0.0,0.0,0.0813469,0.40719214,-0.7724707,0.26472634,0.68447477,-0.254872,0.00868886,-0.04113825,0.071204126,0.08559904,-0.0020145755,-0.0010988325,0.0014978752,-0.6391788,2.1370559,-0.62959635,-3.0589519,0.0,0.83612525,-0.071204126,0.005279033,0.0036428112,0.02602799,0.01745929,inf,inf,inf,inf,1,1,1,1,2,1,2,3,0,0,0
171616070,0,0.0,0.0,0.07939547,0.40445358,-0.76011735,0.26472634,0.68447477,-0.254872,0.009313735,-0.050438244,0.088873304,0.104294375,-0.0020145755,-0.0010988325,0.0014978752,-1.4430058,3.0135252,0.025524477,-3.064982,0.0,0.8237719,-0.088873304,0.0052065616,0.0035948802,0.025872596,0.017368088,inf,inf,inf,inf,1,1,1,1,2,1,2,3,0,0,0
171720086,0,0.0,0.0,0.07664652,0.40212095,-0.7465275,0.26472634,0.68447477,-0.254872,0.019194761,-0.06331387,0.09696881,0.11258397,-0.0020145755,-0.0010988325,0.0014978752,2.2867522,0.072364554,-0.4339191,-3.075203,0.0,0.81018203,-0.09696881,0.005259274,0.0036297466,0.02599941,0.017441604,inf,inf,inf,inf,1,1,1,1,2,1,2,3,0,0,0
171824070,0,0.0,0.0,0.07335923,0.39841357,-0.7341408,0.26472634,0.68447477,-0.254872,0.0055121724,-0.07738778,0.08992206,0.104545474,-0.0020145755,-0.0010988325,0.0014978752,-0.26716644,-0.56467694,-1.9030567,-3.0841744,0.0,0.79779536,-0.08992206,0.0053499076,0.0036879817,0.0262965,0.017608378,inf,inf,inf,inf,1,1,1,1,2,1,2,3,0,0,0
171920069,0,0.0,0.0,0.0705541,0.3930821,-0.7239093,0.26472634,0.68447477,-0.254872,-0.004048689,-0.07020177,0.09360164,0.10620874,-0.0020145755,-0.0010988325,0.0014978752,-1.2797623,4.1832223,0.4832272,-3.093123,0.0,0.78756386,-0.09360164,0.005273,0.003636839,0.026107272,0.017467923,inf,inf,inf,inf,1,1,1,1,2,1,2,3,0,0,0
172024069,0,0.0,0.0,0.06857723,0.38489756,-0.715305,0.26472634,0.68447477,-0.254872,-0.00095877465,-0.084725246,0.08502738,0.09459326,-0.0020145755,-0.0010988325,0.0014978752,0.07434297,4.088724,-1.7862018,-3.1033182,0.0,0.7789595,-0.08502738,0.005391052,0.0037121167,0.026455553,0.01767347,inf,inf,inf,inf,1,1,1,1,2,1,2,3,0,0,0
172128070,0,0.0,0.0,0.06811572,0.3744451,-0.7087531,0.26472634,0.68447477,-0.254872,-0.009379697,-0.08017267,0.07796325,0.084058784,-0.0020145755,-0.0010988325,0.0014978752,-2.4735155,3.13749,1.3668705,-3.1059372,0.0,0.77240765,-0.07796325,0.00546258,0.0037585907,0.02658371,0.017745204,inf,inf,inf,inf,1,1,1,1,2,1,2,3,0,0,0
172224088,0,0.0,0.0,0.06865968,0.36430284,-0.704118,0.26472634,0.68447477,-0.254872,-0.006851397,-0.09789909,0.0782875,0.08116932,-0.0020145755,-0.0010988325,0.0014978752,2.5753,-1.575257,-0.83818537,-3.1042755,0.0,0.76777256,-0.0782875,0.005394511,0.0037130355,0.026447821,0.01765624,inf,inf,inf,inf,1,1,1,1,2,1,2,3,0,0,0
172328078,0,0.0,0.0,0.06930793,0.35286152,-0.7000863,0.26472634,0.68447477,-0.254872,-0.014957331,-0.08010612,0.07187893,0.07179651,-0.0020145755,-0.0010988325,0.0014978752,1.283919,-2.6187568,1.4726632,-3.0997148,0.0,0.76374084,-0.07187893,0.005482487,0.0037697894,0.02666342,0.017785449,inf,inf,inf,inf,1,1,1,1,2,1,2,3,0,0,0
172432070,0,0.0,0.0,0.06930229,0.34380203,-0.6975498,0.26472634,0.68447477,-0.254872,-0.0124819195,-0.058795877,0.041477166,0.03920016,-0.0020145755,-0.0010988325,0.0014978752,1.6318961,-0.3844304,-0.8148964,-3.094754,0.0,0.76120436,-0.041477166,0.0051745838,0.0035688276,0.025854101,0.017298976,inf,inf,inf,inf,1,1,1,1,2,1,2,3,0,0,0
172528070,0,0.0,0.0,0.06860187,0.33767435,-0.6971786,0.26472634,0.68447477,-0.254872,-0.019114694,-0.04407251,0.028162964,0.024343716,-0.0020145755,-0.0010988325,0.0014978752,-2.1064086,0.27328855,-0.8333463,-3.0914636,0.0,0.76083314,-0.028162964,0.00547041,0.0037620822,0.026610829,0.017759584,inf,inf,inf,inf,1,1,1,1,2,1,2,3,0,0,0
172632076,0,0.0,0.0,0.06653748,0.3346638,-0.69770575,0.26472634,0.68447477,-0.254872,-0.03430337,-0.014801889,0.022001456,0.016654575,-0.0020145755,-0.0010988325,0.0014978752,-1.4718899,3.7538524,-0.16606377,-3.0886319,0.0,0.7613603,-0.022001456,0.0051524187,0.0035541405,0.025801433,0.017249446,inf,inf,inf,inf,1,1,1,1,2,1,2,3,0,0,0
172736099,0,0.0,0.0,0.06307801,0.3357678,-0.6987091,0.26472634,0.68447477,-0.254872,-0.044645995,-0.00229317,0.013993692,0.0074669598,-0.0020145755,-0.0010988325,0.0014978752,-1.3093594,2.3810222,0.28774032,-3.0842361,0.0,0.7623636,-0.013993692,0.0052525564,0.0036182702,0.026105482,0.017439285,inf,inf,inf,inf,1,1,1,1,2,1,2,3,0,0,0
172831304,0,0.0,0.0,0.05853524,0.34031084,-0.69965214,0.26472634,0.68447477,-0.254872,-0.05611228,0.024319706,0.020528795,0.0134258475,-0.0020145755,-0.0010988325,0.0014978752,6.132338,1.193023,-2.111499,-3.0760303,0.0,0.7633067,-0.020528795,0.005151501,0.003553051,0.02576871,0.01724056,inf,inf,inf,inf,1,1,1,1,2,1,2,3,0,0,0
172935276,0,0.0,0.0,0.05161256,0.3477444,-0.6993457,0.26472634,0.68447477,-0.254872,-0.08917414,0.047893748,0.025586663,0.018420905,-0.0020145755,-0.0010988325,0.0014978752,-2.229285,2.4298928,-0.99667805,-3.066062,0.0,0.76300025,-0.025586663,0.0052027716,0.0035869416,0.025900383,0.017325563,inf,inf,inf,inf,1,1,1,1,2,1,2,3,0,0,0
173039307,0,0.0,0.0,0.041487128,0.35746238,-0.6966414,0.26472634,0.68447477,-0.254872,-0.11557825,0.08550744,0.04570107,0.039204873,-0.0020145755,-0.0010988325,0.0014978752,-1.9203712,1.7082106,1.40734,-3.0565114,0.0,0.7602959,-0.04570107,0.0052771275,0.0036354635,0.026108364,0.017457882,inf,inf,inf,inf,1,1,1,1,2,1,2,3,0,0,0
173143272,0,0.0,0.0,0.02869175,0.3690406,-0.6918931,0.26472634,0.68447477,-0.254872,-0.10313366,0.09537514,0.0442454,0.03919345,-0.0020145755,-0.0010988325,0.0014978752,4.0393615,-3.073425,-0.8586222,-3.0489063,0.0,0.75554764,-0.0442454,0.0053568655,0.0036884306,0.026304023,0.017594103,inf,inf,inf,inf,1,1,1,1,2,1,2,3,0,0,0
173239312,0,0.0,0.0,0.015981218,0.38064948,-0.68780786,0.26472634,0.68447477,-0.254872,-0.122181304,0.10762179,0.027240532,0.02387893,-0.0020145755,-0.0010988325,0.0014978752,-3.5276952,-3.5359077,-0.95374244,-3.0431871,0.0,0.7514624,-0.027240532,0.005275636,0.0036364633,0.026075536,0.017462956,inf,inf,inf,inf,1,1,1,1,2,1,2,3,0,0,0
173343293,0,0.0,0.0,0.002160571,0.39513955,-0.6840199,0.26472634,0.68447477,-0.254872,-0.11951314,0.13354412,0.025263067,0.023268664,-0.0020145755,-0.0010988325,0.0014978752,0.021663127,0.9984268,-0.52762103,-3.0388074,0.0,0.74767447,-0.025263067,0.0053771236,0.0037024745,0.026414067,0.017648581,inf,inf,inf,inf,1,1,1,1,2,1,2,3,0,0,0
173447270,0,0.0,0.0,-0.010747064,0.40913934,-0.68057156,0.26472634,0.68447477,-0.254872,-0.11280597,0.113987744,0.02814636,0.026644785,-0.0020145755,-0.0010988325,0.0014978752,-2.50607,-2.32002,2.288169,-3.0345757,0.0,0.7442261,-0.02814636,0.0054746466,0.0037654722,0.026671257,0.017787606,inf,inf,inf,inf,1,1,1,1,2,1,2,3,0,0,0
173543339,0,0.0,0.0,-0.02128751,0.4212416,-0.6773038,0.26472634,0.68447477,-0.254872,-0.0908263,0.10496031,0.03319923,0.031668868,-0.0020145755,-0.0010988325,0.0014978752,4.6335864,-2.2046025,-1.6162041,-3.036833,0.0,0.74095833,-0.03319923,0.0054024803,0.0037177827,0.026463926,0.017668873,inf,inf,inf,inf,1,1,1,1,2,1,2,3,0,0,0
173647300,0,0.0,0.0,-0.029979244,0.4321026,-0.67327505,0.26472634,0.68447477,-0.254872,-0.08034197,0.10965503,0.04681796,0.045299016,-0.0020145755,-0.0010988325,0.0014978752,0.6619201,2.5827765,-0.35200787,-3.0443645,0.0,0.7369296,-0.04681796,0.005114679,0.0035293405,0.025695045,0.017205676,inf,inf,inf,inf,1,1,1,1,2,1,2,3,0,0,0
173751270,0,0.0,0.0,-0.03519712,0.43990928,-0.66743636,0.26472634,0.68447477,-0.254872,-0.05709024,0.07750276,0.055476584,0.054341603,-0.0020145755,-0.0010988325,0.0014978752,-0.12306496,-0.70911837,-0.23326561,-3.0554898,0.0,0.7310909,-0.055476584,0.005187635,0.0035775986,0.02586868,0.017315555,inf,inf,inf,inf,1,1,1,1,2,1,2,3,0,0,0
173847320,0,0.0,0.0,-0.036465116,0.4442313,-0.6613207,0.26472634,0.68447477,-0.254872,-0.03311714,0.059763618,0.05896434,0.058589857,-0.0020145755,-0.0010988325,0.0014978752,2.5530334,0.23831758,1.295311,-3.0686572,0.0,0.7249752,-0.05896434,0.0051704803,0.0035654996,0.025894748,0.017340396,inf,inf,inf,inf,1,1,1,1,2,1,2,3,0,0,0
173951270,0,0.0,0.0,-0.033957537,0.446061,-0.65538645,0.26472634,0.68447477,-0.254872,0.005411846,0.052462373,0.037709016,0.03826805,-0.0020145755,-0.0010988325,0.0014978752,4.4700484,0.7415711,-1.7603676,-3.0827167,0.0,0.719041,-0.037709016,0.005298892,0.003650098,0.02621881,0.017540306,inf,inf,inf,inf,1,1,1,1,2,1,2,3,0,0,0
174055292,0,0.0,0.0,-0.02840854,0.44546258,-0.6504601,0.26472634,0.68447477,-0.254872,0.019576402,0.02657059,0.033506308,0.034436755,-0.0020145755,-0.0010988325,0.0014978752,1.7434398,2.1788807,-0.78043246,-3.0951204,0.0,0.71411467,-0.033506308,0.005390718,0.003710955,0.026415799,0.01765077,inf,inf,inf,inf,1,1,1,1,2,1,2,3,0,0,0
174159277,0,0.0,0.0,-0.02058435,0.44209605,-0.6477446,0.26472634,0.68447477,-0.254872,0.035447847,0.01369526,0.01419352,0.014727319,-0.0020145755,-0.0010988325,0.0014978752,1.9781325,1.8287873,-1.8705215,-3.1047518,0.0,0.71139914,-0.01419352,0.0051104347,0.0035272443,0.025686566,0.017196454,inf,inf,inf,inf,1,1,1,1,2,1,2,3,0,0,0
174263320,0,0.0,0.0,-0.011982475,0.43773425,-0.647656,0.26472634,0.68447477,-0.254872,0.030836558,0.007574415,0.0023540386,0.0018656258,-0.0020145755,-0.0010988325,0.0014978752,-1.2978239,3.7909322,0.6318682,-3.1101604,0.0,0.71131057,-0.0023540386,0.0052054147,0.0035885798,0.025976744,0.017364241,inf,inf,inf,inf,1,1,1,1,2,1,2,3,0,0,0
174359270,0,0.0,0.0,-0.0048825755,0.43426064,-0.64965326,0.26472634,0.68447477,-0.254872,0.027883973,0.004889445,-0.022211486,-0.02403149,-0.0020145755,-0.0010988325,0.0014978752,-0.7420224,-2.3778327,-2.3198833,-3.1120307,0.0,0.7133078,0.022211486,0.0051180753,0.0035314248,0.025718903,0.01719693,inf,inf,inf,inf,1,1,1,1,2,1,2,3,0,0,0
174463308,0,0.0,0.0,0.0011176087,0.43171445,-0.6538397,0.26472634,0.68447477,-0.254872,0.013137834,0.008798309,-0.023169322,-0.026529003,-0.0020145755,-0.0010988325,0.0014978752,-3.0478542,0.8492524,2.3881981,-3.1118145,0.0,0.71749425,0.023169322,0.0051885415,0.0035769485,0.025899842,0.017308243,inf,inf,inf,inf,1,1,1,1,2,1,2,3,0,0,0
174567283,0,0.0,0.0,0.004469359,0.4308871,-0.6591646,0.26472634,0.68447477,-0.254872,0.019725759,0.013865703,-0.025442474,-0.0300321,-0.0020145755,-0.0010988325,0.0014978752,3.7691326,0.6404104,2.2055995,-3.1093545,0.0,0.72281915,0.025442474,0.005253357,0.0036190017,0.026077526,0.01741196,inf,inf,inf,inf,1,1,1,1,2,1,2,3,0,0,0
174663272,0,0.0,0.0,0.004837513,0.4315135,-0.6646238,0.26472634,0.68447477,-0.254872,-0.0012100751,0.02193535,-0.052927032,-0.058130085,-0.0020145755,-0.0010988325,0.0014978752,-4.3838525,1.9614546,-1.9311106,-3.10438,0.0,0.72827834,0.052927032,0.005149167,0.0035513612,0.025757246,0.017228762,inf,inf,inf,inf,1,1,1,1,2,1,2,3,0,0,0
174767270,0,0.0,0.0,0.0028344975,0.43410894,-0.6714677,0.26472634,0.68447477,-0.254872,-0.015315794,0.019545108,-0.051089257,-0.056360647,-0.0020145755,-0.0010988325,0.0014978752,-5.8049226,-1.5280621,1.5658,-3.0970378,0.0,0.73512226,0.051089257,0.005228998,0.003603386,0.02599319,0.017374955,inf,inf,inf,inf,1,1,1,1,2,1,2,3,0,0,0
174871270,0,0.0,0.0,-0.0009450217,0.43799445,-0.67799413,0.26472634,0.68447477,-0.254872,-0.015701205,0.023614401,-0.0539457,-0.058939327,-0.0020145755,-0.0010988325,0.0014978752,-2.7461805,1.4517825,0.37869245,-3.0918067,0.0,0.7416487,0.0539457,0.00533441,0.0036718007,0.026309896,0.017561747,inf,inf,inf,inf,1,1,1,1,2,1,2,3,0,0,0
174967270,0,0.0,0.0,-0.0053629437,0.44199416,-0.68369025,0.26472634,0.68447477,-0.254872,0.0043424317,0.021505518,-0.063762724,-0.06817336,-0.0020145755,-0.0010988325,0.0014978752,2.9251962,3.198673,-3.3494654,-3.0891714,0.0,0.7473448,0.063762724,0.0052684424,0.003629082,0.026101675,0.017453525,inf,inf,inf,inf,1,1,1,1,2,1,2,3,0,0,0
175071276,0,0.0,0.0,-0.009566631,0.44533974,-0.6904513,0.26472634,0.68447477,-0.254872,0.003795661,0.005558013,-0.06858298,-0.07208798,-0.0020145755,-0.0010988325,0.0014978752,0.256585,-0.24001516,-0.653524,-3.0887544,0.0,0.75410587,0.06858298,0.005339704,0.0036763926,0.026263906,0.017553123,inf,inf,inf,inf,1,1,1,1,2,1,2,3,0,0,0
175175270,0,0.0,0.0,-0.012437626,0.44669378,-0.6970051,0.26472634,0.68447477,-0.254872,0.008882717,-0.0043571256,-0.07022772,-0.072845444,-0.0020145755,-0.0010988325,0.0014978752,0.29740214,3.5886304,0.5015264,-3.090533,0.0,0.76065964,0.07022772,0.005421087,0.00372973,0.026494525,0.017684927,inf,inf,inf,inf,1,1,1,1,2,1,2,3,0,0,0
175279334,0,0.0,0.0,-0.013406177,0.4454189,-0.70367324,0.26472634,0.68447477,-0.254872,0.020342104,-0.03168421,-0.060761355,-0.06257535,-0.0020145755,-0.0010988325,0.0014978752,1.3628951,-1.2244408,1.5669354,-3.0931065,0.0,0.7673278,0.060761355,0.0051077954,0.0035252625,0.025664162,0.017185848,inf,inf,inf,inf,1,1,1,1,2,1,2,3,0,0,0
175383302,0,0.0,0.0,-0.01158622,0.44156757,-0.70908475,0.26472634,0.68447477,-0.254872,0.028774617,-0.059823517,-0.05976918,-0.060781445,-0.0020145755,-0.0010988325,0.0014978752,-0.40150118,-5.1404862,-1.5486722,-3.092765,0.0,0.7727393,0.05976918,0.0051800623,0.0035726111,0.025859393,0.017304683,inf,inf,inf,inf,1,1,1,1,2,1,2,3,0,0,0
175482470,0,0.0,0.0,-0.007942668,0.43547827,-0.7127126,0.26472634,0.68447477,-0.254872,0.051265232,-0.0698271,-0.04454321,-0.04456309,-0.0020145755,-0.0010988325,0.0014978752,3.8548415,-0.32693234,-1.3713474,-3.092254,0.0,0.7763671,0.04454321,0.00513365,0.003541749,0.025766412,0.017256625,inf,inf,inf,inf,1,1,1,1,2,1,2,3,0,0,0
175586484,0,0.0,0.0,-0.002819165,0.4272668,-0.71387094,0.26472634,0.68447477,-0.254872,0.042771384,-0.07142241,-0.020030562,-0.01868923,-0.0020145755,-0.0010988325,0.0014978752,1.9309376,-1.2670671,-1.0737745,-3.0895722,0.0,0.7775255,0.020030562,0.0052339146,0.003607671,0.026034782,0.017431736,inf,inf,inf,inf,1,1,1,1,2,1,2,3,0,0,0
175682491,0,0.0,0.0,0.0025164313,0.4190039,-0.7136935,0.26472634,0.68447477,-0.254872,0.035558727,-0.0937112,-0.0136003615,-0.010761024,-0.0020145755,-0.0010988325,0.0014978752,-1.7433159,-3.7406993,0.90371436,-3.085407,0.0,0.77734804,0.0136003615,0.0051638614,0.0035639661,0.025846643,0.017332805,inf,inf,inf,inf,1,1,1,1,2,1,2,3,0,0,0
175786514,0,0.0,0.0,0.00807659,0.40876892,-0.7130464,0.26472634,0.68447477,-0.254872,0.03292409,-0.077894196,-0.024770359,-0.020329759,-0.0020145755,-0.0010988325,0.0014978752,-0.7284693,-2.3286207,1.1616094,-3.0777016,0.0,0.7767009,0.024770359,0.005230585,0.0036090533,0.02599926,0.017432835,inf,inf,inf,inf,1,1,1,1,2,1,2,3,0,0,0
175890504,0,0.0,0.0,0.01316862,0.40059087,-0.7130504,0.26472634,0.68447477,-0.254872,0.03481847,-0.06689732,-0.021211682,-0.015909936,-0.0020145755,-0.0010988325,0.0014978752,3.4876416,0.26190415,-0.53102183,-3.0716674,0.0,0.77670497,0.021211682,0.0053039934,0.003656996,0.026190896,0.017541144,inf,inf,inf,inf,1,1,1,1,2,1,2,3,0,0,0
175986470,0,0.0,0.0,0.017147683,0.39513656,-0.71399605,0.26472634,0.68447477,-0.254872,0.020304462,-0.04428358,-0.02573539,-0.020518737,-0.0020145755,-0.0010988325,0.0014978752,-3.2687697,0.088464126,0.8422403,-3.0650797,0.0,0.7776506,0.02573539,0.0052200495,0.0036014656,0.025958719,0.017378693,inf,inf,inf,inf,1,1,1,1,2,1,2,3,0,0,0
176090475,0,0.0,0.0,0.019722458,0.39272076,-0.71605515,0.26472634,0.68447477,-0.254872,0.013195926,-0.017727204,-0.03318767,-0.028768502,-0.0020145755,-0.0010988325,0.0014978752,-2.8548312,2.203947,0.06372031,-3.056518,0.0,0.7797097,0.03318767,0.005296509,0.00365055,0.026167015,0.017493162,inf,inf,inf,inf,1,1,1,1,2,1,2,3,0,0,0
176194479,0,0.0,0.0,0.020669848,0.39353988,-0.7200489,0.26472634,0.68447477,-0.254872,0.002066657,0.014221349,-0.038095172,-0.034850884,-0.0020145755,-0.0010988325,0.0014978752,1.6645046,0.13060595,1.3486133,-3.0491686,0.0,0.78370345,0.038095172,0.005366764,0.0036956961,0.026340725,0.017595978,inf,inf,inf,inf,1,1,1,1,2,1,2,3,0,0,0
176290477,0,0.0,0.0,0.019658899,0.39757624,-0.7258389,0.26472634,0.68447477,-0.254872,-0.004786177,0.035477616,-0.063090995,-0.0611087,-0.0020145755,-0.0010988325,0.0014978752,1.2739174,2.4255528,-1.2572825,-3.0449755,0.0,0.78949344,0.063090995,0.005280569,0.003638659,0.026124261,0.01745821,inf,inf,inf,inf,1,1,1,1,2,1,2,3,0,0,0
176394491,0,0.0,0.0,0.017661111,0.40502453,-0.73416,0.26472634,0.68447477,-0.254872,0.0011923884,0.043945618,-0.06966824,-0.069168136,-0.0020145755,-0.0010988325,0.0014978752,2.7052035,-4.120552,-0.7558871,-3.045414,0.0,0.79781455,0.06966824,0.00534296,0.0036788385,0.02628712,0.01755314,inf,inf,inf,inf,1,1,1,1,2,1,2,3,0,0,0
