timestamp,ref_timestamp,ref_lat,ref_lon,x,y,z,delta_xy[0],delta_xy[1],delta_z,vx,vy,vz,z_deriv,delta_vxy[0],delta_vxy[1],delta_vz,ax,ay,az,yaw,ref_alt,dist_bottom,dist_bottom_rate,eph,epv,evh,evv,vxy_max,vz_max,hagl_min,hagl_max,xy_valid,z_valid,v_xy_valid,v_z_valid,xy_reset_counter,z_reset_counter,vxy_reset_counter,vz_reset_counter,xy_global,z_global,dist_bottom_valid
22094670,0,0.0,0.0,0.23951873,0.616126,-0.035175633,0.24050389,0.60899144,-0.2548081,0.0018055247,0.0001733594,0.019820651,0.007239329,0.0008437185,-0.003844313,0.00022075027,-0.0023789757,0.0051703868,0.0473521,3.1213267,0.0,0.1006636,-0.019820651,0.005739381,0.003923709,0.026999662,0.017738555,inf,inf,inf,inf,1,1,1,1,2,1,2,3,0,0,0
22190676,0,0.0,0.0,0.23956823,0.61598295,-0.03522319,0.24050389,0.60899144,-0.2548081,0.0018722351,0.0002227485,0.019155493,0.0063494635,0.0008437185,-0.003844313,0.00022075027,-0.021220667,-0.0027382765,0.048223715,3.1213436,0.0,0.10026327,-0.019155493,0.005128099,0.0035224427,0.025942924,0.017120566,inf,inf,inf,inf,1,1,1,1,2,1,2,3,0,0,0
22293875,0,0.0,0.0,0.23956756,0.61589664,-0.03529797,0.24050389,0.60899144,-0.2548081,0.0013464711,0.00038975297,0.018812895,0.0058832155,0.0008437185,-0.003844313,0.00022075027,-0.0035549374,-0.0040616384,0.052022085,3.121343,0.0,0.1003529,-0.018812895,0.00517696,0.003549287,0.026231537,0.017289441,inf,inf,inf,inf,1,1,1,1,2,1,2,3,0,0,0
22397910,0,0.0,0.0,0.23950699,0.61583793,-0.035264097,0.24050389,0.60899144,-0.2548081,0.0010982023,5.5204764e-05,0.019696387,0.006721086,0.0008437185,-0.003844313,0.00022075027,-0.0020732915,0.012178667,0.04025176,3.121366,0.0,0.10033506,-0.019696387,0.0052362364,0.0035853933,0.02637686,0.017372712,inf,inf,inf,inf,1,1,1,1,2,1,2,3,0,0,0
22501870,0,0.0,0.0,0.23942137,0.6157948,-0.035180334,0.24050389,0.60899144,-0.2548081,0.00016301665,-0.0019252743,0.020405518,0.007406086,0.0008437185,-0.003844313,0.00022075027,0.12744936,-0.5533141,0.1016156,3.1213214,0.0,0.10022923,-0.020405518,0.005138078,0.003517876,0.026268294,0.017312322,inf,inf,inf,inf,1,1,1,1,2,1,2,3,0,0,0
22605869,0,0.0,0.0,0.23929754,0.61580026,-0.03490286,0.24050389,0.60899144,-0.2548081,-8.358158e-05,0.0012347612,0.02125063,0.0083227,0.0008437185,-0.003844313,0.00022075027,-0.025016434,-0.09190206,0.025213255,3.1229572,0.0,0.10022342,-0.02125063,0.0053547258,0.0036566749,0.026769402,0.017607575,inf,inf,inf,inf,1,1,1,1,2,1,2,3,0,0,0
22701891,0,0.0,0.0,0.23914403,0.61572945,-0.034583483,0.24050389,0.60899144,-0.2548081,0.0006347388,-0.0017423223,0.020471636,0.007628937,0.0008437185,-0.003844313,0.00022075027,-0.026489269,-0.12084442,-0.018661862,3.1223302,0.0,0.1,-0.020471636,0.005322571,0.0036394808,0.026497632,0.01745595,inf,inf,inf,inf,1,1,1,1,2,1,2,3,0,0,0
22805104,0,0.0,0.0,0.2390291,0.6157527,-0.034318678,0.24050389,0.60899144,-0.2548081,0.00011498916,0.0011774882,0.020125512,0.007325755,0.0008437185,-0.003844313,0.00022075027,0.11050295,0.24902973,0.060134515,3.1209223,0.0,0.1,-0.020125512,0.0050936635,0.0034933647,0.025879309,0.017098343,inf,inf,inf,inf,1,1,1,1,2,1,2,3,0,0,0
22909076,0,0.0,0.0,0.23884042,0.6157634,-0.034080245,0.24050389,0.60899144,-0.2548081,-0.0020951135,0.0029316265,0.02004059,0.00722758,0.0008437185,-0.003844313,0.00022075027,-0.17000733,0.5792941,-0.16994007,3.1206048,0.0,0.1,-0.02004059,0.005226032,0.0035791262,0.026208736,0.017292209,inf,inf,inf,inf,1,1,1,1,2,1,2,3,0,0,0
23013070,0,0.0,0.0,0.23863298,0.616085,-0.033988267,0.24050389,0.60899144,-0.2548081,-0.0016853362,-0.0010866936,0.018378157,0.0054849833,0.0008437185,-0.003844313,0.00022075027,-0.66265786,-0.37337908,0.061100278,3.1213474,0.0,0.1,-0.018378157,0.0053885644,0.0036820115,0.026697524,0.017575197,inf,inf,inf,inf,1,1,1,1,2,1,2,3,0,0,0
23109115,0,0.0,0.0,0.23848361,0.6161296,-0.033988956,0.24050389,0.60899144,-0.2548081,-0.0006796114,0.0027613526,0.018982647,0.0059736175,0.0008437185,-0.003844313,0.00022075027,0.15692203,-0.5151862,0.15079774,3.1223476,0.0,0.1,-0.018982647,0.005145611,0.0035233996,0.026207527,0.017289588,inf,inf,inf,inf,1,1,1,1,2,1,2,3,0,0,0
23213080,0,0.0,0.0,0.23831387,0.616285,-0.03407501,0.24050389,0.60899144,-0.2548081,0.00029663314,0.0012468353,0.017856559,0.0047671446,0.0008437185,-0.003844313,0.00022075027,0.5842162,0.75045633,-0.21226388,3.1224933,0.0,0.1,-0.017856559,0.0051148627,0.0035020846,0.02616251,0.01726715,inf,inf,inf,inf,1,1,1,1,2,1,2,3,0,0,0
23312270,0,0.0,0.0,0.23813932,0.6163431,-0.03407905,0.24050389,0.60899144,-0.2548081,-0.002287477,0.0022608738,0.01867283,0.0055713793,0.0008437185,-0.003844313,0.00022075027,0.10070313,0.1811396,-0.061957706,3.1245587,0.0,0.1,-0.01867283,0.0052928985,0.0036155195,0.026637372,0.017546693,inf,inf,inf,inf,1,1,1,1,2,1,2,3,0,0,0
23416270,0,0.0,0.0,0.23812053,0.6162508,-0.03414432,0.24050389,0.60899144,-0.2548081,-0.00024056478,-0.00032811554,0.018337063,0.0052725696,0.0008437185,-0.003844313,0.00022075027,0.39066133,0.8738301,-0.09117919,3.1233134,0.0,0.1,-0.018337063,0.0052733007,0.0036049425,0.0266925,0.017602576,inf,inf,inf,inf,1,1,1,1,2,1,2,3,0,0,0
23520280,0,0.0,0.0,0.23803832,0.61624056,-0.034236055,0.24050389,0.60899144,-0.2548081,-0.00223066,0.0036167344,0.016850427,0.003865064,0.0008437185,-0.003844313,0.00022075027,-0.5866888,0.8957193,-0.20613082,3.1214025,0.0,0.1,-0.016850427,0.005099918,0.0034971433,0.026015053,0.017207386,inf,inf,inf,inf,1,1,1,1,2,1,2,3,0,0,0
23624307,0,0.0,0.0,0.23796977,0.6161487,-0.03431276,0.24050389,0.60899144,-0.2548081,-0.002186487,0.0025510322,0.017448349,0.0045576636,0.0008437185,-0.003844313,0.00022075027,0.4665565,-0.07817371,-0.073736764,3.1227212,0.0,0.1,-0.017448349,0.0052716513,0.0036093122,0.026365498,0.01741109,inf,inf,inf,inf,1,1,1,1,2,1,2,3,0,0,0
23720317,0,0.0,0.0,0.23793197,0.6161038,-0.034252025,0.24050389,0.60899144,-0.2548081,0.00016017162,-0.0005549075,0.018841637,0.0060609193,0.0008437185,-0.003844313,0.00022075027,0.2668588,0.1473867,-0.25408715,3.122752,0.0,0.1,-0.018841637,0.0052603562,0.0036032954,0.026276479,0.017355064,inf,inf,inf,inf,1,1,1,1,2,1,2,3,0,0,0
23823469,0,0.0,0.0,0.23787166,0.6160205,-0.03410021,0.24050389,0.60899144,-0.2548081,-0.0032222986,0.0014701608,0.019848146,0.0072171255,0.0008437185,-0.003844313,0.00022075027,-0.41869912,0.65181977,-0.110726856,3.121945,0.0,0.1,-0.019848146,0.0053520794,0.0036636076,0.026455885,0.017455807,inf,inf,inf,inf,1,1,1,1,2,1,2,3,0,0,0
23927476,0,0.0,0.0,0.23783165,0.6159665,-0.033829547,0.24050389,0.60899144,-0.2548081,-0.0036287413,0.0035856736,0.019148573,0.0065973257,0.0008437185,-0.003844313,0.00022075027,-0.8612867,0.649532,-0.27553275,3.122484,0.0,0.1,-0.019148573,0.005130211,0.0035191712,0.025977917,0.017172003,inf,inf,inf,inf,1,1,1,1,2,1,2,3,0,0,0
24031470,0,0.0,0.0,0.23776351,0.61593556,-0.033610784,0.24050389,0.60899144,-0.2548081,-0.0024792028,-9.971311e-05,0.018719384,0.006211596,0.0008437185,-0.003844313,0.00022075027,0.105474085,-0.4197505,-0.10915386,3.122356,0.0,0.1,-0.018719384,0.004995467,0.0034297265,0.025698358,0.017001892,inf,inf,inf,inf,1,1,1,1,2,1,2,3,0,0,0
24135470,0,0.0,0.0,0.23778163,0.61593294,-0.033443596,0.24050389,0.60899144,-0.2548081,0.00026588136,0.00060987636,0.01921742,0.0067417994,0.0008437185,-0.003844313,0.00022075027,0.5903766,-0.8471277,0.256589,3.122179,0.0,0.1,-0.01921742,0.0051396675,0.0035241058,0.025971096,0.017163968,inf,inf,inf,inf,1,1,1,1,2,1,2,3,0,0,0
24231491,0,0.0,0.0,0.2377543,0.61592674,-0.033198632,0.24050389,0.60899144,-0.2548081,-0.0025533417,0.0016450175,0.020625819,0.008130669,0.0008437185,-0.003844313,0.00022075027,-0.26814866,0.9486515,-0.26172897,3.122642,0.0,0.1,-0.020625819,0.005487694,0.0037482795,0.026843887,0.017674474,inf,inf,inf,inf,1,1,1,1,2,1,2,3,0,0,0
24334670,0,0.0,0.0,0.23768145,0.6160935,-0.033002988,0.24050389,0.60899144,-0.2548081,-0.0042036604,0.0046011177,0.020626688,0.008056517,0.0008437185,-0.003844313,0.00022075027,-0.17561026,1.2590665,-0.3089145,3.122313,0.0,0.1,-0.020626688,0.005244525,0.0035921189,0.026249856,0.017331583,inf,inf,inf,inf,1,1,1,1,2,1,2,3,0,0,0
24438676,0,0.0,0.0,0.23754977,0.61626786,-0.03289615,0.24050389,0.60899144,-0.2548081,-0.0035105336,0.005162775,0.018884609,0.0062361034,0.0008437185,-0.003844313,0.00022075027,0.2224522,0.652456,-0.15145963,3.12235,0.0,0.1,-0.018884609,0.005063024,0.0034741354,0.0258049,0.017067896,inf,inf,inf,inf,1,1,1,1,2,1,2,3,0,0,0
24542670,0,0.0,0.0,0.2373222,0.6164259,-0.032846678,0.24050389,0.60899144,-0.2548081,-0.0018214096,0.0026097135,0.018866504,0.0061485698,0.0008437185,-0.003844313,0.00022075027,0.8819597,0.35507601,0.2195871,3.122623,0.0,0.1,-0.018866504,0.005233313,0.003583998,0.026236622,0.01732326,inf,inf,inf,inf,1,1,1,1,2,1,2,3,0,0,0
24638670,0,0.0,0.0,0.2371298,0.6165328,-0.03287849,0.24050389,0.60899144,-0.2548081,-0.005259048,0.0036781686,0.01789391,0.0050755106,0.0008437185,-0.003844313,0.00022075027,-0.38101134,1.3771163,-0.43483993,3.1216574,0.0,0.1,-0.01789391,0.004972459,0.0034145853,0.02561483,0.016961839,inf,inf,inf,inf,1,1,1,1,2,1,2,3,0,0,0
24741876,0,0.0,0.0,0.2369339,0.61644846,-0.032988936,0.24050389,0.60899144,-0.2548081,-0.0060141236,0.003606877,0.017511772,0.004589976,0.0008437185,-0.003844313,0.00022075027,-0.52677613,0.8041407,-0.30909625,3.1212535,0.0,0.1,-0.017511772,0.004995514,0.0034259015,0.025853403,0.01710212,inf,inf,inf,inf,1,1,1,1,2,1,2,3,0,0,0
24845880,0,0.0,0.0,0.23668474,0.6162727,-0.033056956,0.24050389,0.60899144,-0.2548081,-0.0047964896,-0.0032187884,0.017929386,0.0049883723,0.0008437185,-0.003844313,0.00022075027,0.331979,-0.52320963,-0.025165282,3.121971,0.0,0.1,-0.017929386,0.0049867737,0.0034204302,0.025771687,0.017057164,inf,inf,inf,inf,1,1,1,1,2,1,2,3,0,0,0
24941888,0,0.0,0.0,0.23647824,0.6160731,-0.033167407,0.24050389,0.60899144,-0.2548081,-0.0053701536,-0.0013292417,0.018852353,0.0059249443,0.0008437185,-0.003844313,0.00022075027,0.23911814,0.161008,-0.2036436,3.121947,0.0,0.1,-0.018852353,0.005106059,0.003498529,0.025993597,0.017187594,inf,inf,inf,inf,1,1,1,1,2,1,2,3,0,0,0
25045883,0,0.0,0.0,0.2362393,0.61586255,-0.033189204,0.24050389,0.60899144,-0.2548081,-0.0057362034,0.0024372432,0.01825375,0.0053788777,0.0008437185,-0.003844313,0.00022075027,0.33526698,1.3417542,-0.3635315,3.1227658,0.0,0.1,-0.01825375,0.0049882927,0.0034250095,0.025562786,0.016936235,inf,inf,inf,inf,1,1,1,1,2,1,2,3,0,0,0
25149870,0,0.0,0.0,0.23599713,0.6156354,-0.033247977,0.24050389,0.60899144,-0.2548081,-0.008018357,0.0013063243,0.017241023,0.0044123675,0.0008437185,-0.003844313,0.00022075027,-0.50793356,1.1027826,-0.17630035,3.1219153,0.0,0.1,-0.017241023,0.0052379584,0.0035855754,0.02628028,0.017360322,inf,inf,inf,inf,1,1,1,1,2,1,2,3,0,0,0
25245878,0,0.0,0.0,0.23581791,0.61561453,-0.033259936,0.24050389,0.60899144,-0.2548081,-0.005660104,0.00020589746,0.018862672,0.0061181644,0.0008437185,-0.003844313,0.00022075027,0.70612943,0.04523185,0.20848654,3.1223428,0.0,0.1,-0.018862672,0.0052815694,0.00361536,0.026320457,0.017387375,inf,inf,inf,inf,1,1,1,1,2,1,2,3,0,0,0
25349074,0,0.0,0.0,0.23578735,0.61563474,-0.033259828,0.24050389,0.60899144,-0.2548081,-0.0046432493,-0.0016702306,0.01957054,0.006900085,0.0008437185,-0.003844313,0.00022075027,0.9032355,-0.10384313,0.08456131,3.1220913,0.0,0.1,-0.01957054,0.0050580343,0.0034734313,0.025656743,0.016999431,inf,inf,inf,inf,1,1,1,1,2,1,2,3,0,0,0
25453069,0,0.0,0.0,0.23584127,0.6157184,-0.033298127,0.24050389,0.60899144,-0.2548081,-0.0054065487,-0.0024403525,0.019570163,0.006936889,0.0008437185,-0.003844313,0.00022075027,-0.038783062,-0.67522675,0.29550534,3.1218238,0.0,0.1,-0.019570163,0.0049457303,0.003398568,0.025482323,0.016891792,inf,inf,inf,inf,1,1,1,1,2,1,2,3,0,0,0
25557076,0,0.0,0.0,0.23601541,0.6159283,-0.033366352,0.24050389,0.60899144,-0.2548081,-0.0050852676,0.00047637173,0.017880648,0.005296331,0.0008437185,-0.003844313,0.00022075027,-0.08290633,-0.20471741,0.38737586,3.1221578,0.0,0.1,-0.017880648,0.0049066944,0.00337131,0.025475359,0.01688937,inf,inf,inf,inf,1,1,1,1,2,1,2,3,0,0,0
25661072,0,0.0,0.0,0.236289,0.61611897,-0.033413254,0.24050389,0.60899144,-0.2548081,-0.004014591,0.0013711024,0.019239884,0.00672618,0.0008437185,-0.003844313,0.00022075027,-0.24674104,-0.64947116,0.025442071,3.1222773,0.0,0.1,-0.019239884,0.005200439,0.0035602662,0.026258776,0.01735104,inf,inf,inf,inf,1,1,1,1,2,1,2,3,0,0,0
25760308,0,0.0,0.0,0.23648852,0.61631334,-0.033320628,0.24050389,0.60899144,-0.2548081,-0.0043708384,-0.0009246535,0.020270647,0.00782958,0.0008437185,-0.003844313,0.00022075027,0.39418468,-0.7913309,0.11768468,3.1221626,0.0,0.1,-0.020270647,0.0053068176,0.0036296842,0.02647109,0.017479194,inf,inf,inf,inf,1,1,1,1,2,1,2,3,0,0,0
25864339,0,0.0,0.0,0.23675656,0.6165947,-0.03331752,0.24050389,0.60899144,-0.2548081,-0.0023796125,0.0016971328,0.017670194,0.0053112935,0.0008437185,-0.003844313,0.00022075027,0.85398066,-0.49840137,0.08868029,3.122307,0.0,0.1,-0.017670194,0.0051882304,0.0035544597,0.026128976,0.017281048,inf,inf,inf,inf,1,1,1,1,2,1,2,3,0,0,0
25960271,0,0.0,0.0,0.23698892,0.61672413,-0.033377346,0.24050389,0.60899144,-0.2548081,-0.005442,0.002646945,0.016844472,0.0045420676,0.0008437185,-0.003844313,0.00022075027,-1.3048197,0.7029389,-0.07273786,3.1216865,0.0,0.1,-0.016844472,0.0050475476,0.0034627025,0.02601883,0.017237196,inf,inf,inf,inf,1,1,1,1,2,1,2,3,0,0,0
26064309,0,0.0,0.0,0.23715392,0.6170008,-0.033459514,0.24050389,0.60899144,-0.2548081,-0.004038957,0.00092121103,0.017541844,0.0053539416,0.0008437185,-0.003844313,0.00022075027,0.08781846,0.2688907,-0.08604762,3.121944,0.0,0.1,-0.017541844,0.00528618,0.003618475,0.026473,0.017504865,inf,inf,inf,inf,1,1,1,1,2,1,2,3,0,0,0
26168270,0,0.0,0.0,0.23737046,0.6171344,-0.03356229,0.24050389,0.60899144,-0.2548081,-0.002858594,0.0042895116,0.01798783,0.0059019346,0.0008437185,-0.003844313,0.00022075027,-0.13118583,0.82672536,0.22369109,3.122194,0.0,0.1,-0.01798783,0.005083109,0.0034904408,0.025769902,0.017087404,inf,inf,inf,inf,1,1,1,1,2,1,2,3,0,0,0
26263489,0,0.0,0.0,0.2375075,0.61729825,-0.033697855,0.24050389,0.60899144,-0.2548081,0.00013962446,0.00058695424,0.017296359,0.005308674,0.0008437185,-0.003844313,0.00022075027,0.92178863,-1.0648056,0.19260122,3.1224365,0.0,0.1,-0.017296359,0.0050894953,0.0034953821,0.025748987,0.017070355,inf,inf,inf,inf,1,1,1,1,2,1,2,3,0,0,0
26367470,0,0.0,0.0,0.23770994,0.61725867,-0.03376505,0.24050389,0.60899144,-0.2548081,0.0007592598,-0.00041501096,0.017528437,0.005650598,0.0008437185,-0.003844313,0.00022075027,1.0425698,-0.43205708,-0.072167106,3.1223335,0.0,0.1,-0.017528437,0.005261551,0.0036052987,0.02627483,0.017374104,inf,inf,inf,inf,1,1,1,1,2,1,2,3,0,0,0
26471470,0,0.0,0.0,0.23794006,0.61711544,-0.03380097,0.24050389,0.60899144,-0.2548081,0.0013018157,-0.003938656,0.017428229,0.005666902,0.0008437185,-0.003844313,0.00022075027,0.37676832,-1.0409743,-0.24001397,3.121761,0.0,0.1,-0.017428229,0.005054499,0.0034717456,0.025684964,0.017020263,inf,inf,inf,inf,1,1,1,1,2,1,2,3,0,0,0
26575474,0,0.0,0.0,0.23811987,0.616929,-0.033742376,0.24050389,0.60899144,-0.2548081,4.9840135e-05,-0.0025013476,0.017877935,0.0062652333,0.0008437185,-0.003844313,0.00022075027,-0.24314916,-0.5236671,-0.08637591,3.1217551,0.0,0.1,-0.017877935,0.0051405337,0.0035289717,0.025820807,0.0171009,inf,inf,inf,inf,1,1,1,1,2,1,2,3,0,0,0
26679470,0,0.0,0.0,0.23828514,0.6167118,-0.03360655,0.24050389,0.60899144,-0.2548081,-0.0024263617,0.0021178678,0.018633798,0.007117525,0.0008437185,-0.003844313,0.00022075027,-0.9603546,0.6168369,-0.17614287,3.1222205,0.0,0.1,-0.018633798,0.0052550905,0.0036024128,0.026162524,0.017301826,inf,inf,inf,inf,1,1,1,1,2,1,2,3,0,0,0
26782693,0,0.0,0.0,0.23847696,0.61653346,-0.033443376,0.24050389,0.60899144,-0.2548081,-0.0011211948,-0.0015570424,0.018972762,0.0075518754,0.0008437185,-0.003844313,0.00022075027,-0.79800826,1.0516818,0.109649785,3.1215374,0.0,0.1,-0.018972762,0.0053415443,0.0036585613,0.026370406,0.017425464,inf,inf,inf,inf,1,1,1,1,2,1,2,3,0,0,0
26878670,0,0.0,0.0,0.23860024,0.6165115,-0.033274483,0.24050389,0.60899144,-0.2548081,0.0009855949,-0.00072635576,0.019294657,0.007926474,0.0008437185,-0.003844313,0.00022075027,0.59868175,-0.6557009,0.07214018,3.121839,0.0,0.1,-0.019294657,0.005246334,0.0035979897,0.026106592,0.017270988,inf,inf,inf,inf,1,1,1,1,2,1,2,3,0,0,0
26982672,0,0.0,0.0,0.23873623,0.61641324,-0.033149585,0.24050389,0.60899144,-0.2548081,0.001974115,0.0013028033,0.01927737,0.007921173,0.0008437185,-0.003844313,0.00022075027,0.7091047,-0.18057811,0.26134428,3.121713,0.0,0.1,-0.01927737,0.0049688383,0.0034180533,0.025396647,0.016850125,inf,inf,inf,inf,1,1,1,1,2,1,2,3,0,0,0
27086686,0,0.0,0.0,0.2388042,0.6164828,-0.03308465,0.24050389,0.60899144,-0.2548081,0.0022118576,-0.0004588996,0.017381584,0.0059614168,0.0008437185,-0.003844313,0.00022075027,0.6208722,-0.61902285,-0.21905915,3.1216109,0.0,0.1,-0.017381584,0.0048799715,0.0033562067,0.02539677,0.016851168,inf,inf,inf,inf,1,1,1,1,2,1,2,3,0,0,0
27190670,0,0.0,0.0,0.23885809,0.6166384,-0.032978315,0.24050389,0.60899144,-0.2548081,0.0007386638,-0.0015112119,0.02033756,0.008867057,0.0008437185,-0.003844313,0.00022075027,-0.11557761,-1.6727304,0.4599946,3.1217468,0.0,0.1,-0.02033756,0.005217826,0.003571032,0.02640963,0.017448567,inf,inf,inf,inf,1,1,1,1,2,1,2,3,0,0,0
27293917,0,0.0,0.0,0.23880574,0.6167613,-0.032796763,0.24050389,0.60899144,-0.2548081,0.0013606889,0.001208926,0.0191475,0.0076867077,0.0008437185,-0.003844313,0.00022075027,0.17256425,-0.29775977,0.06684195,3.1219015,0.0,0.1,-0.0191475,0.0050905915,0.003492275,0.025848161,0.017123103,inf,inf,inf,inf,1,1,1,1,2,1,2,3,0,0,0
27397870,0,0.0,0.0,0.23869005,0.61680377,-0.032584433,0.24050389,0.60899144,-0.2548081,-0.00022022318,2.4435758e-06,0.020599796,0.009117378,0.0008437185,-0.003844313,0.00022075027,0.112246364,-0.10131673,0.021315092,3.1218717,0.0,0.1,-0.020599796,0.00527164,0.003610428,0.026272677,0.017377038,inf,inf,inf,inf,1,1,1,1,2,1,2,3,0,0,0
27493888,0,0.0,0.0,0.23857683,0.616882,-0.032397866,0.24050389,0.60899144,-0.2548081,0.0014111071,0.0005365017,0.018873895,0.007351594,0.0008437185,-0.003844313,0.00022075027,0.08336391,-0.053393945,0.20641926,3.1218448,0.0,0.1,-0.018873895,0.0052642627,0.0036070622,0.026185894,0.017322054,inf,inf,inf,inf,1,1,1,1,2,1,2,3,0,0,0
27597909,0,0.0,0.0,0.23846497,0.6169077,-0.032245114,0.24050389,0.60899144,-0.2548081,-0.0013539982,-0.0009669972,0.02012494,0.00852126,0.0008437185,-0.003844313,0.00022075027,-0.7038249,-0.6064951,0.35213405,3.121554,0.0,0.1,-0.02012494,0.0050458973,0.0034670972,0.02558983,0.016973399,inf,inf,inf,inf,1,1,1,1,2,1,2,3,0,0,0
27701870,0,0.0,0.0,0.2384042,0.6169131,-0.03219884,0.24050389,0.60899144,-0.2548081,6.057373e-05,0.0033327164,0.018934697,0.007226436,0.0008437185,-0.003844313,0.00022075027,-0.2957693,0.9248523,0.25481522,3.1216938,0.0,0.1,-0.018934697,0.0049232915,0.0033856537,0.025399823,0.0168611,inf,inf,inf,inf,1,1,1,1,2,1,2,3,0,0,0
27797890,0,0.0,0.0,0.23832965,0.61690384,-0.032236427,0.24050389,0.60899144,-0.2548081,0.00012284165,0.00248309,0.017691216,0.005887293,0.0008437185,-0.003844313,0.00022075027,0.42567903,0.77171385,-0.40567738,3.1218717,0.0,0.1,-0.017691216,0.0050395303,0.0034589395,0.025815371,0.017103758,inf,inf,inf,inf,1,1,1,1,2,1,2,3,0,0,0
27901081,0,0.0,0.0,0.23829648,0.6167746,-0.03237109,0.24050389,0.60899144,-0.2548081,0.0022338685,0.0012844347,0.017140714,0.005219884,0.0008437185,-0.003844313,0.00022075027,1.0523753,0.25282934,-0.054279853,3.121675,0.0,0.1,-0.017140714,0.0048079877,0.0033055453,0.025335897,0.016820624,inf,inf,inf,inf,1,1,1,1,2,1,2,3,0,0,0
28005075,0,0.0,0.0,0.23831747,0.6165745,-0.03245966,0.24050389,0.60899144,-0.2548081,0.0012876417,-0.0011543358,0.017561022,0.0056001423,0.0008437185,-0.003844313,0.00022075027,0.26397204,-0.80094105,-0.20262514,3.1215916,0.0,0.1,-0.017561022,0.0051678633,0.0035376556,0.026229233,0.017345889,inf,inf,inf,inf,1,1,1,1,2,1,2,3,0,0,0
28109093,0,0.0,0.0,0.23830865,0.616388,-0.03246056,0.24050389,0.60899144,-0.2548081,0.0012829646,0.00022438457,0.018037755,0.0061043478,0.0008437185,-0.003844313,0.00022075027,0.42453393,0.0666584,-0.31659856,3.1217868,0.0,0.1,-0.018037755,0.005384528,0.0036818981,0.026534319,0.017527822,inf,inf,inf,inf,1,1,1,1,2,1,2,3,0,0,0
28213084,0,0.0,0.0,0.23836425,0.6162846,-0.0324799,0.24050389,0.60899144,-0.2548081,0.0023498395,-0.003394783,0.017239764,0.0052926512,0.0008437185,-0.003844313,0.00022075027,0.5083445,-1.2229371,0.22048278,3.1216164,0.0,0.1,-0.017239764,0.0051967544,0.0035630066,0.026015488,0.0172259,inf,inf,inf,inf,1,1,1,1,2,1,2,3,0,0,0
28308270,0,0.0,0.0,0.23841305,0.6161847,-0.0324358,0.24050389,0.60899144,-0.2548081,-0.0008117868,0.0013834407,0.019010965,0.0070656077,0.0008437185,-0.003844313,0.00022075027,-0.70683193,0.4558191,-0.14555262,3.1216395,0.0,0.1,-0.019010965,0.0052886675,0.0036213417,0.026334861,0.017414311,inf,inf,inf,inf,1,1,1,1,2,1,2,3,0,0,0
28412276,0,0.0,0.0,0.23846422,0.6161514,-0.032404732,0.24050389,0.60899144,-0.2548081,0.0013123435,-0.00027308663,0.017858895,0.005926524,0.0008437185,-0.003844313,0.00022075027,0.055226322,0.78942424,-0.033357862,3.1218164,0.0,0.1,-0.017858895,0.005124574,0.0035164126,0.025879038,0.017147036,inf,inf,inf,inf,1,1,1,1,2,1,2,3,0,0,0
28516270,0,0.0,0.0,0.23841144,0.61616987,-0.03238647,0.24050389,0.60899144,-0.2548081,0.00031492274,0.00083762995,0.017004052,0.0050630295,0.0008437185,-0.003844313,0.00022075027,0.06805387,0.6971231,-0.42106584,3.121603,0.0,0.1,-0.017004052,0.00504525,0.0034636396,0.025730472,0.017056618,inf,inf,inf,inf,1,1,1,1,2,1,2,3,0,0,0
28620286,0,0.0,0.0,0.23833875,0.6161683,-0.03245175,0.24050389,0.60899144,-0.2548081,0.00010863764,-0.0026581073,0.016916249,0.004968231,0.0008437185,-0.003844313,0.00022075027,0.39882287,-1.0758095,0.01831413,3.1214626,0.0,0.1,-0.016916249,0.0049621277,0.0034095992,0.025520649,0.016933655,inf,inf,inf,inf,1,1,1,1,2,1,2,3,0,0,0
28724301,0,0.0,0.0,0.23813546,0.6161887,-0.032486252,0.24050389,0.60899144,-0.2548081,0.002023806,-0.0040255873,0.018516522,0.0065688924,0.0008437185,-0.003844313,0.00022075027,0.880588,-1.055824,0.3313548,3.1217334,0.0,0.1,-0.018516522,0.0052051125,0.0035668253,0.026144862,0.017302513,inf,inf,inf,inf,1,1,1,1,2,1,2,3,0,0,0
28823470,0,0.0,0.0,0.23790981,0.61617184,-0.03254669,0.24050389,0.60899144,-0.2548081,-0.0010268665,-0.00012661544,0.015912348,0.003936727,0.0008437185,-0.003844313,0.00022075027,0.87603146,-0.0029613401,-0.16139266,3.1214328,0.0,0.1,-0.015912348,0.0050124424,0.0034411459,0.025714066,0.017052671,inf,inf,inf,inf,1,1,1,1,2,1,2,3,0,0,0
28927470,0,0.0,0.0,0.23761491,0.61607367,-0.032735728,0.24050389,0.60899144,-0.2548081,-0.0025124983,-0.00065060786,0.016568683,0.0046224045,0.0008437185,-0.003844313,0.00022075027,-0.000330202,-0.1067194,-0.15986666,3.1213374,0.0,0.1,-0.016568683,0.0052777654,0.0036133924,0.026333142,0.017415367,inf,inf,inf,inf,1,1,1,1,2,1,2,3,0,0,0
29023475,0,0.0,0.0,0.23730056,0.61606663,-0.032903317,0.24050389,0.60899144,-0.2548081,-0.0015915048,-0.00473149,0.016853161,0.004956753,0.0008437185,-0.003844313,0.00022075027,0.4675996,-0.10384818,0.15113914,3.121699,0.0,0.1,-0.016853161,0.0053222664,0.0036456925,0.026448887,0.017505383,inf,inf,inf,inf,1,1,1,1,2,1,2,3,0,0,0
29127470,0,0.0,0.0,0.23709005,0.6160802,-0.033157717,0.24050389,0.60899144,-0.2548081,-0.0039826916,-0.0017981795,0.017107468,0.0052643167,0.0008437185,-0.003844313,0.00022075027,-0.6153374,0.05467337,0.053093024,3.121509,0.0,0.1,-0.017107468,0.0051017394,0.0035045058,0.02580902,0.017126448,inf,inf,inf,inf,1,1,1,1,2,1,2,3,0,0,0
29231470,0,0.0,0.0,0.23695903,0.61612046,-0.03341093,0.24050389,0.60899144,-0.2548081,-0.0022788018,0.0011466946,0.014819934,0.0030838717,0.0008437185,-0.003844313,0.00022075027,-0.34566554,0.45338908,0.036181293,3.121535,0.0,0.1,-0.014819934,0.0049307393,0.0033932393,0.025364479,0.016856883,inf,inf,inf,inf,1,1,1,1,2,1,2,3,0,0,0
29327470,0,0.0,0.0,0.23694076,0.6161795,-0.033664696,0.24050389,0.60899144,-0.2548081,-0.0034578275,-0.001119702,0.014027169,0.0024447036,0.0008437185,-0.003844313,0.00022075027,-0.2934911,0.54242057,-0.49367982,3.1217613,0.0,0.1,-0.014027169,0.0052772416,0.0036177125,0.026245115,0.017376382,inf,inf,inf,inf,1,1,1,1,2,1,2,3,0,0,0
29430670,0,0.0,0.0,0.23692545,0.6163271,-0.03393475,0.24050389,0.60899144,-0.2548081,-0.0034814996,0.00017695605,0.013719991,0.0023145752,0.0008437185,-0.003844313,0.00022075027,0.045838084,0.3411828,-0.19052443,3.1216564,0.0,0.1,-0.013719991,0.0050654565,0.0034810058,0.02567276,0.017031053,inf,inf,inf,inf,1,1,1,1,2,1,2,3,0,0,0
29534674,0,0.0,0.0,0.23698863,0.61635906,-0.034116942,0.24050389,0.60899144,-0.2548081,-0.0015930424,-0.0022310743,0.014538053,0.0032969927,0.0008437185,-0.003844313,0.00022075027,0.42138514,-0.03277378,0.24344623,3.1218054,0.0,0.1,-0.014538053,0.005245438,0.0035958535,0.026178516,0.017324327,inf,inf,inf,inf,1,1,1,1,2,1,2,3,0,0,0
29638670,0,0.0,0.0,0.23699163,0.616459,-0.034146577,0.24050389,0.60899144,-0.2548081,-0.0017443775,-0.0016702561,0.015532314,0.0044542584,0.0008437185,-0.003844313,0.00022075027,-0.23752776,0.24493822,0.046514843,3.1211355,0.0,0.1,-0.015532314,0.0051345653,0.003522407,0.025967008,0.017198605,inf,inf,inf,inf,1,1,1,1,2,1,2,3,0,0,0
29742677,0,0.0,0.0,0.23704639,0.61664236,-0.03404227,0.24050389,0.60899144,-0.2548081,-0.0016915048,0.0015401702,0.016668053,0.0057975245,0.0008437185,-0.003844313,0.00022075027,0.3435141,-0.32602665,-0.103261776,3.1213746,0.0,0.1,-0.016668053,0.0052640187,0.0036081516,0.026168188,0.01732058,inf,inf,inf,inf,1,1,1,1,2,1,2,3,0,0,0
29837901,0,0.0,0.0,0.23708764,0.6167157,-0.033898413,0.24050389,0.60899144,-0.2548081,0.00030342367,-0.0014913686,0.01622655,0.005526045,0.0008437185,-0.003844313,0.00022075027,0.30722675,-1.0369154,-0.1756465,3.121868,0.0,0.1,-0.01622655,0.005212261,0.0035763688,0.025966994,0.017203644,inf,inf,inf,inf,1,1,1,1,2,1,2,3,0,0,0
29941870,0,0.0,0.0,0.23707172,0.61683416,-0.033818875,0.24050389,0.60899144,-0.2548081,0.0011595219,-0.0030305057,0.01681471,0.0062280186,0.0008437185,-0.003844313,0.00022075027,0.43097126,-0.36389366,0.106498785,3.1215136,0.0,0.1,-0.01681471,0.0049967645,0.0034360436,0.025487306,0.01692114,inf,inf,inf,inf,1,1,1,1,2,1,2,3,0,0,0
30045870,0,0.0,0.0,0.23707385,0.6169114,-0.033696484,0.24050389,0.60899144,-0.2548081,-0.0023606431,0.0012949485,0.017618628,0.0070933052,0.0008437185,-0.003844313,0.00022075027,-0.2953395,0.48844174,0.12090972,3.1216466,0.0,0.1,-0.017618628,0.005229164,0.0035834443,0.02621567,0.017347269,inf,inf,inf,inf,1,1,1,1,2,1,2,3,0,0,0
30149891,0,0.0,0.0,0.23700391,0.6170355,-0.03347725,0.24050389,0.60899144,-0.2548081,-0.0025793032,-0.0008871522,0.017069465,0.0066122357,0.0008437185,-0.003844313,0.00022075027,-0.6297381,-0.52396923,-0.111940995,3.121698,0.0,0.1,-0.017069465,0.0050394665,0.0034624308,0.025617976,0.016997868,inf,inf,inf,inf,1,1,1,1,2,1,2,3,0,0,0
30253870,0,0.0,0.0,0.23689178,0.6171045,-0.03332391,0.24050389,0.60899144,-0.2548081,-0.0020985308,-0.00169123,0.01769139,0.0072408263,0.0008437185,-0.003844313,0.00022075027,-0.36709964,-0.042025205,0.05175819,3.1215076,0.0,0.1,-0.01769139,0.004935542,0.0033937858,0.025422709,0.016883496,inf,inf,inf,inf,1,1,1,1,2,1,2,3,0,0,0
30349905,0,0.0,0.0,0.23680235,0.61714125,-0.033157747,0.24050389,0.60899144,-0.2548081,-0.0020016062,0.00015801245,0.017845498,0.007412691,0.0008437185,-0.003844313,0.00022075027,0.2742999,-1.1646886,0.59387046,3.1213903,0.0,0.1,-0.017845498,0.005007049,0.0034403068,0.025588622,0.01698379,inf,inf,inf,inf,1,1,1,1,2,1,2,3,0,0,0
30453070,0,0.0,0.0,0.23667715,0.6173423,-0.033001203,0.24050389,0.60899144,-0.2548081,-0.0012972734,-0.00048702746,0.017545275,0.007126535,0.0008437185,-0.003844313,0.00022075027,0.22945464,-0.57929754,0.046953496,3.1218057,0.0,0.1,-0.017545275,0.005190527,0.0035597768,0.026031084,0.017245168,inf,inf,inf,inf,1,1,1,1,2,1,2,3,0,0,0
30557070,0,0.0,0.0,0.2366001,0.61750585,-0.03293438,0.24050389,0.60899144,-0.2548081,-0.0025221105,-0.0001751263,0.017943127,0.007469362,0.0008437185,-0.003844313,0.00022075027,-0.32951358,-0.8622521,-0.13241373,3.1216114,0.0,0.1,-0.017943127,0.0050717173,0.0034823434,0.02582862,0.017137384,inf,inf,inf,inf,1,1,1,1,2,1,2,3,0,0,0
30653071,0,0.0,0.0,0.23653686,0.6177091,-0.032877065,0.24050389,0.60899144,-0.2548081,-0.0020202708,0.0042383783,0.016976621,0.006471938,0.0008437185,-0.003844313,0.00022075027,-0.19082312,1.5308738,0.27796552,3.121411,0.0,0.1,-0.016976621,0.005035351,0.0034612934,0.025553461,0.016969217,inf,inf,inf,inf,1,1,1,1,2,1,2,3,0,0,0
30757070,0,0.0,0.0,0.23642762,0.61787426,-0.032869134,0.24050389,0.60899144,-0.2548081,-0.0031706458,0.0055222046,0.017444095,0.0068410416,0.0008437185,-0.003844313,0.00022075027,-0.21302234,0.9900977,0.031831656,3.1215093,0.0,0.1,-0.017444095,0.0049941605,0.0034310494,0.025659682,0.017029416,inf,inf,inf,inf,1,1,1,1,2,1,2,3,0,0,0
30860300,0,0.0,0.0,0.23637518,0.6179182,-0.03282402,0.24050389,0.60899144,-0.2548081,-0.0033711153,0.0019173159,0.0180444,0.00739391,0.0008437185,-0.003844313,0.00022075027,-0.93580884,0.59513015,0.3878812,3.1219,0.0,0.1,-0.0180444,0.005017158,0.0034436136,0.02580308,0.01711334,inf,inf,inf,inf,1,1,1,1,2,1,2,3,0,0,0
30960305,0,0.0,0.0,0.23628256,0.61804867,-0.032645077,0.24050389,0.60899144,-0.2548081,-0.0013512297,-4.333153e-06,0.017844513,0.007191877,0.0008437185,-0.003844313,0.00022075027,0.13940103,-0.70144725,0.110828556,3.1213632,0.0,0.1,-0.017844513,0.0051243394,0.003514693,0.025950301,0.01720031,inf,inf,inf,inf,1,1,1,1,2,1,2,3,0,0,0
31064314,0,0.0,0.0,0.23621173,0.6180203,-0.03251811,0.24050389,0.60899144,-0.2548081,-0.0030216426,0.0030166209,0.01665457,0.0059662396,0.0008437185,-0.003844313,0.00022075027,-0.0247923,0.1564976,0.04786548,3.1215348,0.0,0.1,-0.01665457,0.0050263773,0.003452405,0.025646321,0.017024558,inf,inf,inf,inf,1,1,1,1,2,1,2,3,0,0,0
31168304,0,0.0,0.0,0.23614621,0.61795986,-0.03238729,0.24050389,0.60899144,-0.2548081,-0.0012512881,-0.00197193,0.01900147,0.008296082,0.0008437185,-0.003844313,0.00022075027,0.07698153,-0.3800376,0.4683594,3.1218686,0.0,0.1,-0.01900147,0.0052166735,0.0035787306,0.026152363,0.01734412,inf,inf,inf,inf,1,1,1,1,2,1,2,3,0,0,0
31272269,0,0.0,0.0,0.2360727,0.61791366,-0.03227739,0.24050389,0.60899144,-0.2548081,-0.0024536052,-0.00070523465,0.019085288,0.008288477,0.0008437185,-0.003844313,0.00022075027,-0.10449544,-1.0356905,0.20179991,3.1214936,0.0,0.1,-0.019085288,0.005141133,0.0035278446,0.026058592,0.017282724,inf,inf,inf,inf,1,1,1,1,2,1,2,3,0,0,0
31367494,0,0.0,0.0,0.23603463,0.6177905,-0.032119676,0.24050389,0.60899144,-0.2548081,-0.0040247836,0.0022102185,0.020464718,0.009628644,0.0008437185,-0.003844313,0.00022075027,-0.8880443,0.29105204,0.3689001,3.1215963,0.0,0.1,-0.020464718,0.0051723113,0.0035496072,0.026012369,0.017248819,inf,inf,inf,inf,1,1,1,1,2,1,2,3,0,0,0
31471469,0,0.0,0.0,0.23600489,0.61776495,-0.031989675,0.24050389,0.60899144,-0.2548081,-0.0031385834,0.0028095744,0.017536653,0.006641667,0.0008437185,-0.003844313,0.00022075027,-0.24405442,0.8741293,-0.46858257,3.121764,0.0,0.1,-0.017536653,0.0053968593,0.0036943418,0.026576959,0.017579587,inf,inf,inf,inf,1,1,1,1,2,1,2,3,0,0,0
31575470,0,0.0,0.0,0.23609048,0.6177005,-0.031892046,0.24050389,0.60899144,-0.2548081,-0.0026271679,0.0008413634,0.02080879,0.00979805,0.0008437185,-0.003844313,0.00022075027,0.20981386,0.52393013,0.20111158,3.121476,0.0,0.1,-0.02080879,0.0048855925,0.0033631437,0.025237778,0.016780294,inf,inf,inf,inf,1,1,1,1,2,1,2,3,0,0,0
31671476,0,0.0,0.0,0.2361474,0.6176027,-0.031790417,0.24050389,0.60899144,-0.2548081,-0.0031564638,-8.366929e-06,0.020684626,0.009537761,0.0008437185,-0.003844313,0.00022075027,-0.012537645,-0.33474708,-0.23582748,3.1216667,0.0,0.1,-0.020684626,0.005030393,0.003454499,0.0257435,0.017080037,inf,inf,inf,inf,1,1,1,1,2,1,2,3,0,0,0
31775494,0,0.0,0.0,0.2362135,0.61755866,-0.031635083,0.24050389,0.60899144,-0.2548081,-0.001448646,0.0005563819,0.020966101,0.009678253,0.0008437185,-0.003844313,0.00022075027,-0.12137312,0.7517064,0.08034189,3.1218486,0.0,0.1,-0.020966101,0.005006163,0.0034374676,0.02571571,0.017059635,inf,inf,inf,inf,1,1,1,1,2,1,2,3,0,0,0
31879470,0,0.0,0.0,0.23635118,0.61747926,-0.03149941,0.24050389,0.60899144,-0.2548081,-0.0037269623,0.0021245142,0.020361053,0.008951383,0.0008437185,-0.003844313,0.00022075027,-0.47023353,0.9351961,-0.38704017,3.1220944,0.0,0.1,-0.020361053,0.00503689,0.0034561881,0.025814777,0.017122492,inf,inf,inf,inf,1,1,1,1,2,1,2,3,0,0,0
31982670,0,0.0,0.0,0.23649779,0.61741334,-0.031412307,0.24050389,0.60899144,-0.2548081,-0.002244941,-0.0016447963,0.019343263,0.0078462865,0.0008437185,-0.003844313,0.00022075027,-0.5883647,-0.31458482,-0.32063589,3.121883,0.0,0.1,-0.019343263,0.0052641975,0.0036061052,0.026223024,0.017362496,inf,inf,inf,inf,1,1,1,1,2,1,2,3,0,0,0
32078698,0,0.0,0.0,0.2366268,0.61742616,-0.03143291,0.24050389,0.60899144,-0.2548081,0.0021734952,-0.0011386451,0.019914925,0.008303712,0.0008437185,-0.003844313,0.00022075027,0.58026576,-1.3262684,0.526961,3.1215842,0.0,0.1,-0.019914925,0.0052246423,0.0035839616,0.025953887,0.017204298,inf,inf,inf,inf,1,1,1,1,2,1,2,3,0,0,0
32182676,0,0.0,0.0,0.23680186,0.6173891,-0.031638406,0.24050389,0.60899144,-0.2548081,0.0017610665,0.00031760638,0.018775776,0.006976759,0.0008437185,-0.003844313,0.00022075027,0.47859934,0.44664913,0.3169998,3.1219628,0.0,0.1,-0.018775776,0.004844319,0.0033342773,0.02518614,0.016748203,inf,inf,inf,inf,1,1,1,1,2,1,2,3,0,0,0
32286670,0,0.0,0.0,0.23694688,0.6173423,-0.031925585,0.24050389,0.60899144,-0.2548081,0.0014088142,-0.0006533284,0.01750895,0.005595657,0.0008437185,-0.003844313,0.00022075027,0.6570207,-0.65941757,0.35755515,3.121764,0.0,0.1,-0.01750895,0.005081344,0.0034881635,0.025787156,0.017105548,inf,inf,inf,inf,1,1,1,1,2,1,2,3,0,0,0
32389870,0,0.0,0.0,0.23702604,0.61730474,-0.03222508,0.24050389,0.60899144,-0.2548081,-0.0012266365,-0.00031405443,0.01825997,0.006290357,0.0008437185,-0.003844313,0.00022075027,-0.530997,0.34743914,0.27384865,3.121885,0.0,0.1,-0.01825997,0.005239181,0.0035924867,0.02608124,0.017281888,inf,inf,inf,inf,1,1,1,1,2,1,2,3,0,0,0
32485876,0,0.0,0.0,0.2369384,0.6173679,-0.032493424,0.24050389,0.60899144,-0.2548081,0.00048309303,-0.0010170604,0.01567272,0.003687722,0.0008437185,-0.003844313,0.00022075027,0.80619323,-0.46902588,-0.18121451,3.1217985,0.0,0.1,-0.01567272,0.0052391053,0.003593198,0.026077718,0.017282506,inf,inf,inf,inf,1,1,1,1,2,1,2,3,0,0,0
32589889,0,0.0,0.0,0.23677523,0.6174337,-0.03277465,0.24050389,0.60899144,-0.2548081,-0.0010635075,0.0010777913,0.014698263,0.0027789136,0.0008437185,-0.003844313,0.00022075027,0.5658207,-0.80325776,-0.2757945,3.121608,0.0,0.1,-0.014698263,0.0053493064,0.003666088,0.026276361,0.01740232,inf,inf,inf,inf,1,1,1,1,2,1,2,3,0,0,0
32693870,0,0.0,0.0,0.23648882,0.6175431,-0.033050273,0.24050389,0.60899144,-0.2548081,-0.0013828452,0.0009467584,0.0135053005,0.0016712873,0.0008437185,-0.003844313,0.00022075027,0.22287326,-0.38131258,-0.22514075,3.1221027,0.0,0.1,-0.0135053005,0.0050560595,0.0034774123,0.02551733,0.01695205,inf,inf,inf,inf,1,1,1,1,2,1,2,3,0,0,0
32797870,0,0.0,0.0,0.23618925,0.61766714,-0.03321297,0.24050389,0.60899144,-0.2548081,-0.001847406,0.0012514285,0.014821683,0.0031079333,0.0008437185,-0.003844313,0.00022075027,0.27009964,-0.6760113,-0.4289579,3.1220174,0.0,0.1,-0.014821683,0.0051605483,0.0035446677,0.025842482,0.01714615,inf,inf,inf,inf,1,1,1,1,2,1,2,3,0,0,0
32897070,0,0.0,0.0,0.23596652,0.617769,-0.033218417,0.24050389,0.60899144,-0.2548081,-0.0033147782,0.0041106488,0.016876267,0.005304613,0.0008437185,-0.003844313,0.00022075027,-0.24242353,0.70305175,0.42919648,3.1216652,0.0,0.1,-0.016876267,0.005112714,0.0035137539,0.025725145,0.017079499,inf,inf,inf,inf,1,1,1,1,2,1,2,3,0,0,0
33001101,0,0.0,0.0,0.23569886,0.61796606,-0.033172045,0.24050389,0.60899144,-0.2548081,-0.0051295348,0.0024875794,0.017825775,0.006405656,0.0008437185,-0.003844313,0.00022075027,-0.8941036,0.76395947,0.14698358,3.1212416,0.0,0.1,-0.017825775,0.00522184,0.0035841034,0.026033588,0.017262,inf,inf,inf,inf,1,1,1,1,2,1,2,3,0,0,0
33097070,0,0.0,0.0,0.23552029,0.6181734,-0.03312134,0.24050389,0.60899144,-0.2548081,-0.0046760486,0.004029324,0.017620476,0.0063222456,0.0008437185,-0.003844313,0.00022075027,-0.09355932,0.38299042,-0.1770957,3.121653,0.0,0.1,-0.017620476,0.005269189,0.00361377,0.02639253,0.017494692,inf,inf,inf,inf,1,1,1,1,2,1,2,3,0,0,0
33201070,0,0.0,0.0,0.23541686,0.6183291,-0.033089645,0.24050389,0.60899144,-0.2548081,-0.00443214,0.003384523,0.017119179,0.005928255,0.0008437185,-0.003844313,0.00022075027,-0.1574962,-0.15512751,-0.21894374,3.122114,0.0,0.1,-0.017119179,0.0054792566,0.0037482777,0.026915133,0.01779767,inf,inf,inf,inf,1,1,1,1,2,1,2,3,0,0,0
33305070,0,0.0,0.0,0.23538895,0.61842173,-0.033033513,0.24050389,0.60899144,-0.2548081,-0.0032683527,0.0012513694,0.016273182,0.0051632426,0.0008437185,-0.003844313,0.00022075027,-0.31943816,0.7163401,-0.08033336,3.122279,0.0,0.1,-0.016273182,0.005188342,0.0035636602,0.025952276,0.017229922,inf,inf,inf,inf,1,1,1,1,2,1,2,3,0,0,0
33408307,0,0.0,0.0,0.23541057,0.61842066,-0.032979086,0.24050389,0.60899144,-0.2548081,-0.004981698,0.001600939,0.018742442,0.0076664453,0.0008437185,-0.003844313,0.00022075027,-1.1768444,0.18257068,-0.026926761,3.1216998,0.0,0.1,-0.018742442,0.005017462,0.0034512086,0.025584407,0.017003981,inf,inf,inf,inf,1,1,1,1,2,1,2,3,0,0,0
33512281,0,0.0,0.0,0.23547323,0.6183499,-0.03283851,0.24050389,0.60899144,-0.2548081,-0.0023292077,0.0031643508,0.019162295,0.008128892,0.0008437185,-0.003844313,0.00022075027,-0.2993654,0.6157869,-0.15097055,3.1216955,0.0,0.1,-0.019162295,0.0049439105,0.0034006708,0.025508929,0.016954113,inf,inf,inf,inf,1,1,1,1,2,1,2,3,0,0,0
33608279,0,0.0,0.0,0.23548141,0.61830884,-0.032762926,0.24050389,0.60899144,-0.2548081,-0.0015965101,0.0020143958,0.0197623,0.008726023,0.0008437185,-0.003844313,0.00022075027,-0.08558486,-0.23282309,0.12273992,3.1223314,0.0,0.1,-0.0197623,0.0048423447,0.0033310086,0.025362961,0.016859563,inf,inf,inf,inf,1,1,1,1,2,1,2,3,0,0,0
33712269,0,0.0,0.0,0.23547028,0.6182897,-0.032663852,0.24050389,0.60899144,-0.2548081,-0.003975745,0.0041612694,0.01758116,0.0065501845,0.0008437185,-0.003844313,0.00022075027,-0.5724612,0.109632485,0.32377413,3.1222725,0.0,0.1,-0.01758116,0.004863054,0.0033443104,0.025348287,0.016853161,inf,inf,inf,inf,1,1,1,1,2,1,2,3,0,0,0
33816305,0,0.0,0.0,0.23541367,0.618309,-0.03252278,0.24050389,0.60899144,-0.2548081,-0.0016490185,0.00138088,0.019835113,0.008810019,0.0008437185,-0.003844313,0.00022075027,0.30458483,0.6462021,0.6206034,3.1216195,0.0,0.1,-0.019835113,0.0051005287,0.003500911,0.025796989,0.017121574,inf,inf,inf,inf,1,1,1,1,2,1,2,3,0,0,0
33911484,0,0.0,0.0,0.23531035,0.61838436,-0.032432675,0.24050389,0.60899144,-0.2548081,-0.0028625699,0.00025275903,0.017943364,0.006920311,0.0008437185,-0.003844313,0.00022075027,0.32307708,-0.8357169,-0.19973353,3.121604,0.0,0.1,-0.017943364,0.005467102,0.0037405721,0.02660871,0.017604591,inf,inf,inf,inf,1,1,1,1,2,1,2,3,0,0,0
34015478,0,0.0,0.0,0.23529403,0.6182905,-0.032327753,0.24050389,0.60899144,-0.2548081,-0.0020154328,0.005970503,0.01792192,0.0068555204,0.0008437185,-0.003844313,0.00022075027,0.19490162,0.69076353,-0.07957381,3.1222143,0.0,0.1,-0.01792192,0.0051739654,0.0035542252,0.02577459,0.0171095,inf,inf,inf,inf,1,1,1,1,2,1,2,3,0,0,0
34119475,0,0.0,0.0,0.2352218,0.61820024,-0.032228567,0.24050389,0.60899144,-0.2548081,-0.0031480761,0.0024431741,0.017391669,0.0062647727,0.0008437185,-0.003844313,0.00022075027,-0.16466586,0.09646497,-0.41618186,3.1221697,0.0,0.1,-0.017391669,0.0052632997,0.003612401,0.026055235,0.017279832,inf,inf,inf,inf,1,1,1,1,2,1,2,3,0,0,0
34223476,0,0.0,0.0,0.23518226,0.6181095,-0.032152634,0.24050389,0.60899144,-0.2548081,-0.0033222646,0.0025459623,0.01703568,0.005861395,0.0008437185,-0.003844313,0.00022075027,0.3160688,0.73475903,-0.40194216,3.1217406,0.0,0.1,-0.01703568,0.0053099063,0.0036431684,0.026147543,0.01732751,inf,inf,inf,inf,1,1,1,1,2,1,2,3,0,0,0
34327469,0,0.0,0.0,0.23512252,0.6180642,-0.032075584,0.24050389,0.60899144,-0.2548081,-0.0026470274,0.0015352,0.018924767,0.0076983734,0.0008437185,-0.003844313,0.00022075027,0.10292395,0.7366247,-0.011109874,3.1221642,0.0,0.1,-0.018924767,0.005385123,0.0036916311,0.026370062,0.017461317,inf,inf,inf,inf,1,1,1,1,2,1,2,3,0,0,0
34422670,0,0.0,0.0,0.23508622,0.6181726,-0.032047916,0.24050389,0.60899144,-0.2548081,-0.0030584377,0.0010878453,0.018593805,0.0072930963,0.0008437185,-0.003844313,0.00022075027,-0.17405204,0.27790332,0.3067493,3.122281,0.0,0.1,-0.018593805,0.005302375,0.0036381935,0.026172023,0.017353032,inf,inf,inf,inf,1,1,1,1,2,1,2,3,0,0,0
34526669,0,0.0,0.0,0.23519392,0.61839736,-0.03202993,0.24050389,0.60899144,-0.2548081,-0.0025800024,0.0046536764,0.01915179,0.007731881,0.0008437185,-0.003844313,0.00022075027,-1.2154633,0.27244374,-0.24204646,3.1217003,0.0,0.1,-0.01915179,0.0050887964,0.0034975281,0.02577637,0.017116543,inf,inf,inf,inf,1,1,1,1,2,1,2,3,0,0,0
34630702,0,0.0,0.0,0.23536032,0.61863565,-0.03200355,0.24050389,0.60899144,-0.2548081,-0.00091095257,0.0022267683,0.01968284,0.0081297,0.0008437185,-0.003844313,0.00022075027,-0.24610859,-0.34831533,-0.13603416,3.1218085,0.0,0.1,-0.01968284,0.00506292,0.003476251,0.025896233,0.017182704,inf,inf,inf,inf,1,1,1,1,2,1,2,3,0,0,0
34734688,0,0.0,0.0,0.23550016,0.61889684,-0.03197262,0.24050389,0.60899144,-0.2548081,0.00044864923,0.004909148,0.019976392,0.008372271,0.0008437185,-0.003844313,0.00022075027,0.06257099,1.0158345,-0.11896063,3.1224036,0.0,0.1,-0.019976392,0.0049505304,0.0034050494,0.025433898,0.016910864,inf,inf,inf,inf,1,1,1,1,2,1,2,3,0,0,0
34838713,0,0.0,0.0,0.23558396,0.6191199,-0.031923905,0.24050389,0.60899144,-0.2548081,0.00016873018,0.00027609855,0.019362349,0.0077088885,0.0008437185,-0.003844313,0.00022075027,0.067547694,-1.0044867,0.035698857,3.1218462,0.0,0.1,-0.019362349,0.0051776846,0.0035527358,0.026007582,0.017258136,inf,inf,inf,inf,1,1,1,1,2,1,2,3,0,0,0
34933870,0,0.0,0.0,0.23565824,0.61930496,-0.031923253,0.24050389,0.60899144,-0.2548081,0.0020926727,-0.0010520578,0.018960522,0.0072643887,0.0008437185,-0.003844313,0.00022075027,0.6531207,-0.80777633,0.4341363,3.1217878,0.0,0.1,-0.018960522,0.0052446444,0.0035967263,0.026147688,0.017340789,inf,inf,inf,inf,1,1,1,1,2,1,2,3,0,0,0
35037876,0,0.0,0.0,0.23570743,0.61942136,-0.031970628,0.24050389,0.60899144,-0.2548081,0.0005054777,0.004979662,0.016840914,0.0051120096,0.0008437185,-0.003844313,0.00022075027,-0.15041985,-0.6429868,0.08895915,3.1223292,0.0,0.1,-0.016840914,0.005371782,0.0036816648,0.02634808,0.017460072,inf,inf,inf,inf,1,1,1,1,2,1,2,3,0,0,0
35141876,0,0.0,0.0,0.23575865,0.6193849,-0.03203522,0.24050389,0.60899144,-0.2548081,0.0001792251,0.0021379588,0.018544571,0.0067596654,0.0008437185,-0.003844313,0.00022075027,0.02665927,-0.55062973,0.25901344,3.1224318,0.0,0.1,-0.018544571,0.0054449295,0.0037304044,0.026479198,0.017539395,inf,inf,inf,inf,1,1,1,1,2,1,2,3,0,0,0
35237871,0,0.0,0.0,0.23576063,0.61939627,-0.03212474,0.24050389,0.60899144,-0.2548081,-0.000543739,0.000889802,0.018977256,0.007133205,0.0008437185,-0.003844313,0.00022075027,-0.16228059,-0.059513804,0.27624622,3.1220613,0.0,0.1,-0.018977256,0.005385282,0.003691805,0.026382891,0.017479053,inf,inf,inf,inf,1,1,1,1,2,1,2,3,0,0,0
35341876,0,0.0,0.0,0.23568508,0.6192821,-0.03222954,0.24050389,0.60899144,-0.2548081,0.0011221078,-2.8202521e-05,0.017765254,0.0058998293,0.0008437185,-0.003844313,0.00022075027,0.78803885,-1.0620391,0.06619584,3.121844,0.0,0.1,-0.017765254,0.0051077576,0.0035123297,0.02567698,0.017065145,inf,inf,inf,inf,1,1,1,1,2,1,2,3,0,0,0
35447496,0,0.0,0.0,0.23559228,0.61911976,-0.032279026,0.24050389,0.60899144,-0.2548081,-0.0012658973,0.0016049943,0.020291789,0.008404204,0.0008437185,-0.003844313,0.00022075027,0.24705587,-0.35548812,0.47527477,3.1222825,0.0,0.1,-0.020291789,0.004970887,0.0034202817,0.02550855,0.016964238,inf,inf,inf,inf,1,1,1,1,2,1,2,3,0,0,0
35549870,0,0.0,0.0,0.23547561,0.6188854,-0.032316104,0.24050389,0.60899144,-0.2548081,-0.0016587124,-0.0028120691,0.017890928,0.006023878,0.0008437185,-0.003844313,0.00022075027,0.08047805,-0.9049183,-0.2771705,3.1221356,0.0,0.1,-0.017890928,0.004898253,0.0033712112,0.025383078,0.016893646,inf,inf,inf,inf,1,1,1,1,2,1,2,3,0,0,0
35649070,0,0.0,0.0,0.23536691,0.618652,-0.032376256,0.24050389,0.60899144,-0.2548081,-0.0018942434,-0.001507993,0.018649014,0.006794285,0.0008437185,-0.003844313,0.00022075027,-0.39796954,0.017168216,0.09585463,3.1218183,0.0,0.1,-0.018649014,0.0050715045,0.0034823574,0.0259515,0.017241467,inf,inf,inf,inf,1,1,1,1,2,1,2,3,0,0,0
35753112,0,0.0,0.0,0.235153,0.61845005,-0.032624725,0.24050389,0.60899144,-0.2548081,-0.0009829366,-0.003130269,0.016649147,0.004844633,0.0008437185,-0.003844313,0.00022075027,0.33580378,-0.34506994,0.5231599,3.122092,0.0,0.1,-0.016649147,0.0053018006,0.0036351758,0.026442438,0.017545754,inf,inf,inf,inf,1,1,1,1,2,1,2,3,0,0,0
35857087,0,0.0,0.0,0.23499362,0.6182926,-0.03305287,0.24050389,0.60899144,-0.2548081,-0.002691763,-0.001050416,0.014571298,0.0028039603,0.0008437185,-0.003844313,0.00022075027,-0.26582196,-0.35832274,-0.05787539,3.122017,0.0,0.1,-0.014571298,0.0051240926,0.0035217342,0.025871035,0.01720331,inf,inf,inf,inf,1,1,1,1,2,1,2,3,0,0,0
35953072,0,0.0,0.0,0.23484705,0.6182129,-0.033571497,0.24050389,0.60899144,-0.2548081,-0.0018362806,-0.00044735565,0.012076156,0.00037224338,0.0008437185,-0.003844313,0.00022075027,-0.21187691,-0.06395354,0.14201702,3.1216218,0.0,0.1,-0.012076156,0.005103921,0.003510307,0.025705071,0.017096419,inf,inf,inf,inf,1,1,1,1,2,1,2,3,0,0,0
36056293,0,0.0,0.0,0.2346572,0.61825085,-0.034192264,0.24050389,0.60899144,-0.2548081,-0.0006080234,0.0013908793,0.009908682,-0.00170024,0.0008437185,-0.003844313,0.00022075027,0.027789604,-0.16926627,-0.13849673,3.12165,0.0,0.1,-0.009908682,0.005000363,0.003440431,0.025573406,0.017015453,inf,inf,inf,inf,1,1,1,1,2,1,2,3,0,0,0
36160270,0,0.0,0.0,0.23450787,0.61838704,-0.03470592,0.24050389,0.60899144,-0.2548081,-0.002412954,0.0015929766,0.011963693,0.00055371725,0.0008437185,-0.003844313,0.00022075027,0.4834284,-0.7442486,0.22528282,3.121883,0.0,0.1,-0.011963693,0.0049239635,0.0033892216,0.025385043,0.0168991,inf,inf,inf,inf,1,1,1,1,2,1,2,3,0,0,0
37174670,0,0.0,0.0,0.23549862,0.61903054,-0.033755098,0.24050389,0.60899144,-0.2548081,-0.00014363998,0.0022330831,0.01705857,0.007717545,0.0008437185,-0.003844313,0.00022075027,-0.89659667,0.42414746,0.08923111,3.1216526,0.0,0.1,-0.01705857,0.0051500215,0.0035409462,0.025787586,0.017135717,inf,inf,inf,inf,1,1,1,1,2,1,2,3,0,0,0
37278670,0,0.0,0.0,0.2354399,0.61913055,-0.033626392,0.24050389,0.60899144,-0.2548081,0.0001921496,0.0015135452,0.015489932,0.006134245,0.0008437185,-0.003844313,0.00022075027,-0.46956977,-0.68889266,0.05158423,3.1218505,0.0,0.1,-0.015489932,0.005215339,0.0035838827,0.025940925,0.017231666,inf,inf,inf,inf,1,1,1,1,2,1,2,3,0,0,0
37382686,0,0.0,0.0,0.23539637,0.61922485,-0.033541515,0.24050389,0.60899144,-0.2548081,0.00016946999,0.0015857811,0.013683767,0.0042643524,0.0008437185,-0.003844313,0.00022075027,0.016661365,0.19859987,-0.30981043,3.1222186,0.0,0.1,-0.013683767,0.004974028,0.003426048,0.025378222,0.016899014,inf,inf,inf,inf,1,1,1,1,2,1,2,3,0,0,0
37485886,0,0.0,0.0,0.2353,0.61923593,-0.03353801,0.24050389,0.60899144,-0.2548081,-0.0022427507,9.051102e-06,0.015377631,0.0058854935,0.0008437185,-0.003844313,0.00022075027,-1.963249,-0.24392438,0.33766222,3.1219864,0.0,0.1,-0.015377631,0.0051615736,0.0035457388,0.02598444,0.017265506,inf,inf,inf,inf,1,1,1,1,2,1,2,3,0,0,0
37581876,0,0.0,0.0,0.23522381,0.6191641,-0.033452515,0.24050389,0.60899144,-0.2548081,0.001951418,-0.00039278824,0.016331127,0.0068032914,0.0008437185,-0.003844313,0.00022075027,0.40504193,-0.33675393,0.73330384,3.1215444,0.0,0.1,-0.016331127,0.0051821824,0.0035595677,0.02597923,0.017265603,inf,inf,inf,inf,1,1,1,1,2,1,2,3,0,0,0
37685869,0,0.0,0.0,0.23511936,0.619194,-0.03329336,0.24050389,0.60899144,-0.2548081,0.003890165,0.0024730135,0.01707637,0.0075355694,0.0008437185,-0.003844313,0.00022075027,0.7628983,0.5551529,0.38371372,3.1218863,0.0,0.1,-0.01707637,0.005321963,0.003650327,0.026306268,0.017452883,inf,inf,inf,inf,1,1,1,1,2,1,2,3,0,0,0
37789870,0,0.0,0.0,0.23492517,0.61922294,-0.033189602,0.24050389,0.60899144,-0.2548081,0.001251989,-0.0008167113,0.01457572,0.004988457,0.0008437185,-0.003844313,0.00022075027,-0.43130833,-1.0889529,-0.14032367,3.1216063,0.0,0.1,-0.01457572,0.005158302,0.0035436607,0.02593501,0.01723353,inf,inf,inf,inf,1,1,1,1,2,1,2,3,0,0,0
37885890,0,0.0,0.0,0.23484103,0.61933637,-0.033202186,0.24050389,0.60899144,-0.2548081,-0.0005500623,0.0013366408,0.013130593,0.0035165118,0.0008437185,-0.003844313,0.00022075027,-0.1300984,-0.21456988,-0.1777898,3.1216693,0.0,0.1,-0.013130593,0.00517039,0.0035521756,0.025934031,0.017232236,inf,inf,inf,inf,1,1,1,1,2,1,2,3,0,0,0
37989070,0,0.0,0.0,0.23470947,0.6194749,-0.03327123,0.24050389,0.60899144,-0.2548081,0.0022449363,0.0017574533,0.016762136,0.0070635052,0.0008437185,-0.003844313,0.00022075027,0.65314496,-0.28507963,0.015874444,3.1218789,0.0,0.1,-0.016762136,0.005023855,0.0034566459,0.0255735,0.017022168,inf,inf,inf,inf,1,1,1,1,2,1,2,3,0,0,0
38093069,0,0.0,0.0,0.23452629,0.61971885,-0.033252105,0.24050389,0.60899144,-0.2548081,0.0006576967,0.0047208667,0.015798023,0.0060266526,0.0008437185,-0.003844313,0.00022075027,0.4413447,0.5091905,-0.048146654,3.1222582,0.0,0.1,-0.015798023,0.005220149,0.0035841195,0.026076842,0.017327521,inf,inf,inf,inf,1,1,1,1,2,1,2,3,0,0,0
38189075,0,0.0,0.0,0.23447768,0.61992383,-0.03318654,0.24050389,0.60899144,-0.2548081,0.0019724576,0.0034256016,0.016392695,0.006590187,0.0008437185,-0.003844313,0.00022075027,0.12297616,-0.5672448,0.1569828,3.1217031,0.0,0.1,-0.016392695,0.004942871,0.0034037393,0.025480622,0.016985575,inf,inf,inf,inf,1,1,1,1,2,1,2,3,0,0,0
38293084,0,0.0,0.0,0.23442283,0.62010676,-0.033154283,0.24050389,0.60899144,-0.2548081,0.00017395627,0.0028922413,0.01663792,0.0068164286,0.0008437185,-0.003844313,0.00022075027,-0.50367516,-0.33206245,0.7542677,3.1216471,0.0,0.1,-0.01663792,0.0051541207,0.0035405431,0.025998019,0.017285889,inf,inf,inf,inf,1,1,1,1,2,1,2,3,0,0,0
38397078,0,0.0,0.0,0.23439096,0.62018555,-0.03310572,0.24050389,0.60899144,-0.2548081,0.0012626546,0.0020574539,0.017702674,0.007851451,0.0008437185,-0.003844313,0.00022075027,0.058340464,0.17854261,0.23378287,3.1216788,0.0,0.1,-0.017702674,0.0050419495,0.0034681188,0.025661707,0.017082773,inf,inf,inf,inf,1,1,1,1,2,1,2,3,0,0,0
38493098,0,0.0,0.0,0.2343412,0.6202352,-0.033095624,0.24050389,0.60899144,-0.2548081,-0.00021269875,0.0028691774,0.016789908,0.00692169,0.0008437185,-0.003844313,0.00022075027,-0.26660046,-0.057086855,-0.2609424,3.1217983,0.0,0.1,-0.016789908,0.0050535714,0.0034775427,0.025575712,0.017031372,inf,inf,inf,inf,1,1,1,1,2,1,2,3,0,0,0
38600269,0,0.0,0.0,0.2344468,0.6201535,-0.033099044,0.24050389,0.60899144,-0.2548081,0.0018208153,0.0046274317,0.015457872,0.005524809,0.0008437185,-0.003844313,0.00022075027,0.5692532,1.0396484,-0.02182183,3.1217692,0.0,0.1,-0.015457872,0.0053185336,0.0036474606,0.02638912,0.01751121,inf,inf,inf,inf,1,1,1,1,2,1,2,3,0,0,0
38696284,0,0.0,0.0,0.23447338,0.6200069,-0.033158913,0.24050389,0.60899144,-0.2548081,0.0011762151,0.0019088247,0.014404566,0.0044400925,0.0008437185,-0.003844313,0.00022075027,-0.70708007,0.7281282,-0.21499926,3.1216373,0.0,0.1,-0.014404566,0.005074318,0.0034901523,0.025863083,0.017217068,inf,inf,inf,inf,1,1,1,1,2,1,2,3,0,0,0
38800297,0,0.0,0.0,0.2345573,0.61979115,-0.033255193,0.24050389,0.60899144,-0.2548081,0.0013678126,-0.0028668516,0.015204791,0.0052221036,0.0008437185,-0.003844313,0.00022075027,-0.3116806,-1.0251912,0.19006114,3.1217024,0.0,0.1,-0.015204791,0.005318147,0.0036477228,0.02648005,0.017583627,inf,inf,inf,inf,1,1,1,1,2,1,2,3,0,0,0
38904297,0,0.0,0.0,0.23468891,0.61949253,-0.03343733,0.24050389,0.60899144,-0.2548081,0.0031505674,-0.0023116982,0.015395719,0.0054377704,0.0008437185,-0.003844313,0.00022075027,0.3015559,-0.68966705,0.49820372,3.1215887,0.0,0.1,-0.015395719,0.005484691,0.0037575823,0.026741736,0.017734373,inf,inf,inf,inf,1,1,1,1,2,1,2,3,0,0,0
38998697,0,0.0,0.0,0.23480283,0.6193235,-0.033711586,0.24050389,0.60899144,-0.2548081,0.004483197,0.0012037435,0.010934829,0.001008059,0.0008437185,-0.003844313,0.00022075027,0.19006085,-0.19341321,-0.29652426,3.1213846,0.0,0.1,-0.010934829,0.0054106605,0.003712182,0.026420636,0.017542237,inf,inf,inf,inf,1,1,1,1,2,1,2,3,0,0,0
39103476,0,0.0,0.0,0.23490024,0.61917347,-0.034083553,0.24050389,0.60899144,-0.2548081,0.0026462437,0.003032074,0.010938313,0.0010528414,0.0008437185,-0.003844313,0.00022075027,0.21349968,0.43213457,-0.4091315,3.1218526,0.0,0.1,-0.010938313,0.005116982,0.0035222033,0.025651019,0.017079255,inf,inf,inf,inf,1,1,1,1,2,1,2,3,0,0,0
39207469,0,0.0,0.0,0.23498163,0.61901057,-0.034407277,0.24050389,0.60899144,-0.2548081,0.0012249013,-0.0019441781,0.0129183065,0.0031191944,0.0008437185,-0.003844313,0.00022075027,-0.75764334,-0.18215433,0.11456155,3.121557,0.0,0.1,-0.0129183065,0.0052001392,0.0035757695,0.02593335,0.01724284,inf,inf,inf,inf,1,1,1,1,2,1,2,3,0,0,0
39311470,0,0.0,0.0,0.23492904,0.6189323,-0.034590527,0.24050389,0.60899144,-0.2548081,0.0039365864,-0.0031345878,0.011515102,0.0018633059,0.0008437185,-0.003844313,0.00022075027,0.6612825,-0.82664734,-0.08501179,3.1218517,0.0,0.1,-0.011515102,0.005252525,0.0036107886,0.026005888,0.017289666,inf,inf,inf,inf,1,1,1,1,2,1,2,3,0,0,0
39407476,0,0.0,0.0,0.23473105,0.61887664,-0.034620825,0.24050389,0.60899144,-0.2548081,-0.00029909518,0.0011707842,0.013886128,0.0044112355,0.0008437185,-0.003844313,0.00022075027,-0.2479455,0.01455553,0.11512071,3.1220374,0.0,0.1,-0.013886128,0.0054486836,0.0037399998,0.026406227,0.017526856,inf,inf,inf,inf,1,1,1,1,2,1,2,3,0,0,0
39510673,0,0.0,0.0,0.2343874,0.6188552,-0.0345292,0.24050389,0.60899144,-0.2548081,-0.0019082986,-0.0024318858,0.012988675,0.0036741272,0.0008437185,-0.003844313,0.00022075027,-1.0157282,-1.1947619,0.15923738,3.121609,0.0,0.1,-0.012988675,0.005137596,0.0035359978,0.025755147,0.017140081,inf,inf,inf,inf,1,1,1,1,2,1,2,3,0,0,0
39614670,0,0.0,0.0,0.23391514,0.61887974,-0.03433961,0.24050389,0.60899144,-0.2548081,0.0016773613,-0.004204706,0.015373937,0.0061922236,0.0008437185,-0.003844313,0.00022075027,1.1277105,-1.0901531,0.15641928,3.121005,0.0,0.1,-0.015373937,0.0050136633,0.0034514351,0.025627693,0.017068813,inf,inf,inf,inf,1,1,1,1,2,1,2,3,0,0,0
39718670,0,0.0,0.0,0.23361382,0.6189878,-0.03405469,0.24050389,0.60899144,-0.2548081,-0.0010994928,7.8450736e-05,0.01607676,0.0070061376,0.0008437185,-0.003844313,0.00022075027,-0.84964526,-0.15208381,0.4049902,3.1217816,0.0,0.1,-0.01607676,0.005242936,0.003598424,0.026255406,0.01744144,inf,inf,inf,inf,1,1,1,1,2,1,2,3,0,0,0
39814670,0,0.0,0.0,0.23324755,0.6190472,-0.03374137,0.24050389,0.60899144,-0.2548081,0.0024742004,-0.0018053714,0.01845608,0.009455489,0.0008437185,-0.003844313,0.00022075027,0.930729,0.13214476,0.6531896,3.1221037,0.0,0.1,-0.01845608,0.0052773333,0.00362205,0.026238268,0.01742422,inf,inf,inf,inf,1,1,1,1,2,1,2,3,0,0,0
39918682,0,0.0,0.0,0.23293166,0.61917627,-0.03337316,0.24050389,0.60899144,-0.2548081,-0.0047771363,0.0020010825,0.017781915,0.008804209,0.0008437185,-0.003844313,0.00022075027,-0.9272927,0.8217729,-0.023171933,3.1213827,0.0,0.1,-0.017781915,0.005323095,0.0036553338,0.026180878,0.017401865,inf,inf,inf,inf,1,1,1,1,2,1,2,3,0,0,0
40021870,0,0.0,0.0,0.23266973,0.6193908,-0.03312179,0.24050389,0.60899144,-0.2548081,-0.003840146,-0.00035237253,0.016255153,0.00719671,0.0008437185,-0.003844313,0.00022075027,-0.48221332,-1.652406,0.067658655,3.1218152,0.0,0.1,-0.016255153,0.005067766,0.003489471,0.025550665,0.01702057,inf,inf,inf,inf,1,1,1,1,2,1,2,3,0,0,0
40117892,0,0.0,0.0,0.23235208,0.6196295,-0.03287486,0.24050389,0.60899144,-0.2548081,-0.0040435335,0.0021101062,0.016354289,0.0071948296,0.0008437185,-0.003844313,0.00022075027,-0.73469853,-0.44485325,-0.23504452,3.1212833,0.0,0.1,-0.016354289,0.005375485,0.003689409,0.026371779,0.017517943,inf,inf,inf,inf,1,1,1,1,2,1,2,3,0,0,0
40221885,0,0.0,0.0,0.23210728,0.61986744,-0.03272352,0.24050389,0.60899144,-0.2548081,-0.0053291265,0.0010112682,0.016001532,0.00670512,0.0008437185,-0.003844313,0.00022075027,-0.03543486,-0.70850325,0.13060914,3.1215978,0.0,0.1,-0.016001532,0.0054292395,0.0037247287,0.026454644,0.01755901,inf,inf,inf,inf,1,1,1,1,2,1,2,3,0,0,0
40325884,0,0.0,0.0,0.23189703,0.6200941,-0.03266632,0.24050389,0.60899144,-0.2548081,-0.0024243665,0.0017502487,0.01797159,0.008506019,0.0008437185,-0.003844313,0.00022075027,-0.78787106,0.41372764,-0.16969642,3.1218963,0.0,0.1,-0.01797159,0.0051792297,0.0035619324,0.025911829,0.017244417,inf,inf,inf,inf,1,1,1,1,2,1,2,3,0,0,0
40421870,0,0.0,0.0,0.23182775,0.620311,-0.03272081,0.24050389,0.60899144,-0.2548081,0.0019226655,0.0011093704,0.016473893,0.0068382304,0.0008437185,-0.003844313,0.00022075027,0.66076475,-0.6754751,0.35106394,3.1218681,0.0,0.1,-0.016473893,0.004924537,0.00339338,0.025391923,0.016929232,inf,inf,inf,inf,1,1,1,1,2,1,2,3,0,0,0
40525876,0,0.0,0.0,0.23195304,0.6205557,-0.032747377,0.24050389,0.60899144,-0.2548081,-0.00045928138,0.0062823906,0.017186403,0.0074295914,0.0008437185,-0.003844313,0.00022075027,-0.5005989,1.0922402,-0.2206918,3.1218734,0.0,0.1,-0.017186403,0.0051144413,0.0035172843,0.025841763,0.01720779,inf,inf,inf,inf,1,1,1,1,2,1,2,3,0,0,0
40625092,0,0.0,0.0,0.23209482,0.6207081,-0.032713518,0.24050389,0.60899144,-0.2548081,0.0048521785,0.0019457712,0.015701462,0.0058459174,0.0008437185,-0.003844313,0.00022075027,0.51800615,0.48918498,0.1549139,3.1214657,0.0,0.1,-0.015701462,0.005185855,0.0035632027,0.026044056,0.017324578,inf,inf,inf,inf,1,1,1,1,2,1,2,3,0,0,0
40729091,0,0.0,0.0,0.23222554,0.62087876,-0.032745425,0.24050389,0.60899144,-0.2548081,-0.002655569,0.003360474,0.014536327,0.0046354537,0.0008437185,-0.003844313,0.00022075027,-0.6547914,-0.9868499,-0.5051255,3.121589,0.0,0.1,-0.014536327,0.005423934,0.0037190616,0.02672984,0.01775241,inf,inf,inf,inf,1,1,1,1,2,1,2,3,0,0,0
40833108,0,0.0,0.0,0.23250572,0.6208818,-0.0328815,0.24050389,0.60899144,-0.2548081,0.002137784,0.0007518931,0.0171862,0.0072294096,0.0008437185,-0.003844313,0.00022075027,0.26512587,0.27813917,0.34278268,3.1217914,0.0,0.1,-0.0171862,0.00518752,0.0035671596,0.026033144,0.017334918,inf,inf,inf,inf,1,1,1,1,2,1,2,3,0,0,0
40929099,0,0.0,0.0,0.23269528,0.6208126,-0.033029553,0.24050389,0.60899144,-0.2548081,0.0034355056,-0.002580986,0.016017709,0.0060049905,0.0008437185,-0.003844313,0.00022075027,0.6144048,-1.226007,0.48982894,3.1215096,0.0,0.1,-0.016017709,0.0052188016,0.003586936,0.026135324,0.01739147,inf,inf,inf,inf,1,1,1,1,2,1,2,3,0,0,0
41033070,0,0.0,0.0,0.23285982,0.62064993,-0.033186104,0.24050389,0.60899144,-0.2548081,0.0013140991,0.0036505735,0.01569471,0.0056559583,0.0008437185,-0.003844313,0.00022075027,-1.0813046,1.0118573,0.14762928,3.1218886,0.0,0.1,-0.01569471,0.0050575174,0.0034821553,0.025657171,0.017108073,inf,inf,inf,inf,1,1,1,1,2,1,2,3,0,0,0
41136302,0,0.0,0.0,0.23289493,0.6202973,-0.033394378,0.24050389,0.60899144,-0.2548081,-0.0012185198,-0.000881866,0.013275795,0.0032661036,0.0008437185,-0.003844313,0.00022075027,-1.2661713,-0.76047796,0.070533946,3.121427,0.0,0.1,-0.013275795,0.0051712566,0.0035577524,0.025848882,0.01721898,inf,inf,inf,inf,1,1,1,1,2,1,2,3,0,0,0
41240269,0,0.0,0.0,0.23279983,0.6199691,-0.03357579,0.24050389,0.60899144,-0.2548081,-0.0010942847,-0.00378432,0.012971,0.0030165035,0.0008437185,-0.003844313,0.00022075027,0.4373816,-0.3599559,0.5224076,3.1215565,0.0,0.1,-0.012971,0.005221595,0.0035921037,0.025894701,0.017235631,inf,inf,inf,inf,1,1,1,1,2,1,2,3,0,0,0
41344301,0,0.0,0.0,0.2326069,0.61971116,-0.033806063,0.24050389,0.60899144,-0.2548081,0.0018400422,0.00061065576,0.013861115,0.003950944,0.0008437185,-0.003844313,0.00022075027,0.29720172,1.761549,0.12583719,3.1220522,0.0,0.1,-0.013861115,0.005020973,0.003459382,0.025512083,0.017015453,inf,inf,inf,inf,1,1,1,1,2,1,2,3,0,0,0
41440269,0,0.0,0.0,0.2324002,0.6194687,-0.03406107,0.24050389,0.60899144,-0.2548081,0.0019429543,-0.003167589,0.01229759,0.0024517823,0.0008437185,-0.003844313,0.00022075027,0.6668614,0.28763536,0.31031495,3.121591,0.0,0.1,-0.01229759,0.005034982,0.0034678488,0.025569934,0.017047917,inf,inf,inf,inf,1,1,1,1,2,1,2,3,0,0,0
41544271,0,0.0,0.0,0.23218128,0.61932933,-0.034430016,0.24050389,0.60899144,-0.2548081,-0.0032721048,0.00254274,0.0093581285,-0.00041974787,0.0008437185,-0.003844313,0.00022075027,-0.5844748,1.4104761,-0.7314715,3.121734,0.0,0.1,-0.0093581285,0.005294636,0.0036339387,0.026385978,0.017539492,inf,inf,inf,inf,1,1,1,1,2,1,2,3,0,0,0
41647499,0,0.0,0.0,0.23195988,0.6193964,-0.03488827,0.24050389,0.60899144,-0.2548081,-0.0005471516,-0.0027820275,0.010101255,0.00043169426,0.0008437185,-0.003844313,0.00022075027,0.65717083,-1.4928082,0.17993735,3.1216578,0.0,0.1,-0.010101255,0.005161748,0.0035477444,0.026010716,0.01731069,inf,inf,inf,inf,1,1,1,1,2,1,2,3,0,0,0
41751470,0,0.0,0.0,0.23179348,0.6194882,-0.03516481,0.24050389,0.60899144,-0.2548081,-0.00070786336,0.003479076,0.011457871,0.0019588908,0.0008437185,-0.003844313,0.00022075027,-0.49141458,1.3495404,-0.14138147,3.121083,0.0,0.1,-0.011457871,0.005023987,0.0034591777,0.025561908,0.017045513,inf,inf,inf,inf,1,1,1,1,2,1,2,3,0,0,0
41847470,0,0.0,0.0,0.23158681,0.6196984,-0.035249002,0.24050389,0.60899144,-0.2548081,-9.042559e-05,-0.0010413105,0.013827047,0.004551218,0.0008437185,-0.003844313,0.00022075027,0.32853636,0.15615977,0.3122833,3.122055,0.0,0.1,-0.013827047,0.0053518517,0.0036741942,0.026296072,0.01748274,inf,inf,inf,inf,1,1,1,1,2,1,2,3,0,0,0
41951498,0,0.0,0.0,0.23144498,0.62000537,-0.03522714,0.24050389,0.60899144,-0.2548081,-0.0025152669,-0.00011520557,0.013058562,0.0040225377,0.0008437185,-0.003844313,0.00022075027,-0.7811954,-0.60778254,0.1563456,3.1221132,0.0,0.1,-0.013058562,0.0048829466,0.003367161,0.025219519,0.016846292,inf,inf,inf,inf,1,1,1,1,2,1,2,3,0,0,0
42055496,0,0.0,0.0,0.2313223,0.6201443,-0.03509603,0.24050389,0.60899144,-0.2548081,0.00030144176,-0.0012231946,0.012662886,0.00387794,0.0008437185,-0.003844313,0.00022075027,0.54908854,-0.52603006,0.73500806,3.121341,0.0,0.1,-0.012662886,0.005172237,0.0035539854,0.026072381,0.017354991,inf,inf,inf,inf,1,1,1,1,2,1,2,3,0,0,0
42150670,0,0.0,0.0,0.23135239,0.62024665,-0.034911763,0.24050389,0.60899144,-0.2548081,-0.0030919567,0.00022003781,0.012931768,0.004349605,0.0008437185,-0.003844313,0.00022075027,-0.1772293,0.31338838,0.18462035,3.1215296,0.0,0.1,-0.012931768,0.005197648,0.0035728842,0.025986182,0.017305091,inf,inf,inf,inf,1,1,1,1,2,1,2,3,0,0,0
42254670,0,0.0,0.0,0.23140857,0.6202516,-0.034680717,0.24050389,0.60899144,-0.2548081,0.0019966157,-0.0024825723,0.013231371,0.004789378,0.0008437185,-0.003844313,0.00022075027,0.7985077,0.10186733,0.24499373,3.1221464,0.0,0.1,-0.013231371,0.0049954215,0.003442227,0.025392085,0.016938696,inf,inf,inf,inf,1,1,1,1,2,1,2,3,0,0,0
42358684,0,0.0,0.0,0.23149543,0.6200848,-0.03441417,0.24050389,0.60899144,-0.2548081,-0.0012495911,-5.0821654e-05,0.012457733,0.004090805,0.0008437185,-0.003844313,0.00022075027,-0.41776505,0.5164509,-0.61341614,3.1215832,0.0,0.1,-0.012457733,0.0051561883,0.0035473215,0.025824571,0.017211413,inf,inf,inf,inf,1,1,1,1,2,1,2,3,0,0,0
42462705,0,0.0,0.0,0.23167099,0.6199525,-0.034214925,0.24050389,0.60899144,-0.2548081,0.0012791983,-0.0042787045,0.014895657,0.0065396894,0.0008437185,-0.003844313,0.00022075027,1.0563221,-0.82672924,0.22296266,3.1216486,0.0,0.1,-0.014895657,0.005003709,0.0034471082,0.025489947,0.017007612,inf,inf,inf,inf,1,1,1,1,2,1,2,3,0,0,0
42566687,0,0.0,0.0,0.23172244,0.6198244,-0.03396755,0.24050389,0.60899144,-0.2548081,0.0029096694,0.00043001177,0.014878271,0.006515915,0.0008437185,-0.003844313,0.00022075027,0.08549039,0.83599526,-0.17508732,3.1217072,0.0,0.1,-0.014878271,0.00516587,0.0035530915,0.025905574,0.017254878,inf,inf,inf,inf,1,1,1,1,2,1,2,3,0,0,0
42661869,0,0.0,0.0,0.23177476,0.61979973,-0.03374572,0.24050389,0.60899144,-0.2548081,-0.00033273344,-0.003055639,0.018045966,0.009648566,0.0008437185,-0.003844313,0.00022075027,0.22154218,0.32976273,0.49168816,3.1220267,0.0,0.1,-0.018045966,0.005214175,0.0035843204,0.026042473,0.017341098,inf,inf,inf,inf,1,1,1,1,2,1,2,3,0,0,0
42765883,0,0.0,0.0,0.23175934,0.61976075,-0.033504073,0.24050389,0.60899144,-0.2548081,-0.0022592999,-0.002412946,0.016462477,0.008001959,0.0008437185,-0.003844313,0.00022075027,-0.4963309,-0.31911692,-0.09980793,3.122076,0.0,0.1,-0.016462477,0.005003072,0.003447506,0.025414612,0.016960494,inf,inf,inf,inf,1,1,1,1,2,1,2,3,0,0,0
42869870,0,0.0,0.0,0.23167795,0.61970884,-0.03332914,0.24050389,0.60899144,-0.2548081,0.00018678186,-0.0039741322,0.017012596,0.008453577,0.0008437185,-0.003844313,0.00022075027,0.7005509,-0.03190152,0.27468607,3.1220846,0.0,0.1,-0.017012596,0.0052371933,0.0035987648,0.026158767,0.017410116,inf,inf,inf,inf,1,1,1,1,2,1,2,3,0,0,0
42973887,0,0.0,0.0,0.23141272,0.6197655,-0.03316684,0.24050389,0.60899144,-0.2548081,-0.004025018,0.0002775996,0.015036825,0.006388521,0.0008437185,-0.003844313,0.00022075027,-1.334259,0.3901679,-0.42953402,3.121636,0.0,0.1,-0.015036825,0.005383785,0.0036961366,0.026407847,0.01756323,inf,inf,inf,inf,1,1,1,1,2,1,2,3,0,0,0
43077870,0,0.0,0.0,0.23106802,0.6197983,-0.033006065,0.24050389,0.60899144,-0.2548081,0.0006868119,-0.0032256343,0.018245682,0.009482419,0.0008437185,-0.003844313,0.00022075027,1.7604884,-0.6474773,0.49686143,3.1211083,0.0,0.1,-0.018245682,0.00510354,0.0035152836,0.025644807,0.017111357,inf,inf,inf,inf,1,1,1,1,2,1,2,3,0,0,0
43173070,0,0.0,0.0,0.23069635,0.6198889,-0.032959536,0.24050389,0.60899144,-0.2548081,-0.0035291302,-0.0063780113,0.016104616,0.0072055166,0.0008437185,-0.003844313,0.00022075027,0.8721725,-1.2870812,0.53368986,3.1217976,0.0,0.1,-0.016104616,0.0051683043,0.003555284,0.025972994,0.01730884,inf,inf,inf,inf,1,1,1,1,2,1,2,3,0,0,0
43277077,0,0.0,0.0,0.23014592,0.61990184,-0.03292893,0.24050389,0.60899144,-0.2548081,-0.0063645225,-0.00091207493,0.014458232,0.0054454035,0.0008437185,-0.003844313,0.00022075027,-1.4152389,0.32267603,-0.44254395,3.1216838,0.0,0.1,-0.014458232,0.0053259325,0.0036585126,0.026340952,0.017529631,inf,inf,inf,inf,1,1,1,1,2,1,2,3,0,0,0
43381076,0,0.0,0.0,0.2298004,0.61995554,-0.03289534,0.24050389,0.60899144,-0.2548081,-0.0012968075,-0.003302737,0.01621193,0.0070640026,0.0008437185,-0.003844313,0.00022075027,2.5559874,-0.3889468,0.34974536,3.1214912,0.0,0.1,-0.01621193,0.00510705,0.003516281,0.025748046,0.017175127,inf,inf,inf,inf,1,1,1,1,2,1,2,3,0,0,0
43485088,0,0.0,0.0,0.22950691,0.62010694,-0.032879196,0.24050389,0.60899144,-0.2548081,-0.007027893,0.0007577588,0.014683932,0.005424476,0.0008437185,-0.003844313,0.00022075027,-1.5058614,0.8045259,-0.3239276,3.1212983,0.0,0.1,-0.014683932,0.005041129,0.003471229,0.025684481,0.017136067,inf,inf,inf,inf,1,1,1,1,2,1,2,3,0,0,0
43589070,0,0.0,0.0,0.22925095,0.6203222,-0.032888994,0.24050389,0.60899144,-0.2548081,-0.0030456076,-0.00032260193,0.015992977,0.006657235,0.0008437185,-0.003844313,0.00022075027,1.0763385,-0.74289924,0.7393403,3.1218364,0.0,0.1,-0.015992977,0.005185981,0.0035678896,0.025916466,0.017276613,inf,inf,inf,inf,1,1,1,1,2,1,2,3,0,0,0
43692270,0,0.0,0.0,0.22906499,0.62063456,-0.03292064,0.24050389,0.60899144,-0.2548081,-0.00595979,0.0041469955,0.015643226,0.006217806,0.0008437185,-0.003844313,0.00022075027,-0.9131192,0.6911781,-0.715767,3.1218455,0.0,0.1,-0.015643226,0.0052752206,0.0036280423,0.02606102,0.017371757,inf,inf,inf,inf,1,1,1,1,2,1,2,3,0,0,0
43796270,0,0.0,0.0,0.22892387,0.62102926,-0.03290401,0.24050389,0.60899144,-0.2548081,-0.0037601667,0.00043769446,0.017660964,0.00814696,0.0008437185,-0.003844313,0.00022075027,1.037808,0.10702353,0.36235517,3.1218526,0.0,0.1,-0.017660964,0.0053318376,0.0036659017,0.026173621,0.017435431,inf,inf,inf,inf,1,1,1,1,2,1,2,3,0,0,0
43892281,0,0.0,0.0,0.22893164,0.62125754,-0.032895677,0.24050389,0.60899144,-0.2548081,-0.005659702,-0.0014918951,0.015848022,0.006246202,0.0008437185,-0.003844313,0.00022075027,-0.8504452,-1.2793676,0.07904146,3.1214523,0.0,0.1,-0.015848022,0.005022064,0.0034613668,0.025558272,0.017071623,inf,inf,inf,inf,1,1,1,1,2,1,2,3,0,0,0
43996271,0,0.0,0.0,0.2290929,0.6215354,-0.032835927,0.24050389,0.60899144,-0.2548081,-0.0015715222,0.004561173,0.016023163,0.0064071687,0.0008437185,-0.003844313,0.00022075027,-0.062263176,1.6514814,-0.29318175,3.1216242,0.0,0.1,-0.016023163,0.0054405523,0.0037362266,0.026502423,0.017631685,inf,inf,inf,inf,1,1,1,1,2,1,2,3,0,0,0
44095478,0,0.0,0.0,0.22945902,0.6217832,-0.032853547,0.24050389,0.60899144,-0.2548081,-0.0033314682,0.0030345598,0.015290234,0.005597968,0.0008437185,-0.003844313,0.00022075027,-1.2975425,0.0014842069,-0.019003876,3.1220348,0.0,0.1,-0.015290234,0.0050173644,0.003460364,0.025440479,0.016993746,inf,inf,inf,inf,1,1,1,1,2,1,2,3,0,0,0
44199481,0,0.0,0.0,0.23003232,0.621807,-0.032993276,0.24050389,0.60899144,-0.2548081,0.0052619055,-0.00071079197,0.015401641,0.005624288,0.0008437185,-0.003844313,0.00022075027,0.92589253,0.027605774,0.45648462,3.1218934,0.0,0.1,-0.015401641,0.0051702643,0.0035591738,0.025896383,0.01726961,inf,inf,inf,inf,1,1,1,1,2,1,2,3,0,0,0
44303477,0,0.0,0.0,0.230874,0.6218382,-0.03309158,0.24050389,0.60899144,-0.2548081,0.00059100834,-0.0016194365,0.013207008,0.003383167,0.0008437185,-0.003844313,0.00022075027,-1.3498272,-0.578721,-0.77094465,3.1213257,0.0,0.1,-0.013207008,0.005315845,0.0036552227,0.02639086,0.017579498,inf,inf,inf,inf,1,1,1,1,2,1,2,3,0,0,0
44407487,0,0.0,0.0,0.23192245,0.621757,-0.033286355,0.24050389,0.60899144,-0.2548081,0.011220199,-0.00039350425,0.014738718,0.004893089,0.0008437185,-0.003844313,0.00022075027,0.36443013,-0.14017254,0.05621982,3.1213837,0.0,0.1,-0.014738718,0.005406781,0.0037141382,0.026545387,0.01766796,inf,inf,inf,inf,1,1,1,1,2,1,2,3,0,0,0
44503470,0,0.0,0.0,0.23299904,0.6215886,-0.033529874,0.24050389,0.60899144,-0.2548081,0.014955481,0.00042810073,0.012420341,0.0025918444,0.0008437185,-0.003844313,0.00022075027,1.2211132,0.41407013,-0.26535434,3.1219568,0.0,0.1,-0.012420341,0.005321621,0.0036596837,0.026250532,0.017485792,inf,inf,inf,inf,1,1,1,1,2,1,2,3,0,0,0
44607476,0,0.0,0.0,0.23415783,0.6214519,-0.033797916,0.24050389,0.60899144,-0.2548081,0.008552945,-0.002453976,0.013510829,0.0037064296,0.0008437185,-0.003844313,0.00022075027,-1.3545511,-0.73417085,0.2947184,3.1219034,0.0,0.1,-0.013510829,0.005072365,0.0034963498,0.025628904,0.01711234,inf,inf,inf,inf,1,1,1,1,2,1,2,3,0,0,0
44710715,0,0.0,0.0,0.23515615,0.6213187,-0.034105875,0.24050389,0.60899144,-0.2548081,0.016125966,-0.00046491862,0.012557403,0.002791392,0.0008437185,-0.003844313,0.00022075027,0.4825803,1.0022548,-0.081257395,3.1215696,0.0,0.1,-0.012557403,0.004940481,0.0034074695,0.02540492,0.016963724,inf,inf,inf,inf,1,1,1,1,2,1,2,3,0,0,0
44814688,0,0.0,0.0,0.23599467,0.6211918,-0.03438077,0.24050389,0.60899144,-0.2548081,0.015626388,-0.0038159888,0.012016288,0.0023519362,0.0008437185,-0.003844313,0.00022075027,0.3204495,-1.1205417,0.15062629,3.1215668,0.0,0.1,-0.012016288,0.00515641,0.0035470456,0.025999727,0.017328685,inf,inf,inf,inf,1,1,1,1,2,1,2,3,0,0,0
44910669,0,0.0,0.0,0.23653579,0.6211709,-0.03460295,0.24050389,0.60899144,-0.2548081,0.014195937,-0.002780097,0.011424277,0.0018809123,0.0008437185,-0.003844313,0.00022075027,0.39768198,-1.2105681,0.34508717,3.1217892,0.0,0.1,-0.011424277,0.0051783477,0.003561829,0.025964743,0.0173028,inf,inf,inf,inf,1,1,1,1,2,1,2,3,0,0,0
45014670,0,0.0,0.0,0.23692988,0.6211423,-0.03465112,0.24050389,0.60899144,-0.2548081,0.015914503,0.0031888583,0.012204768,0.0028162845,0.0008437185,-0.003844313,0.00022075027,-0.040853877,1.5312395,-0.7307988,3.1214974,0.0,0.1,-0.012204768,0.0053098802,0.0036489277,0.026208313,0.017445412,inf,inf,inf,inf,1,1,1,1,2,1,2,3,0,0,0
45118681,0,0.0,0.0,0.2371089,0.6211882,-0.034558233,0.24050389,0.60899144,-0.2548081,0.01667304,-0.0056878272,0.014788816,0.0055696587,0.0008437185,-0.003844313,0.00022075027,0.93624943,-1.5401998,0.3020908,3.121632,0.0,0.1,-0.014788816,0.0050552282,0.003484084,0.025511,0.017032953,inf,inf,inf,inf,1,1,1,1,2,1,2,3,0,0,0
45221870,0,0.0,0.0,0.23719892,0.62128603,-0.034488708,0.24050389,0.60899144,-0.2548081,0.012363226,0.0015680584,0.0141203515,0.005037948,0.0008437185,-0.003844313,0.00022075027,-1.6192205,1.0127379,0.06556583,3.1218853,0.0,0.1,-0.0141203515,0.0049319,0.003401143,0.025347596,0.016935682,inf,inf,inf,inf,1,1,1,1,2,1,2,3,0,0,0
45317870,0,0.0,0.0,0.23721945,0.62142086,-0.034475744,0.24050389,0.60899144,-0.2548081,0.01757625,0.0029635262,0.010344193,0.0013625216,0.0008437185,-0.003844313,0.00022075027,-0.37752736,0.86263806,-0.8138372,3.1213918,0.0,0.1,-0.010344193,0.0050049955,0.003447992,0.025580933,0.017075172,inf,inf,inf,inf,1,1,1,1,2,1,2,3,0,0,0
45421876,0,0.0,0.0,0.23722929,0.6215297,-0.0346028,0.24050389,0.60899144,-0.2548081,0.017520769,-0.003101622,0.013394181,0.0044756043,0.0008437185,-0.003844313,0.00022075027,0.5383789,-0.846032,0.3734474,3.1217282,0.0,0.1,-0.013394181,0.004916515,0.003389302,0.025347335,0.016930586,inf,inf,inf,inf,1,1,1,1,2,1,2,3,0,0,0
45525873,0,0.0,0.0,0.2373244,0.6216943,-0.034744855,0.24050389,0.60899144,-0.2548081,0.016560089,0.0018044484,0.011930641,0.003030552,0.0008437185,-0.003844313,0.00022075027,0.27241987,0.62722456,-0.01875325,3.122032,0.0,0.1,-0.011930641,0.0049356213,0.0033995728,0.025506666,0.017024864,inf,inf,inf,inf,1,1,1,1,2,1,2,3,0,0,0
45629870,0,0.0,0.0,0.23746929,0.62181944,-0.034827862,0.24050389,0.60899144,-0.2548081,0.020824805,-2.5821714e-06,0.011251893,0.0024279999,0.0008437185,-0.003844313,0.00022075027,0.1485162,0.49930727,-0.19615944,3.1214628,0.0,0.1,-0.011251893,0.0052170213,0.0035835977,0.02617267,0.01742301,inf,inf,inf,inf,1,1,1,1,2,1,2,3,0,0,0
45725085,0,0.0,0.0,0.23779513,0.6218865,-0.034896646,0.24050389,0.60899144,-0.2548081,0.021051504,0.0013632671,0.0112633845,0.0025564767,0.0008437185,-0.003844313,0.00022075027,-0.053178374,0.42366,-0.3054901,3.1215763,0.0,0.1,-0.0112633845,0.0052700373,0.0036206206,0.026159838,0.017419714,inf,inf,inf,inf,1,1,1,1,2,1,2,3,0,0,0
45829070,0,0.0,0.0,0.23818254,0.62194,-0.034932733,0.24050389,0.60899144,-0.2548081,0.021897236,-0.0015037224,0.013495627,0.0049217963,0.0008437185,-0.003844313,0.00022075027,0.8325076,-0.6602006,0.47226664,3.121849,0.0,0.1,-0.013495627,0.005097883,0.0035093888,0.025697414,0.017142901,inf,inf,inf,inf,1,1,1,1,2,1,2,3,0,0,0
45933076,0,0.0,0.0,0.23851298,0.6218795,-0.034877036,0.24050389,0.60899144,-0.2548081,0.01986637,0.00091011607,0.012715314,0.004285794,0.0008437185,-0.003844313,0.00022075027,-0.98409164,0.7127296,0.14153574,3.1216235,0.0,0.1,-0.012715314,0.0052243914,0.003593366,0.0259337,0.017277995,inf,inf,inf,inf,1,1,1,1,2,1,2,3,0,0,0
46029114,0,0.0,0.0,0.23880218,0.6218407,-0.03478899,0.24050389,0.60899144,-0.2548081,0.022372013,-0.0023208552,0.012581088,0.0042928047,0.0008437185,-0.003844313,0.00022075027,0.22524859,-0.5666818,-0.1880999,3.121628,0.0,0.1,-0.012581088,0.005403946,0.0037143829,0.026199078,0.017443337,inf,inf,inf,inf,1,1,1,1,2,1,2,3,0,0,0
46133070,0,0.0,0.0,0.23903704,0.6218769,-0.03467669,0.24050389,0.60899144,-0.2548081,0.02305037,8.5201646e-05,0.013488043,0.0052812384,0.0008437185,-0.003844313,0.00022075027,-0.033387948,-0.39527872,0.1124603,3.1214135,0.0,0.1,-0.013488043,0.00538231,0.0037006284,0.026205054,0.017439632,inf,inf,inf,inf,1,1,1,1,2,1,2,3,0,0,0
46236276,0,0.0,0.0,0.23913886,0.62188756,-0.034647707,0.24050389,0.60899144,-0.2548081,0.024846151,0.0001815814,0.012098674,0.0039308206,0.0008437185,-0.003844313,0.00022075027,-0.039793324,0.42098176,0.06311583,3.1217024,0.0,0.1,-0.012098674,0.005396184,0.0037084513,0.026352964,0.017531188,inf,inf,inf,inf,1,1,1,1,2,1,2,3,0,0,0
46340285,0,0.0,0.0,0.23924553,0.6219716,-0.034590293,0.24050389,0.60899144,-0.2548081,0.026424378,-0.0017330162,0.0126083465,0.0044773356,0.0008437185,-0.003844313,0.00022075027,1.023972,-1.2465968,0.34410492,3.1216085,0.0,0.1,-0.0126083465,0.005423545,0.0037251709,0.026458425,0.01758888,inf,inf,inf,inf,1,1,1,1,2,1,2,3,0,0,0
46436270,0,0.0,0.0,0.23935927,0.6221368,-0.03449033,0.24050389,0.60899144,-0.2548081,0.025014374,0.0014909351,0.011755123,0.0036196813,0.0008437185,-0.003844313,0.00022075027,0.16163662,0.31911376,-0.23193681,3.1214886,0.0,0.1,-0.011755123,0.005055281,0.0034827366,0.025656067,0.017109316,inf,inf,inf,inf,1,1,1,1,2,1,2,3,0,0,0
46540325,0,0.0,0.0,0.23944545,0.6223029,-0.03438471,0.24050389,0.60899144,-0.2548081,0.024509767,4.876427e-05,0.0137050375,0.0055944445,0.0008437185,-0.003844313,0.00022075027,0.08737088,-0.43175468,-0.056527868,3.1212602,0.0,0.1,-0.0137050375,0.005130569,0.0035330127,0.02573868,0.017162418,inf,inf,inf,inf,1,1,1,1,2,1,2,3,0,0,0
46644314,0,0.0,0.0,0.23939785,0.62248605,-0.03429891,0.24050389,0.60899144,-0.2548081,0.023910172,0.003252929,0.014297896,0.0061610662,0.0008437185,-0.003844313,0.00022075027,0.05880996,0.10125649,-0.20778753,3.1216247,0.0,0.1,-0.014297896,0.0049967295,0.003442343,0.025588244,0.017073192,inf,inf,inf,inf,1,1,1,1,2,1,2,3,0,0,0
46743506,0,0.0,0.0,0.23940136,0.6227122,-0.03415122,0.24050389,0.60899144,-0.2548081,0.024352428,0.002186045,0.013493022,0.0053274124,0.0008437185,-0.003844313,0.00022075027,-0.34704444,0.37215102,0.09337364,3.1218069,0.0,0.1,-0.013493022,0.0051435586,0.003535681,0.026055563,0.017349115,inf,inf,inf,inf,1,1,1,1,2,1,2,3,0,0,0
46847484,0,0.0,0.0,0.2392452,0.6228917,-0.033924554,0.24050389,0.60899144,-0.2548081,0.025522735,0.0013872503,0.01416403,0.005999174,0.0008437185,-0.003844313,0.00022075027,0.22097605,-0.7309116,0.2697833,3.1215084,0.0,0.1,-0.01416403,0.0053396514,0.0036650891,0.026400799,0.017561933,inf,inf,inf,inf,1,1,1,1,2,1,2,3,0,0,0
46943500,0,0.0,0.0,0.2391192,0.6230379,-0.033854324,0.24050389,0.60899144,-0.2548081,0.023579638,0.0013983782,0.014177586,0.0059948317,0.0008437185,-0.003844313,0.00022075027,0.57187676,-0.15012102,0.003471902,3.1217139,0.0,0.1,-0.014177586,0.0053259092,0.003659871,0.026311431,0.017516587,inf,inf,inf,inf,1,1,1,1,2,1,2,3,0,0,0
47047470,0,0.0,0.0,0.23897621,0.6231481,-0.0339087,0.24050389,0.60899144,-0.2548081,0.024453504,0.0016380748,0.012973507,0.004732906,0.0008437185,-0.003844313,0.00022075027,0.053627614,0.19001672,0.117733315,3.1219876,0.0,0.1,-0.012973507,0.0053847763,0.0036999334,0.026362907,0.017545633,inf,inf,inf,inf,1,1,1,1,2,1,2,3,0,0,0
47151470,0,0.0,0.0,0.23878184,0.62315273,-0.03405081,0.24050389,0.60899144,-0.2548081,0.024721969,-5.1576546e-05,0.01151678,0.0032168133,0.0008437185,-0.003844313,0.00022075027,0.68593293,-0.18191525,0.09959205,3.121679,0.0,0.1,-0.01151678,0.005092691,0.0035096325,0.025617877,0.0170964,inf,inf,inf,inf,1,1,1,1,2,1,2,3,0,0,0
47246692,0,0.0,0.0,0.23856913,0.6232002,-0.03421493,0.24050389,0.60899144,-0.2548081,0.023603631,0.0018965577,0.012301092,0.003967334,0.0008437185,-0.003844313,0.00022075027,0.30601004,0.115425944,0.009656001,3.121165,0.0,0.1,-0.012301092,0.005383837,0.0036991253,0.02636066,0.017536787,inf,inf,inf,inf,1,1,1,1,2,1,2,3,0,0,0
47350669,0,0.0,0.0,0.23825952,0.6231915,-0.034448482,0.24050389,0.60899144,-0.2548081,0.021484992,0.0028500243,0.011271144,0.002905561,0.0008437185,-0.003844313,0.00022075027,-0.23653546,-0.041211516,0.09514558,3.1218197,0.0,0.1,-0.011271144,0.0051169535,0.0035236042,0.025748895,0.017166892,inf,inf,inf,inf,1,1,1,1,2,1,2,3,0,0,0
47454676,0,0.0,0.0,0.23791468,0.62313676,-0.03474135,0.24050389,0.60899144,-0.2548081,0.021912672,0.001028422,0.008952456,0.00061897276,0.0008437185,-0.003844313,0.00022075027,-0.2126662,0.02983671,0.1845611,3.1216824,0.0,0.1,-0.008952456,0.004983557,0.003434161,0.025503814,0.017008867,inf,inf,inf,inf,1,1,1,1,2,1,2,3,0,0,0
47558670,0,0.0,0.0,0.23752306,0.62314147,-0.034970935,0.24050389,0.60899144,-0.2548081,0.021223279,0.0030743028,0.010199418,0.0019130874,0.0008437185,-0.003844313,0.00022075027,0.73517317,0.76569086,-0.07898087,3.1215897,0.0,0.1,-0.010199418,0.0049129785,0.0033859126,0.025390659,0.016944984,inf,inf,inf,inf,1,1,1,1,2,1,2,3,0,0,0
47662670,0,0.0,0.0,0.23710737,0.6230138,-0.035098046,0.24050389,0.60899144,-0.2548081,0.020250196,-0.0004261846,0.010601288,0.0024121013,0.0008437185,-0.003844313,0.00022075027,-0.080877244,-0.21037523,0.2571458,3.1216786,0.0,0.1,-0.010601288,0.0051789624,0.0035583337,0.02608475,0.01735894,inf,inf,inf,inf,1,1,1,1,2,1,2,3,0,0,0
47757923,0,0.0,0.0,0.23672286,0.6229339,-0.035122514,0.24050389,0.60899144,-0.2548081,0.017478906,-0.0018382391,0.011455929,0.0033995328,0.0008437185,-0.003844313,0.00022075027,-0.11748625,-0.37914956,-0.07348359,3.1219397,0.0,0.1,-0.011455929,0.005222023,0.0035879659,0.02608141,0.017364569,inf,inf,inf,inf,1,1,1,1,2,1,2,3,0,0,0
47861870,0,0.0,0.0,0.23636594,0.62274384,-0.035007235,0.24050389,0.60899144,-0.2548081,0.018978188,0.0009466366,0.0140598845,0.0061358497,0.0008437185,-0.003844313,0.00022075027,-0.049435925,0.90743494,0.68412524,3.1218698,0.0,0.1,-0.0140598845,0.005401226,0.0037053672,0.026483731,0.017594572,inf,inf,inf,inf,1,1,1,1,2,1,2,3,0,0,0
47965870,0,0.0,0.0,0.23607391,0.6225561,-0.03488491,0.24050389,0.60899144,-0.2548081,0.02099794,-0.0011548629,0.011839214,0.0040159877,0.0008437185,-0.003844313,0.00022075027,0.21731845,0.3316312,0.18774368,3.121934,0.0,0.1,-0.011839214,0.005197984,0.0035735527,0.02596149,0.017285826,inf,inf,inf,inf,1,1,1,1,2,1,2,3,0,0,0
48069870,0,0.0,0.0,0.23576711,0.62249935,-0.034714278,0.24050389,0.60899144,-0.2548081,0.018002335,-0.0013072849,0.011232083,0.0034868072,0.0008437185,-0.003844313,0.00022075027,0.14280045,-0.7445124,0.30118778,3.1217468,0.0,0.1,-0.011232083,0.0050807283,0.003495965,0.025739817,0.017148094,inf,inf,inf,inf,1,1,1,1,2,1,2,3,0,0,0
48173870,0,0.0,0.0,0.23555186,0.6225709,-0.034605134,0.24050389,0.60899144,-0.2548081,0.019055068,0.005909484,0.010429033,0.0027161653,0.0008437185,-0.003844313,0.00022075027,0.25708678,1.305363,-0.6756623,3.1216226,0.0,0.1,-0.010429033,0.0050059487,0.0034463233,0.025569534,0.017048446,inf,inf,inf,inf,1,1,1,1,2,1,2,3,0,0,0
48269076,0,0.0,0.0,0.23532993,0.6227069,-0.034602545,0.24050389,0.60899144,-0.2548081,0.017008787,0.0021578374,0.013004764,0.0052882247,0.0008437185,-0.003844313,0.00022075027,-0.49877894,0.5408712,0.22119789,3.1216877,0.0,0.1,-0.013004764,0.0051199617,0.0035201407,0.025889447,0.0172396,inf,inf,inf,inf,1,1,1,1,2,1,2,3,0,0,0
48373084,0,0.0,0.0,0.23519854,0.62295926,-0.034666494,0.24050389,0.60899144,-0.2548081,0.019656627,0.002164518,0.010594217,0.002856531,0.0008437185,-0.003844313,0.00022075027,0.3450635,0.43517503,-0.06912765,3.1219742,0.0,0.1,-0.010594217,0.0050115767,0.003450529,0.025535438,0.017030835,inf,inf,inf,inf,1,1,1,1,2,1,2,3,0,0,0
48477078,0,0.0,0.0,0.23516639,0.623181,-0.03475103,0.24050389,0.60899144,-0.2548081,0.01831858,0.0026435235,0.010111994,0.0023954422,0.0008437185,-0.003844313,0.00022075027,-0.33846474,-1.1485606,-0.0054988284,3.1222506,0.0,0.1,-0.010111994,0.0054578385,0.0037440008,0.026476122,0.01759005,inf,inf,inf,inf,1,1,1,1,2,1,2,3,0,0,0
48573077,0,0.0,0.0,0.23517677,0.6233872,-0.03489169,0.24050389,0.60899144,-0.2548081,0.019191278,0.0015014478,0.009400186,0.0017020928,0.0008437185,-0.003844313,0.00022075027,0.51211315,-1.158426,-0.08694943,3.1219563,0.0,0.1,-0.009400186,0.0053186663,0.0036563806,0.026042279,0.017331908,inf,inf,inf,inf,1,1,1,1,2,1,2,3,0,0,0
48677070,0,0.0,0.0,0.23515667,0.62363845,-0.035137873,0.24050389,0.60899144,-0.2548081,0.016665516,0.005940678,0.008709101,0.0010043418,0.0008437185,-0.003844313,0.00022075027,-0.6254211,0.89964354,-0.19579498,3.1215098,0.0,0.1,-0.008709101,0.004889887,0.0033714382,0.025300149,0.016884727,inf,inf,inf,inf,1,1,1,1,2,1,2,3,0,0,0
48780295,0,0.0,0.0,0.2350989,0.6238768,-0.035275646,0.24050389,0.60899144,-0.2548081,0.018781904,0.0033443097,0.010455457,0.002828157,0.0008437185,-0.003844313,0.00022075027,0.5694822,0.30242428,0.08741557,3.1215088,0.0,0.1,-0.010455457,0.005127164,0.0035253784,0.025913753,0.017249053,inf,inf,inf,inf,1,1,1,1,2,1,2,3,0,0,0
48884281,0,0.0,0.0,0.23502876,0.62404305,-0.035272162,0.24050389,0.60899144,-0.2548081,0.017406689,0.0021066547,0.009743721,0.0022307509,0.0008437185,-0.003844313,0.00022075027,0.022176977,-1.1048815,0.14955716,3.1216264,0.0,0.1,-0.009743721,0.0052911737,0.0036336062,0.02622466,0.01744254,inf,inf,inf,inf,1,1,1,1,2,1,2,3,0,0,0
48980270,0,0.0,0.0,0.23493417,0.624225,-0.03530498,0.24050389,0.60899144,-0.2548081,0.016085507,0.0025837529,0.011776382,0.004380942,0.0008437185,-0.003844313,0.00022075027,0.34992224,-0.4930232,0.425899,3.1219954,0.0,0.1,-0.011776382,0.0052276324,0.0035944225,0.025942463,0.017272549,inf,inf,inf,inf,1,1,1,1,2,1,2,3,0,0,0
49084288,0,0.0,0.0,0.23477569,0.6242534,-0.035295587,0.24050389,0.60899144,-0.2548081,0.015284269,0.005451679,0.010337331,0.003049571,0.0008437185,-0.003844313,0.00022075027,-1.0736794,0.45546398,0.07742217,3.1215887,0.0,0.1,-0.010337331,0.0052872202,0.0036346547,0.026052466,0.017337758,inf,inf,inf,inf,1,1,1,1,2,1,2,3,0,0,0
49188270,0,0.0,0.0,0.2344885,0.6242143,-0.035318974,0.24050389,0.60899144,-0.2548081,0.018852688,0.0026590948,0.009736929,0.0025009247,0.0008437185,-0.003844313,0.00022075027,0.743126,-0.19582702,0.25444335,3.1210682,0.0,0.1,-0.009736929,0.0051366067,0.0035332928,0.0258879,0.017237378,inf,inf,inf,inf,1,1,1,1,2,1,2,3,0,0,0
49286711,0,0.0,0.0,0.23423381,0.6241551,-0.03532821,0.24050389,0.60899144,-0.2548081,0.0152282715,0.004938962,0.00991928,0.0027430302,0.0008437185,-0.003844313,0.00022075027,-0.3358342,1.338868,-0.24780825,3.121573,0.0,0.1,-0.00991928,0.005241306,0.003599352,0.026241563,0.017446384,inf,inf,inf,inf,1,1,1,1,2,1,2,3,0,0,0
49391471,0,0.0,0.0,0.23390485,0.6239839,-0.03530647,0.24050389,0.60899144,-0.2548081,0.014396737,-0.0011207934,0.010947726,0.0038426372,0.0008437185,-0.003844313,0.00022075027,0.548711,-0.66957295,0.07504575,3.1219468,0.0,0.1,-0.010947726,0.0052012303,0.0035732808,0.026274333,0.017482633,inf,inf,inf,inf,1,1,1,1,2,1,2,3,0,0,0
49487485,0,0.0,0.0,0.2336505,0.62379754,-0.035319448,0.24050389,0.60899144,-0.2548081,0.017286738,0.00044362148,0.010006326,0.0029671798,0.0008437185,-0.003844313,0.00022075027,0.70740324,0.12371827,0.36812955,3.1217184,0.0,0.1,-0.010006326,0.0053019403,0.0036386068,0.026488416,0.017608944,inf,inf,inf,inf,1,1,1,1,2,1,2,3,0,0,0
49591470,0,0.0,0.0,0.23342025,0.6235689,-0.035356604,0.24050389,0.60899144,-0.2548081,0.013021426,0.0002479667,0.009212632,0.002265843,0.0008437185,-0.003844313,0.00022075027,-0.138244,0.15222831,0.35109457,3.1214006,0.0,0.1,-0.009212632,0.0050952197,0.0035073003,0.025716433,0.01715077,inf,inf,inf,inf,1,1,1,1,2,1,2,3,0,0,0
49695470,0,0.0,0.0,0.23334764,0.62334603,-0.03543316,0.24050389,0.60899144,-0.2548081,0.01230993,0.0009207152,0.007452519,0.0005929468,0.0008437185,-0.003844313,0.00022075027,-0.7378496,-0.1455688,-0.28243735,3.1218805,0.0,0.1,-0.007452519,0.0052406974,0.0036025427,0.026062561,0.017352128,inf,inf,inf,inf,1,1,1,1,2,1,2,3,0,0,0
49798676,0,0.0,0.0,0.2331604,0.62322867,-0.03548246,0.24050389,0.60899144,-0.2548081,0.015219804,0.0016982746,0.009090424,0.002311652,0.0008437185,-0.003844313,0.00022075027,0.30523133,0.09691704,-0.24577849,3.1215498,0.0,0.1,-0.009090424,0.0054028668,0.0037075095,0.026485741,0.017593605,inf,inf,inf,inf,1,1,1,1,2,1,2,3,0,0,0
49894670,0,0.0,0.0,0.23295733,0.62322366,-0.035494026,0.24050389,0.60899144,-0.2548081,0.013426127,0.0018520416,0.010362576,0.003655783,0.0008437185,-0.003844313,0.00022075027,0.3896378,0.49149808,0.315048,3.1215007,0.0,0.1,-0.010362576,0.0053374935,0.0036663536,0.026243066,0.017447202,inf,inf,inf,inf,1,1,1,1,2,1,2,3,0,0,0
49998688,0,0.0,0.0,0.23272917,0.6233082,-0.03537053,0.24050389,0.60899144,-0.2548081,0.009751471,0.0004946062,0.010069104,0.0034355212,0.0008437185,-0.003844313,0.00022075027,0.0071222563,-0.022946656,0.043233965,3.1217618,0.0,0.1,-0.010069104,0.0053895093,0.0037009132,0.026311988,0.017487472,inf,inf,inf,inf,1,1,1,1,2,1,2,3,0,0,0
50102676,0,0.0,0.0,0.23242807,0.623486,-0.035195272,0.24050389,0.60899144,-0.2548081,0.010377208,0.0007015256,0.011742111,0.005176908,0.0008437185,-0.003844313,0.00022075027,-0.43692082,-1.0122663,0.1156054,3.1221406,0.0,0.1,-0.011742111,0.0051048603,0.0035153427,0.025626829,0.017075643,inf,inf,inf,inf,1,1,1,1,2,1,2,3,0,0,0
50206673,0,0.0,0.0,0.23210008,0.6237064,-0.034904674,0.24050389,0.60899144,-0.2548081,0.011002743,0.0038005349,0.0117174955,0.005186804,0.0008437185,-0.003844313,0.00022075027,0.08095413,0.16195805,-0.2838622,3.122205,0.0,0.1,-0.0117174955,0.005234198,0.003597738,0.026069256,0.017338557,inf,inf,inf,inf,1,1,1,1,2,1,2,3,0,0,0
50309870,0,0.0,0.0,0.23179927,0.6238538,-0.034643676,0.24050389,0.60899144,-0.2548081,0.008483502,0.002890645,0.013588276,0.007052404,0.0008437185,-0.003844313,0.00022075027,-0.08686038,0.9201471,0.38048127,3.1216674,0.0,0.1,-0.013588276,0.0050403513,0.0034708537,0.02558126,0.017051576,inf,inf,inf,inf,1,1,1,1,2,1,2,3,0,0,0
50413870,0,0.0,0.0,0.23156002,0.6239332,-0.034366466,0.24050389,0.60899144,-0.2548081,0.011509522,0.0024663364,0.0137877315,0.0071906894,0.0008437185,-0.003844313,0.00022075027,0.88604164,-0.20783877,0.31811836,3.1219301,0.0,0.1,-0.0137877315,0.0052578985,0.003610659,0.026219204,0.01742702,inf,inf,inf,inf,1,1,1,1,2,1,2,3,0,0,0
50509881,0,0.0,0.0,0.23135924,0.6239514,-0.034173906,0.24050389,0.60899144,-0.2548081,0.0073247193,0.0021229966,0.012414458,0.0057133324,0.0008437185,-0.003844313,0.00022075027,0.3023995,0.6722783,-0.13532554,3.122314,0.0,0.1,-0.012414458,0.00494877,0.0034090588,0.02540636,0.016939936,inf,inf,inf,inf,1,1,1,1,2,1,2,3,0,0,0
50613888,0,0.0,0.0,0.23134328,0.62398964,-0.034170445,0.24050389,0.60899144,-0.2548081,0.005823377,-0.0004999665,0.010881788,0.004052582,0.0008437185,-0.003844313,0.00022075027,-0.83743864,-0.48924696,-0.05784007,3.1216955,0.0,0.1,-0.010881788,0.005172337,0.003554211,0.02598807,0.017288528,inf,inf,inf,inf,1,1,1,1,2,1,2,3,0,0,0
50717914,0,0.0,0.0,0.23123218,0.6240137,-0.034238145,0.24050389,0.60899144,-0.2548081,0.009874165,0.0033376308,0.011870886,0.0049121813,0.0008437185,-0.003844313,0.00022075027,-0.057277016,-0.05271794,-0.15899408,3.1218874,0.0,0.1,-0.011870886,0.005354956,0.003674199,0.026358437,0.017508227,inf,inf,inf,inf,1,1,1,1,2,1,2,3,0,0,0
50817072,0,0.0,0.0,0.23119308,0.62411594,-0.034288865,0.24050389,0.60899144,-0.2548081,0.0059659975,0.0027340231,0.012521017,0.005440971,0.0008437185,-0.003844313,0.00022075027,-0.52567476,-0.24231982,-0.068503916,3.1217287,0.0,0.1,-0.012521017,0.0049935253,0.0034401964,0.025390092,0.016931282,inf,inf,inf,inf,1,1,1,1,2,1,2,3,0,0,0
50921081,0,0.0,0.0,0.2312102,0.6242799,-0.034409754,0.24050389,0.60899144,-0.2548081,0.008242829,0.0018284611,0.012522617,0.005335824,0.0008437185,-0.003844313,0.00022075027,-0.2763659,0.13207822,0.010836998,3.121806,0.0,0.1,-0.012522617,0.00489877,0.003376313,0.02528123,0.016866228,inf,inf,inf,inf,1,1,1,1,2,1,2,3,0,0,0
51017070,0,0.0,0.0,0.23122394,0.6242709,-0.03455687,0.24050389,0.60899144,-0.2548081,0.010347006,0.0032278064,0.0075221574,0.0002919053,0.0008437185,-0.003844313,0.00022075027,-0.31756803,0.6084878,-0.5192468,3.1217268,0.0,0.1,-0.0075221574,0.0050749364,0.0034903414,0.025939878,0.017280174,inf,inf,inf,inf,1,1,1,1,2,1,2,3,0,0,0
51121070,0,0.0,0.0,0.2313918,0.6241304,-0.0347337,0.24050389,0.60899144,-0.2548081,0.011875387,-0.00090616435,0.009996025,0.0027821905,0.0008437185,-0.003844313,0.00022075027,0.48715612,0.085307054,0.0054453798,3.121212,0.0,0.1,-0.009996025,0.0052200016,0.0035878585,0.026069514,0.017358916,inf,inf,inf,inf,1,1,1,1,2,1,2,3,0,0,0
51225079,0,0.0,0.0,0.23160438,0.62395847,-0.034927912,0.24050389,0.60899144,-0.2548081,0.009193989,0.001572379,0.010394829,0.0031937817,0.0008437185,-0.003844313,0.00022075027,0.6880815,-0.115083136,-0.11946825,3.1217794,0.0,0.1,-0.010394829,0.005057736,0.003482338,0.025625477,0.017089281,inf,inf,inf,inf,1,1,1,1,2,1,2,3,0,0,0
51328270,0,0.0,0.0,0.23163746,0.6237909,-0.03505109,0.24050389,0.60899144,-0.2548081,0.0072742123,0.0015915747,0.010637271,0.0034980099,0.0008437185,-0.003844313,0.00022075027,-0.38439897,0.33664668,-0.012056763,3.1219969,0.0,0.1,-0.010637271,0.004933261,0.0033997113,0.025377015,0.016930334,inf,inf,inf,inf,1,1,1,1,2,1,2,3,0,0,0
51424301,0,0.0,0.0,0.23157144,0.623706,-0.03510312,0.24050389,0.60899144,-0.2548081,0.004300247,-0.0015787871,0.010407839,0.0033424196,0.0008437185,-0.003844313,0.00022075027,-1.0976919,-1.2737782,-0.14870204,3.1215374,0.0,0.1,-0.010407839,0.0050677997,0.0034855567,0.025802867,0.01718474,inf,inf,inf,inf,1,1,1,1,2,1,2,3,0,0,0
51528270,0,0.0,0.0,0.23141718,0.62373084,-0.03504942,0.24050389,0.60899144,-0.2548081,0.008854889,0.002664881,0.010632722,0.0036629476,0.0008437185,-0.003844313,0.00022075027,0.47032714,0.82060784,-0.23879716,3.121588,0.0,0.1,-0.010632722,0.005293539,0.0036327224,0.02629974,0.017472595,inf,inf,inf,inf,1,1,1,1,2,1,2,3,0,0,0
51632307,0,0.0,0.0,0.23117891,0.62385666,-0.034900367,0.24050389,0.60899144,-0.2548081,0.005531009,0.0013526432,0.013147101,0.0062453984,0.0008437185,-0.003844313,0.00022075027,-0.32113656,0.50860584,0.56534547,3.1220813,0.0,0.1,-0.013147101,0.0051116417,0.0035160072,0.025755616,0.017155744,inf,inf,inf,inf,1,1,1,1,2,1,2,3,0,0,0
51728290,0,0.0,0.0,0.23094079,0.6239697,-0.034723043,0.24050389,0.60899144,-0.2548081,0.0058954577,0.0026452502,0.012583382,0.0057206387,0.0008437185,-0.003844313,0.00022075027,0.4554259,0.85553515,0.38727707,3.121934,0.0,0.1,-0.012583382,0.005143198,0.003536969,0.0258145,0.017188013,inf,inf,inf,inf,1,1,1,1,2,1,2,3,0,0,0
51832270,0,0.0,0.0,0.23072182,0.62414813,-0.03461262,0.24050389,0.60899144,-0.2548081,0.0052667884,-0.000898014,0.010417311,0.0035659715,0.0008437185,-0.003844313,0.00022075027,0.24989758,-0.7616438,0.10788154,3.1212144,0.0,0.1,-0.010417311,0.0052564205,0.0036120394,0.026040468,0.017320659,inf,inf,inf,inf,1,1,1,1,2,1,2,3,0,0,0
51935469,0,0.0,0.0,0.230529,0.6242343,-0.03462697,0.24050389,0.60899144,-0.2548081,0.0028991813,0.003788697,0.01053782,0.0036246378,0.0008437185,-0.003844313,0.00022075027,-0.5464465,0.44061363,-0.3540926,3.1216273,0.0,0.1,-0.01053782,0.0048204577,0.003325301,0.025064852,0.016736612,inf,inf,inf,inf,1,1,1,1,2,1,2,3,0,0,0
52031483,0,0.0,0.0,0.23043121,0.62426406,-0.034579914,0.24050389,0.60899144,-0.2548081,0.0029521221,0.0020353033,0.011761299,0.004787537,0.0008437185,-0.003844313,0.00022075027,-1.0770737,0.49489218,-0.09524208,3.1218927,0.0,0.1,-0.011761299,0.00494107,0.0034021104,0.025454184,0.016964221,inf,inf,inf,inf,1,1,1,1,2,1,2,3,0,0,0
52135470,0,0.0,0.0,0.23036866,0.624196,-0.03438557,0.24050389,0.60899144,-0.2548081,0.0072408323,0.0015506014,0.013939421,0.0069324914,0.0008437185,-0.003844313,0.00022075027,-0.091881566,0.2948238,0.46036664,3.1209736,0.0,0.1,-0.013939421,0.0051642093,0.0035480016,0.025976317,0.017278424,inf,inf,inf,inf,1,1,1,1,2,1,2,3,0,0,0
52239470,0,0.0,0.0,0.23029076,0.6240645,-0.03420911,0.24050389,0.60899144,-0.2548081,0.0072361683,-0.0013301618,0.01177241,0.0047401953,0.0008437185,-0.003844313,0.00022075027,1.2163702,-0.8390539,0.068222106,3.1215236,0.0,0.1,-0.01177241,0.0053593693,0.0036760306,0.026392864,0.017526954,inf,inf,inf,inf,1,1,1,1,2,1,2,3,0,0,0
52343470,0,0.0,0.0,0.23030151,0.62373924,-0.03408495,0.24050389,0.60899144,-0.2548081,0.0024469127,-0.0017975582,0.011233937,0.004133725,0.0008437185,-0.003844313,0.00022075027,-0.35992384,-0.42848137,-0.19338267,3.121925,0.0,0.1,-0.011233937,0.004876605,0.0033617292,0.025183141,0.0168089,inf,inf,inf,inf,1,1,1,1,2,1,2,3,0,0,0
52446670,0,0.0,0.0,0.23035473,0.6233771,-0.033971112,0.24050389,0.60899144,-0.2548081,0.007036323,-0.0004258028,0.0133022275,0.006133909,0.0008437185,-0.003844313,0.00022075027,0.18473999,1.2104287,-0.14172137,3.1216216,0.0,0.1,-0.0133022275,0.0050842436,0.003497397,0.025695784,0.017105857,inf,inf,inf,inf,1,1,1,1,2,1,2,3,0,0,0
52542684,0,0.0,0.0,0.2304133,0.622957,-0.033849414,0.24050389,0.60899144,-0.2548081,0.0043751555,-0.0043559913,0.014640805,0.007389685,0.0008437185,-0.003844313,0.00022075027,-0.88147324,0.34716225,0.3953033,3.1211467,0.0,0.1,-0.014640805,0.005151552,0.003540804,0.025895173,0.017228607,inf,inf,inf,inf,1,1,1,1,2,1,2,3,0,0,0
52646670,0,0.0,0.0,0.2305612,0.62258077,-0.033635348,0.24050389,0.60899144,-0.2548081,0.0067712343,-0.0053646243,0.01550455,0.008161442,0.0008437185,-0.003844313,0.00022075027,0.58931273,-0.36006784,0.3505907,3.1218734,0.0,0.1,-0.01550455,0.005295923,0.0036354328,0.02620533,0.01741295,inf,inf,inf,inf,1,1,1,1,2,1,2,3,0,0,0
52750670,0,0.0,0.0,0.2306833,0.62218326,-0.03343633,0.24050389,0.60899144,-0.2548081,0.004035588,-0.0064618685,0.014727699,0.0072767586,0.0008437185,-0.003844313,0.00022075027,-0.38430336,-0.9413081,0.32502404,3.1217177,0.0,0.1,-0.014727699,0.005428815,0.003722579,0.026502116,0.017593594,inf,inf,inf,inf,1,1,1,1,2,1,2,3,0,0,0
52846670,0,0.0,0.0,0.23072232,0.62170297,-0.03328651,0.24050389,0.60899144,-0.2548081,0.0074566826,-0.008683864,0.014349142,0.0067699575,0.0008437185,-0.003844313,0.00022075027,1.2147875,-0.60703117,-0.08449287,3.1213143,0.0,0.1,-0.014349142,0.005030767,0.0034648047,0.025465604,0.016976712,inf,inf,inf,inf,1,1,1,1,2,1,2,3,0,0,0
52949876,0,0.0,0.0,0.23084523,0.6211465,-0.033219356,0.24050389,0.60899144,-0.2548081,0.0033779526,-0.009477594,0.014477867,0.006718158,0.0008437185,-0.003844313,0.00022075027,-0.77384746,0.75029665,0.023213021,3.121542,0.0,0.1,-0.014477867,0.0049366383,0.003400609,0.025388934,0.016920554,inf,inf,inf,inf,1,1,1,1,2,1,2,3,0,0,0
53053910,0,0.0,0.0,0.23099405,0.62063354,-0.03327949,0.24050389,0.60899144,-0.2548081,0.00589734,-0.012494256,0.014515672,0.00655683,0.0008437185,-0.003844313,0.00022075027,0.23972669,-0.12287868,0.22405683,3.1221724,0.0,0.1,-0.014515672,0.004944313,0.0034022988,0.025574364,0.017031252,inf,inf,inf,inf,1,1,1,1,2,1,2,3,0,0,0
53157870,0,0.0,0.0,0.23107503,0.6200664,-0.03343232,0.24050389,0.60899144,-0.2548081,0.0049210307,-0.014815044,0.012625749,0.0045177173,0.0008437185,-0.003844313,0.00022075027,0.1574394,-1.0093067,0.14396803,3.1217635,0.0,0.1,-0.012625749,0.005239026,0.0035936784,0.026254361,0.017438494,inf,inf,inf,inf,1,1,1,1,2,1,2,3,0,0,0
53253876,0,0.0,0.0,0.23114936,0.61955255,-0.033582985,0.24050389,0.60899144,-0.2548081,0.0034664162,-0.014280828,0.01544323,0.007239455,0.0008437185,-0.003844313,0.00022075027,0.060044825,0.24190025,0.3334906,3.1213977,0.0,0.1,-0.01544323,0.0052618883,0.0036120438,0.026098164,0.0173435,inf,inf,inf,inf,1,1,1,1,2,1,2,3,0,0,0
53357110,0,0.0,0.0,0.23115084,0.6191144,-0.033712573,0.24050389,0.60899144,-0.2548081,0.0016475319,-0.014259644,0.013451082,0.0051720184,0.0008437185,-0.003844313,0.00022075027,-1.2993947,-0.31105635,0.13799836,3.1214676,0.0,0.1,-0.013451082,0.0053646006,0.00368103,0.0262731,0.017446969,inf,inf,inf,inf,1,1,1,1,2,1,2,3,0,0,0
53461070,0,0.0,0.0,0.2310925,0.6187561,-0.033807732,0.24050389,0.60899144,-0.2548081,0.0069149532,-0.012940204,0.013835056,0.0055211736,0.0008437185,-0.003844313,0.00022075027,-0.03530297,0.017933212,0.0687483,3.1218038,0.0,0.1,-0.013835056,0.005083726,0.0034999466,0.025525497,0.016999552,inf,inf,inf,inf,1,1,1,1,2,1,2,3,0,0,0
53557076,0,0.0,0.0,0.23107322,0.6185751,-0.033884212,0.24050389,0.60899144,-0.2548081,0.0059707575,-0.012855617,0.011931941,0.0036195777,0.0008437185,-0.003844313,0.00022075027,-0.2606074,0.118912615,-0.08817195,3.1213455,0.0,0.1,-0.011931941,0.00500827,0.003450617,0.025358664,0.016897418,inf,inf,inf,inf,1,1,1,1,2,1,2,3,0,0,0
53661094,0,0.0,0.0,0.23115686,0.618464,-0.033942487,0.24050389,0.60899144,-0.2548081,0.0070595453,-0.015131317,0.012426899,0.004115751,0.0008437185,-0.003844313,0.00022075027,0.7270775,0.38736588,-0.10727207,3.1211786,0.0,0.1,-0.012426899,0.0051679374,0.0035529255,0.0258886,0.01722075,inf,inf,inf,inf,1,1,1,1,2,1,2,3,0,0,0
53765070,0,0.0,0.0,0.23121181,0.6184028,-0.033941902,0.24050389,0.60899144,-0.2548081,0.005684665,-0.013609813,0.0135031445,0.005205595,0.0008437185,-0.003844313,0.00022075027,1.2982266,0.4444228,0.070928924,3.121239,0.0,0.1,-0.0135031445,0.0052697216,0.0036193621,0.026128946,0.017364593,inf,inf,inf,inf,1,1,1,1,2,1,2,3,0,0,0
53868288,0,0.0,0.0,0.23118253,0.6184375,-0.033949036,0.24050389,0.60899144,-0.2548081,0.002730057,-0.013882263,0.013375562,0.0050603854,0.0008437185,-0.003844313,0.00022075027,-0.6100705,0.34274524,0.02206858,3.121457,0.0,0.1,-0.013375562,0.0051054084,0.0035107564,0.025806539,0.01716809,inf,inf,inf,inf,1,1,1,1,2,1,2,3,0,0,0
53968270,0,0.0,0.0,0.23124422,0.618522,-0.033966172,0.24050389,0.60899144,-0.2548081,0.0033560735,-0.01370713,0.012460951,0.0041285763,0.0008437185,-0.003844313,0.00022075027,-0.066328175,-0.1472624,-0.08830018,3.1220417,0.0,0.1,-0.012460951,0.0049153795,0.003384605,0.025411181,0.0169347,inf,inf,inf,inf,1,1,1,1,2,1,2,3,0,0,0
54072296,0,0.0,0.0,0.23125538,0.6186059,-0.034026355,0.24050389,0.60899144,-0.2548081,0.004398231,-0.013692616,0.012094883,0.003773346,0.0008437185,-0.003844313,0.00022075027,-0.254629,0.023732217,-0.058546368,3.121527,0.0,0.1,-0.012094883,0.005210833,0.0035771949,0.02631096,0.017488997,inf,inf,inf,inf,1,1,1,1,2,1,2,3,0,0,0
54168270,0,0.0,0.0,0.23125696,0.61872405,-0.034157075,0.24050389,0.60899144,-0.2548081,0.003949119,-0.016574264,0.014122575,0.0058025955,0.0008437185,-0.003844313,0.00022075027,0.6961998,-1.5023555,0.5018189,3.1210284,0.0,0.1,-0.014122575,0.0053032017,0.0036375623,0.026461108,0.017579475,inf,inf,inf,inf,1,1,1,1,2,1,2,3,0,0,0
54272292,0,0.0,0.0,0.23140502,0.6186694,-0.034310896,0.24050389,0.60899144,-0.2548081,0.0030497743,-0.016354358,0.011692186,0.003395698,0.0008437185,-0.003844313,0.00022075027,-1.0072912,-0.8214711,0.20203424,3.121128,0.0,0.1,-0.011692186,0.005150824,0.0035399687,0.02595704,0.01726958,inf,inf,inf,inf,1,1,1,1,2,1,2,3,0,0,0
54376270,0,0.0,0.0,0.23146608,0.6186425,-0.034476794,0.24050389,0.60899144,-0.2548081,0.009271254,-0.014658891,0.013139374,0.00488446,0.0008437185,-0.003844313,0.00022075027,0.62398064,0.8619884,0.32603732,3.1214793,0.0,0.1,-0.013139374,0.0050644483,0.0034834156,0.025713397,0.017118813,inf,inf,inf,inf,1,1,1,1,2,1,2,3,0,0,0
54479476,0,0.0,0.0,0.23136,0.61846745,-0.03454809,0.24050389,0.60899144,-0.2548081,0.0020449255,-0.019298587,0.011494547,0.003291179,0.0008437185,-0.003844313,0.00022075027,0.3236637,-0.89526045,0.16250552,3.12066,0.0,0.1,-0.011494547,0.004977349,0.0034261644,0.025479514,0.016976716,inf,inf,inf,inf,1,1,1,1,2,1,2,3,0,0,0
54583476,0,0.0,0.0,0.23113346,0.6183055,-0.034526695,0.24050389,0.60899144,-0.2548081,0.0021377678,-0.017715303,0.011505295,0.0034129305,0.0008437185,-0.003844313,0.00022075027,-0.23667437,-0.76885104,0.030863877,3.1214156,0.0,0.1,-0.011505295,0.0054806774,0.0037541774,0.026638238,0.017653167,inf,inf,inf,inf,1,1,1,1,2,1,2,3,0,0,0
54679492,0,0.0,0.0,0.23085403,0.618184,-0.034410227,0.24050389,0.60899144,-0.2548081,0.0015505934,-0.016568115,0.013930657,0.0059377374,0.0008437185,-0.003844313,0.00022075027,-0.03165817,0.82184047,0.04221588,3.1218915,0.0,0.1,-0.013930657,0.005317021,0.0036525086,0.026035028,0.017295409,inf,inf,inf,inf,1,1,1,1,2,1,2,3,0,0,0
54783478,0,0.0,0.0,0.23067857,0.61812603,-0.034239795,0.24050389,0.60899144,-0.2548081,0.00031940566,-0.016760843,0.013884748,0.005942631,0.0008437185,-0.003844313,0.00022075027,-0.72125405,-0.028987112,0.14492986,3.121228,0.0,0.1,-0.013884748,0.0053159245,0.0036524478,0.02605555,0.017307969,inf,inf,inf,inf,1,1,1,1,2,1,2,3,0,0,0
54887470,0,0.0,0.0,0.23059715,0.6181991,-0.03413585,0.24050389,0.60899144,-0.2548081,0.0049160244,-0.015164631,0.012259097,0.004335155,0.0008437185,-0.003844313,0.00022075027,0.045082193,0.2911382,-0.19303994,3.121059,0.0,0.1,-0.012259097,0.0054185507,0.0037161296,0.026485212,0.017558876,inf,inf,inf,inf,1,1,1,1,2,1,2,3,0,0,0
54982673,0,0.0,0.0,0.23064396,0.61838746,-0.034140702,0.24050389,0.60899144,-0.2548081,0.0017515437,-0.013665049,0.01277378,0.004838287,0.0008437185,-0.003844313,0.00022075027,-0.70390177,0.73152405,-0.1920973,3.121461,0.0,0.1,-0.01277378,0.005320997,0.0036530662,0.026221175,0.017402899,inf,inf,inf,inf,1,1,1,1,2,1,2,3,0,0,0
55086680,0,0.0,0.0,0.23080595,0.61860573,-0.034170367,0.24050389,0.60899144,-0.2548081,0.0016492347,-0.015678376,0.01312835,0.0051437733,0.0008437185,-0.003844313,0.00022075027,-0.35508746,-0.074906014,-0.038991034,3.12171,0.0,0.1,-0.01312835,0.005390894,0.0036982147,0.026390275,0.017504448,inf,inf,inf,inf,1,1,1,1,2,1,2,3,0,0,0
55190670,0,0.0,0.0,0.23097627,0.618888,-0.03428256,0.24050389,0.60899144,-0.2548081,0.0032886881,-0.01274136,0.013306511,0.005278562,0.0008437185,-0.003844313,0.00022075027,0.34553853,0.32558882,0.12458371,3.1215262,0.0,0.1,-0.013306511,0.005451224,0.0037366606,0.02654394,0.017588254,inf,inf,inf,inf,1,1,1,1,2,1,2,3,0,0,0
55286670,0,0.0,0.0,0.23119749,0.61915433,-0.03440604,0.24050389,0.60899144,-0.2548081,0.0044403058,-0.01731057,0.0119666215,0.0039154645,0.0008437185,-0.003844313,0.00022075027,0.31069478,-1.3070843,0.25126633,3.121345,0.0,0.1,-0.0119666215,0.0053671584,0.0036823677,0.026325649,0.01746408,inf,inf,inf,inf,1,1,1,1,2,1,2,3,0,0,0
55390693,0,0.0,0.0,0.23131102,0.6195009,-0.034498848,0.24050389,0.60899144,-0.2548081,0.004539527,-0.012458308,0.011423941,0.00335954,0.0008437185,-0.003844313,0.00022075027,-0.040656123,-0.81134105,-0.19875327,3.1213717,0.0,0.1,-0.011423941,0.0050833398,0.0034981004,0.025603347,0.017033538,inf,inf,inf,inf,1,1,1,1,2,1,2,3,0,0,0
55493870,0,0.0,0.0,0.23134738,0.61976486,-0.03454836,0.24050389,0.60899144,-0.2548081,0.0048800604,-0.013617872,0.013894392,0.00586115,0.0008437185,-0.003844313,0.00022075027,0.37712532,0.28301552,0.291362,3.121231,0.0,0.1,-0.013894392,0.0051394156,0.0035350285,0.025722176,0.017105654,inf,inf,inf,inf,1,1,1,1,2,1,2,3,0,0,0
55597875,0,0.0,0.0,0.23135953,0.6198819,-0.03455146,0.24050389,0.60899144,-0.2548081,7.646606e-05,-0.016680848,0.012482257,0.004502627,0.0008437185,-0.003844313,0.00022075027,-0.41892055,-1.2121167,0.37922868,3.1215065,0.0,0.1,-0.012482257,0.0051952926,0.0035715145,0.025866106,0.017195046,inf,inf,inf,inf,1,1,1,1,2,1,2,3,0,0,0
55701870,0,0.0,0.0,0.23129013,0.6199662,-0.034515392,0.24050389,0.60899144,-0.2548081,0.002457099,-0.011328502,0.010759707,0.002831248,0.0008437185,-0.003844313,0.00022075027,-1.1008487,1.3249617,-0.2523185,3.120828,0.0,0.1,-0.010759707,0.005247841,0.0036049578,0.025994917,0.01725509,inf,inf,inf,inf,1,1,1,1,2,1,2,3,0,0,0
55797884,0,0.0,0.0,0.23118167,0.62006605,-0.0344824,0.24050389,0.60899144,-0.2548081,0.0005422431,-0.013870866,0.011495711,0.003624922,0.0008437185,-0.003844313,0.00022075027,-0.2214715,-0.3460929,-0.0034338562,3.121187,0.0,0.1,-0.011495711,0.005160629,0.0035494866,0.025727378,0.017109014,inf,inf,inf,inf,1,1,1,1,2,1,2,3,0,0,0
55901876,0,0.0,0.0,0.23108876,0.6201085,-0.03440935,0.24050389,0.60899144,-0.2548081,0.00051427935,-0.013146495,0.012655783,0.00479403,0.0008437185,-0.003844313,0.00022075027,-0.4222168,-0.14035521,-0.37517336,3.122219,0.0,0.1,-0.012655783,0.005265461,0.0036159705,0.026094232,0.017321687,inf,inf,inf,inf,1,1,1,1,2,1,2,3,0,0,0
56001077,0,0.0,0.0,0.23087415,0.6200885,-0.03423764,0.24050389,0.60899144,-0.2548081,0.0016131573,-0.014372882,0.014924856,0.0070680357,0.0008437185,-0.003844313,0.00022075027,0.45305306,0.3884979,0.03186169,3.1211,0.0,0.1,-0.014924856,0.005173648,0.0035569337,0.025832046,0.017167898,inf,inf,inf,inf,1,1,1,1,2,1,2,3,0,0,0
56105073,0,0.0,0.0,0.2306252,0.62017167,-0.03413478,0.24050389,0.60899144,-0.2548081,-0.0028167376,-0.012844542,0.013955185,0.0060981303,0.0008437185,-0.003844313,0.00022075027,-1.3917933,0.066946216,-0.07403577,3.1211534,0.0,0.1,-0.013955185,0.005266104,0.003615762,0.026104502,0.017326433,inf,inf,inf,inf,1,1,1,1,2,1,2,3,0,0,0
56209070,0,0.0,0.0,0.23045534,0.62021244,-0.03408907,0.24050389,0.60899144,-0.2548081,0.003504986,-0.015518713,0.013176253,0.0053104283,0.0008437185,-0.003844313,0.00022075027,0.23011287,0.32919678,0.07697757,3.1211293,0.0,0.1,-0.013176253,0.005451344,0.0037355996,0.026789721,0.017757654,inf,inf,inf,inf,1,1,1,1,2,1,2,3,0,0,0
56305077,0,0.0,0.0,0.23035881,0.6201542,-0.034061737,0.24050389,0.60899144,-0.2548081,0.0024320104,-0.012423635,0.012601458,0.00471062,0.0008437185,-0.003844313,0.00022075027,-0.14363757,0.58104897,-0.2892728,3.1210945,0.0,0.1,-0.012601458,0.0053590364,0.0036775633,0.026418889,0.017535692,inf,inf,inf,inf,1,1,1,1,2,1,2,3,0,0,0
56409071,0,0.0,0.0,0.23028626,0.6201221,-0.034055654,0.24050389,0.60899144,-0.2548081,-0.0007776414,-0.014156265,0.013682527,0.0057587847,0.0008437185,-0.003844313,0.00022075027,0.3013573,0.028024815,0.1635186,3.121798,0.0,0.1,-0.013682527,0.0054334733,0.0037261287,0.026546324,0.017610189,inf,inf,inf,inf,1,1,1,1,2,1,2,3,0,0,0
56512276,0,0.0,0.0,0.23030375,0.6201378,-0.034129452,0.24050389,0.60899144,-0.2548081,-0.0025549224,-0.0145217115,0.01257853,0.0046262424,0.0008437185,-0.003844313,0.00022075027,-0.61190706,0.17759123,0.18817028,3.1217468,0.0,0.1,-0.01257853,0.0050959843,0.0035081175,0.02560632,0.017040677,inf,inf,inf,inf,1,1,1,1,2,1,2,3,0,0,0
56616270,0,0.0,0.0,0.23028268,0.62026006,-0.03419759,0.24050389,0.60899144,-0.2548081,0.0011487788,-0.011333736,0.013064865,0.005076836,0.0008437185,-0.003844313,0.00022075027,-0.66893995,1.0957685,0.27158198,3.121167,0.0,0.1,-0.013064865,0.005168328,0.0035536336,0.025848374,0.0171754,inf,inf,inf,inf,1,1,1,1,2,1,2,3,0,0,0
56712281,0,0.0,0.0,0.2302976,0.62037647,-0.03422871,0.24050389,0.60899144,-0.2548081,0.00024286224,-0.011352237,0.013036947,0.0050317636,0.0008437185,-0.003844313,0.00022075027,-0.33759132,0.50464785,-0.14003314,3.121312,0.0,0.1,-0.013036947,0.005095432,0.0035061915,0.025630224,0.017042251,inf,inf,inf,inf,1,1,1,1,2,1,2,3,0,0,0
56816324,0,0.0,0.0,0.23029016,0.620541,-0.034273233,0.24050389,0.60899144,-0.2548081,0.0024404654,-0.015244052,0.014222676,0.0062114657,0.0008437185,-0.003844313,0.00022075027,0.34169284,-0.24015301,0.4675719,3.1217513,0.0,0.1,-0.014222676,0.0051447516,0.0035384414,0.025729664,0.017100504,inf,inf,inf,inf,1,1,1,1,2,1,2,3,0,0,0
56920273,0,0.0,0.0,0.23031914,0.6205535,-0.034337714,0.24050389,0.60899144,-0.2548081,0.00014149619,-0.014803536,0.012866121,0.0048544183,0.0008437185,-0.003844313,0.00022075027,-0.18120174,-0.45291176,0.26187938,3.1215234,0.0,0.1,-0.012866121,0.0055811037,0.0038205658,0.026829628,0.017753107,inf,inf,inf,inf,1,1,1,1,2,1,2,3,0,0,0
57015470,0,0.0,0.0,0.2303589,0.6205953,-0.034352798,0.24050389,0.60899144,-0.2548081,0.0010714595,-0.0139501,0.010710072,0.002697228,0.0008437185,-0.003844313,0.00022075027,0.5603091,-0.48702332,-0.22764891,3.121527,0.0,0.1,-0.010710072,0.0054017925,0.0037060478,0.026325474,0.017454352,inf,inf,inf,inf,1,1,1,1,2,1,2,3,0,0,0
57119481,0,0.0,0.0,0.23044395,0.6205984,-0.034299716,0.24050389,0.60899144,-0.2548081,0.0005684377,-0.0103621045,0.011748342,0.0037381689,0.0008437185,-0.003844313,0.00022075027,0.3570664,0.0059882766,-0.55827916,3.1213057,0.0,0.1,-0.011748342,0.0054046535,0.0037074154,0.02633621,0.017451754,inf,inf,inf,inf,1,1,1,1,2,1,2,3,0,0,0
57223470,0,0.0,0.0,0.23043756,0.62059474,-0.034119643,0.24050389,0.60899144,-0.2548081,0.0005723686,-0.010506648,0.014949604,0.006951801,0.0008437185,-0.003844313,0.00022075027,0.03559433,1.1305412,-0.34492168,3.121486,0.0,0.1,-0.014949604,0.0054782224,0.0037531136,0.026620554,0.01761897,inf,inf,inf,inf,1,1,1,1,2,1,2,3,0,0,0
57327515,0,0.0,0.0,0.23038174,0.6206735,-0.033864662,0.24050389,0.60899144,-0.2548081,-0.0016512629,-0.013897395,0.015979525,0.00800733,0.0008437185,-0.003844313,0.00022075027,-0.051887132,0.22546907,0.39252162,3.1215186,0.0,0.1,-0.015979525,0.0051711523,0.003554082,0.025855422,0.017169781,inf,inf,inf,inf,1,1,1,1,2,1,2,3,0,0,0
57431519,0,0.0,0.0,0.23037454,0.62076133,-0.033563767,0.24050389,0.60899144,-0.2548081,-0.003507366,-0.011494507,0.015667403,0.007681995,0.0008437185,-0.003844313,0.00022075027,-0.65023315,0.6941199,-0.15560539,3.121755,0.0,0.1,-0.015667403,0.005260486,0.0036114124,0.026103018,0.017317401,inf,inf,inf,inf,1,1,1,1,2,1,2,3,0,0,0
57530677,0,0.0,0.0,0.23021017,0.6207693,-0.03325626,0.24050389,0.60899144,-0.2548081,-6.8188645e-05,-0.016287526,0.015166939,0.0071036057,0.0008437185,-0.003844313,0.00022075027,0.86540294,-0.8549568,-0.031775482,3.121594,0.0,0.1,-0.015166939,0.0051860223,0.0035636611,0.025874851,0.017185323,inf,inf,inf,inf,1,1,1,1,2,1,2,3,0,0,0
57634670,0,0.0,0.0,0.23003109,0.6207593,-0.03305285,0.24050389,0.60899144,-0.2548081,-0.0034839127,-0.015466972,0.015506375,0.007303196,0.0008437185,-0.003844313,0.00022075027,-0.3061523,-0.41726992,-0.04277094,3.1212492,0.0,0.1,-0.015506375,0.0053010364,0.0036373152,0.026213428,0.017383005,inf,inf,inf,inf,1,1,1,1,2,1,2,3,0,0,0
57730684,0,0.0,0.0,0.22991204,0.62081647,-0.032999303,0.24050389,0.60899144,-0.2548081,-0.003345943,-0.015049774,0.016645586,0.008291909,0.0008437185,-0.003844313,0.00022075027,0.6077882,-0.40789384,0.4975734,3.121657,0.0,0.1,-0.016645586,0.005281448,0.0036254732,0.02627524,0.017441979,inf,inf,inf,inf,1,1,1,1,2,1,2,3,0,0,0
57834719,0,0.0,0.0,0.22982858,0.6206764,-0.03305677,0.24050389,0.60899144,-0.2548081,-0.0023835395,-0.011982027,0.014280386,0.005760504,0.0008437185,-0.003844313,0.00022075027,-0.5123668,0.17972906,0.38165525,3.1216354,0.0,0.1,-0.014280386,0.00534918,0.0036701262,0.02636371,0.017489787,inf,inf,inf,inf,1,1,1,1,2,1,2,3,0,0,0
57938679,0,0.0,0.0,0.22983201,0.6205779,-0.033295058,0.24050389,0.60899144,-0.2548081,-0.00068611774,-0.013302142,0.012968826,0.0042968886,0.0008437185,-0.003844313,0.00022075027,-0.29540613,0.603847,0.07897349,3.121716,0.0,0.1,-0.012968826,0.005406158,0.0037078522,0.026427446,0.017519945,inf,inf,inf,inf,1,1,1,1,2,1,2,3,0,0,0
58033887,0,0.0,0.0,0.22984317,0.6204951,-0.033572122,0.24050389,0.60899144,-0.2548081,0.00046752952,-0.009352736,0.011648913,0.0028579573,0.0008437185,-0.003844313,0.00022075027,0.7820488,1.6642112,-0.78577805,3.1215777,0.0,0.1,-0.011648913,0.0053109853,0.003646295,0.026166597,0.017362181,inf,inf,inf,inf,1,1,1,1,2,1,2,3,0,0,0
58137870,0,0.0,0.0,0.22981782,0.62046623,-0.03389417,0.24050389,0.60899144,-0.2548081,-0.0014073126,-0.01590713,0.012307387,0.0034531855,0.0008437185,-0.003844313,0.00022075027,0.5199379,-0.29021537,0.0031171641,3.1209376,0.0,0.1,-0.012307387,0.005384136,0.0036929299,0.026365617,0.017473388,inf,inf,inf,inf,1,1,1,1,2,1,2,3,0,0,0
58241872,0,0.0,0.0,0.22978069,0.62053984,-0.034212615,0.24050389,0.60899144,-0.2548081,-0.0026974033,-0.015493453,0.010761732,0.0019132289,0.0008437185,-0.003844313,0.00022075027,-0.08437912,-0.43843505,-0.085353985,3.1215758,0.0,0.1,-0.010761732,0.005081731,0.00349631,0.0255898,0.017006207,inf,inf,inf,inf,1,1,1,1,2,1,2,3,0,0,0
58337884,0,0.0,0.0,0.22979626,0.62054133,-0.03444949,0.24050389,0.60899144,-0.2548081,-0.0032714913,-0.017980197,0.011648701,0.002863108,0.0008437185,-0.003844313,0.00022075027,-0.22472852,-0.72179705,0.12388338,3.1218226,0.0,0.1,-0.011648701,0.005377742,0.0036875627,0.026361132,0.017468078,inf,inf,inf,inf,1,1,1,1,2,1,2,3,0,0,0
58441870,0,0.0,0.0,0.22987379,0.6206289,-0.03463177,0.24050389,0.60899144,-0.2548081,-0.0028376747,-0.0134893395,0.0101507455,0.0014719025,0.0008437185,-0.003844313,0.00022075027,-0.5512538,0.5123417,-0.5237998,3.1211221,0.0,0.1,-0.0101507455,0.0054521635,0.0037354,0.026546173,0.017572746,inf,inf,inf,inf,1,1,1,1,2,1,2,3,0,0,0
58545870,0,0.0,0.0,0.2299641,0.62070346,-0.034790263,0.24050389,0.60899144,-0.2548081,-0.0010422647,-0.011312781,0.013358364,0.0047879945,0.0008437185,-0.003844313,0.00022075027,-0.45851052,0.543608,0.11720665,3.1214483,0.0,0.1,-0.013358364,0.005147606,0.0035382449,0.025777329,0.017115679,inf,inf,inf,inf,1,1,1,1,2,1,2,3,0,0,0
58649070,0,0.0,0.0,0.23005041,0.6208334,-0.03492406,0.24050389,0.60899144,-0.2548081,-0.001049776,-0.015967064,0.011757615,0.003321692,0.0008437185,-0.003844313,0.00022075027,0.38252628,-1.4620587,0.27998143,3.1214137,0.0,0.1,-0.011757615,0.0051947273,0.003569567,0.025841026,0.017158216,inf,inf,inf,inf,1,1,1,1,2,1,2,3,0,0,0
58745087,0,0.0,0.0,0.23016319,0.6210752,-0.035053145,0.24050389,0.60899144,-0.2548081,0.0017801981,-0.015297225,0.010665796,0.0023457017,0.0008437185,-0.003844313,0.00022075027,1.0612383,-0.7089544,0.5101227,3.1209724,0.0,0.1,-0.010665796,0.005153062,0.0035412193,0.025821015,0.01714318,inf,inf,inf,inf,1,1,1,1,2,1,2,3,0,0,0
58849069,0,0.0,0.0,0.23028469,0.6212934,-0.035045184,0.24050389,0.60899144,-0.2548081,-0.0016919103,-0.011672025,0.010360875,0.00216916,0.0008437185,-0.003844313,0.00022075027,-0.24953765,-0.21356851,-0.07229537,3.121179,0.0,0.1,-0.010360875,0.0052344236,0.0035934062,0.026037436,0.01727237,inf,inf,inf,inf,1,1,1,1,2,1,2,3,0,0,0
58953070,0,0.0,0.0,0.23044863,0.62147194,-0.03498461,0.24050389,0.60899144,-0.2548081,-0.0018236757,-0.010511783,0.011369953,0.0032979387,0.0008437185,-0.003844313,0.00022075027,-0.48778543,0.71527016,-0.38852328,3.1216452,0.0,0.1,-0.011369953,0.0050301016,0.0034596536,0.025566516,0.016991617,inf,inf,inf,inf,1,1,1,1,2,1,2,3,0,0,0
59055496,0,0.0,0.0,0.23061135,0.6216554,-0.034921538,0.24050389,0.60899144,-0.2548081,-5.607044e-05,-0.016243558,0.014172879,0.0062254914,0.0008437185,-0.003844313,0.00022075027,0.86573184,-1.4190577,0.26785344,3.1217864,0.0,0.1,-0.014172879,0.0051408173,0.0035321016,0.025801923,0.017132653,inf,inf,inf,inf,1,1,1,1,2,1,2,3,0,0,0
59160270,0,0.0,0.0,0.23089108,0.6217011,-0.034654543,0.24050389,0.60899144,-0.2548081,0.00017078081,-0.009030049,0.013581591,0.005723306,0.0008437185,-0.003844313,0.00022075027,-0.11158508,0.25017065,-0.10721053,3.1213775,0.0,0.1,-0.013581591,0.005251738,0.0036042433,0.026068345,0.017292783,inf,inf,inf,inf,1,1,1,1,2,1,2,3,0,0,0
59256270,0,0.0,0.0,0.23111029,0.621791,-0.03438044,0.24050389,0.60899144,-0.2548081,-0.0002904101,-0.010832118,0.014619802,0.006811163,0.0008437185,-0.003844313,0.00022075027,-1.0373826,-1.038367,0.15560135,3.1213605,0.0,0.1,-0.014619802,0.0051934836,0.0035666558,0.025905713,0.01719275,inf,inf,inf,inf,1,1,1,1,2,1,2,3,0,0,0
59360325,0,0.0,0.0,0.23134689,0.62185514,-0.0339854,0.24050389,0.60899144,-0.2548081,0.0022416306,-0.008294697,0.0147485575,0.006967913,0.0008437185,-0.003844313,0.00022075027,0.06223099,1.3233843,-0.09447347,3.1213992,0.0,0.1,-0.0147485575,0.0052736434,0.003619244,0.026080135,0.017295066,inf,inf,inf,inf,1,1,1,1,2,1,2,3,0,0,0
59464337,0,0.0,0.0,0.23174383,0.621997,-0.03371262,0.24050389,0.60899144,-0.2548081,0.0058735064,-0.014420891,0.016866727,0.009051501,0.0008437185,-0.003844313,0.00022075027,-0.73483044,-1.0880429,0.92008543,3.12394,0.0,0.1,-0.016866727,0.005339482,0.0036623117,0.026234722,0.01738798,inf,inf,inf,inf,1,1,1,1,2,1,2,3,0,0,0
59560270,0,0.0,0.0,0.2321151,0.6220416,-0.03351717,0.24050389,0.60899144,-0.2548081,0.0042225127,-0.0092016,0.009586291,0.0016703396,0.0008437185,-0.003844313,0.00022075027,-0.18723069,1.6322299,-1.8323357,3.1210012,0.0,0.1,-0.009586291,0.0052330145,0.0035942548,0.02593522,0.017209113,inf,inf,inf,inf,1,1,1,1,2,1,2,3,0,0,0
59663476,0,0.0,0.0,0.23280782,0.62175584,-0.033499654,0.24050389,0.60899144,-0.2548081,0.0066410387,-0.013258522,0.011313571,0.003221586,0.0008437185,-0.003844313,0.00022075027,0.98295814,-1.5625793,-0.71440905,3.1153498,0.0,0.1,-0.011313571,0.0053177504,0.0036479945,0.026209101,0.017375886,inf,inf,inf,inf,1,1,1,1,2,1,2,3,0,0,0
59767470,0,0.0,0.0,0.2329496,0.6220976,-0.03363911,0.24050389,0.60899144,-0.2548081,0.007274437,-0.009689457,0.008598115,0.00030037435,0.0008437185,-0.003844313,0.00022075027,1.3901925,-0.8782304,-1.3987131,3.121831,0.0,0.1,-0.008598115,0.0053812065,0.0036884935,0.026368639,0.017454443,inf,inf,inf,inf,1,1,1,1,2,1,2,3,0,0,0
59871516,0,0.0,0.0,0.23299824,0.62229836,-0.033867687,0.24050389,0.60899144,-0.2548081,0.004245325,-0.010203888,0.007056959,-0.0014288638,0.0008437185,-0.003844313,0.00022075027,0.77145463,-0.58552057,-1.9471259,3.1241257,0.0,0.1,-0.007056959,0.0050927578,0.0035020085,0.025621956,0.017032655,inf,inf,inf,inf,1,1,1,1,2,1,2,3,0,0,0
59975470,0,0.0,0.0,0.2325537,0.6226192,-0.034145862,0.24050389,0.60899144,-0.2548081,0.0076702368,-0.00785246,0.008351274,-0.00023566175,0.0008437185,-0.003844313,0.00022075027,1.9836271,0.18147695,-1.6464628,3.1187534,0.0,0.1,-0.008351274,0.0051437467,0.0035361885,0.025713366,0.017088506,inf,inf,inf,inf,1,1,1,1,2,1,2,3,0,0,0
60079473,0,0.0,0.0,0.23196507,0.62302566,-0.03449907,0.24050389,0.60899144,-0.2548081,-0.0003458914,-0.008312639,0.0061846296,-0.0024457728,0.0008437185,-0.003844313,0.00022075027,0.77477133,-1.312588,-2.3481379,3.1198406,0.0,0.1,-0.0061846296,0.005246561,0.0036020163,0.026048655,0.017296324,inf,inf,inf,inf,1,1,1,1,2,1,2,3,0,0,0
