timestamp,ref_timestamp,ref_lat,ref_lon,x,y,z,delta_xy[0],delta_xy[1],delta_z,vx,vy,vz,z_deriv,delta_vxy[0],delta_vxy[1],delta_vz,ax,ay,az,yaw,ref_alt,dist_bottom,dist_bottom_rate,eph,epv,evh,evv,vxy_max,vz_max,hagl_min,hagl_max,xy_valid,z_valid,v_xy_valid,v_z_valid,xy_reset_counter,z_reset_counter,vxy_reset_counter,vz_reset_counter,xy_global,z_global,dist_bottom_valid
82648071,0,0.0,0.0,0.03205858,0.43249702,-0.03640161,0.0287597,0.43419725,-0.25574058,0.002588056,0.000718715,0.0007956004,0.0007555058,-0.004578579,0.002422073,-0.00020330926,0.0030894822,-0.000583516,0.013262434,-3.1311562,0.0,0.1,-0.0007956004,0.005674628,0.0039449856,0.026715511,0.018208,inf,inf,inf,inf,1,1,1,1,2,1,2,3,0,0,0
82751270,0,0.0,0.0,0.03190453,0.43245062,-0.036512196,0.0287597,0.43419725,-0.25574058,0.0018653331,0.0004815299,-0.00038557,-0.0005139867,-0.004578579,0.002422073,-0.00020330926,0.018828157,0.009087,-0.026570557,-3.1311607,0.0,0.1,0.00038557,0.0051948703,0.0036188865,0.025819052,0.017630454,inf,inf,inf,inf,1,1,1,1,2,1,2,3,0,0,0
82855276,0,0.0,0.0,0.03175107,0.432395,-0.036683716,0.0287597,0.43419725,-0.25574058,0.0016022348,0.0005153979,-0.00015248453,-0.00033725842,-0.004578579,0.002422073,-0.00020330926,-0.010860997,-0.010339851,0.00751711,-3.1311953,0.0,0.1,0.00015248453,0.0052587143,0.0036593962,0.026182005,0.017863112,inf,inf,inf,inf,1,1,1,1,2,1,2,3,0,0,0
82951270,0,0.0,0.0,0.03158576,0.4323462,-0.036841553,0.0287597,0.43419725,-0.25574058,0.0013139321,0.00052970584,-0.00085401,-0.0010682339,-0.004578579,0.002422073,-0.00020330926,0.012380412,0.0056343437,0.015172113,-3.1312182,0.0,0.1,0.00085401,0.0051784473,0.0036046195,0.025954567,0.017718038,inf,inf,inf,inf,1,1,1,1,2,1,2,3,0,0,0
83055295,0,0.0,0.0,0.031400457,0.43230298,-0.036996543,0.0287597,0.43419725,-0.25574058,4.4588814e-06,1.6386577e-05,-0.0003841034,-0.0005972271,-0.004578579,0.002422073,-0.00020330926,-0.3100616,-0.34653622,0.17062926,-3.1314845,0.0,0.1,0.0003841034,0.0052668788,0.0036639834,0.026165059,0.017854603,inf,inf,inf,inf,1,1,1,1,2,1,2,3,0,0,0
83159276,0,0.0,0.0,0.031227062,0.4322377,-0.037076406,0.0287597,0.43419725,-0.25574058,0.0014999154,-0.0006705179,-0.0003296495,-0.00049501704,-0.004578579,0.002422073,-0.00020330926,0.3141543,-0.017305909,0.006755283,-3.1311429,0.0,0.10012153,0.0003296495,0.0053253607,0.0037038114,0.026252666,0.017911553,inf,inf,inf,inf,1,1,1,1,2,1,2,3,0,0,0
83263287,0,0.0,0.0,0.031094797,0.43210888,-0.037048955,0.0287597,0.43419725,-0.25574058,0.00090694416,-0.0013013444,0.00021547874,0.00011994647,-0.004578579,0.002422073,-0.00020330926,-0.056136213,-0.0059383,0.005442048,-3.1307318,0.0,0.100106135,-0.00021547874,0.0053634583,0.003730022,0.026298426,0.017941177,inf,inf,inf,inf,1,1,1,1,2,1,2,3,0,0,0
83367270,0,0.0,0.0,0.031006383,0.43199033,-0.037044886,0.0287597,0.43419725,-0.25574058,0.0017394741,-0.0011385051,-0.0004416032,-0.00047884212,-0.004578579,0.002422073,-0.00020330926,0.211849,-0.4378392,-0.05523415,-3.130894,0.0,0.10011341,0.0004416032,0.0054473523,0.0037859632,0.026560927,0.018109327,inf,inf,inf,inf,1,1,1,1,2,1,2,3,0,0,0
83462507,0,0.0,0.0,0.03091354,0.4319417,-0.03703642,0.0287597,0.43419725,-0.25574058,-7.2309864e-05,0.0026063072,-0.00022151702,-0.00022804375,-0.004578579,0.002422073,-0.00020330926,0.20278962,0.43196115,-0.1363295,-3.130555,0.0,0.10011396,0.00022151702,0.005370518,0.0037341858,0.026377084,0.017991183,inf,inf,inf,inf,1,1,1,1,2,1,2,3,0,0,0
83566471,0,0.0,0.0,0.030865502,0.43200743,-0.036961492,0.0287597,0.43419725,-0.25574058,0.00022400309,0.0006379822,0.0015153653,0.0015156764,-0.004578579,0.002422073,-0.00020330926,-0.15363488,-0.12195699,0.09071775,-3.1301572,0.0,0.100007564,-0.0015153653,0.0054530753,0.0037897693,0.026575714,0.018118236,inf,inf,inf,inf,1,1,1,1,2,1,2,3,0,0,0
83670470,0,0.0,0.0,0.030893868,0.43212664,-0.036913343,0.0287597,0.43419725,-0.25574058,0.0016786583,0.00064450287,-0.0018380155,-0.001840117,-0.004578579,0.002422073,-0.00020330926,0.32178283,0.72639865,-0.22329208,-3.1312594,0.0,0.1,0.0018380155,0.005125229,0.0035693892,0.02567914,0.017545445,inf,inf,inf,inf,1,1,1,1,2,1,2,3,0,0,0
83766480,0,0.0,0.0,0.030819219,0.4321411,-0.036920667,0.0287597,0.43419725,-0.25574058,-0.0013853067,0.0013452607,0.00086287444,0.00082736084,-0.004578579,0.002422073,-0.00020330926,-0.46525177,-0.01449165,-0.041772734,-3.1305947,0.0,0.1,-0.00086287444,0.0054211193,0.0037685903,0.026475227,0.018055791,inf,inf,inf,inf,1,1,1,1,2,1,2,3,0,0,0
83870483,0,0.0,0.0,0.030706096,0.43215907,-0.03695379,0.0287597,0.43419725,-0.25574058,-0.00024173912,-0.00046144985,-0.0010289033,-0.0011136445,-0.004578579,0.002422073,-0.00020330926,0.14155012,-0.25624067,-0.16319011,-3.1305122,0.0,0.1,0.0010289033,0.0051203608,0.0035659927,0.025699023,0.01755844,inf,inf,inf,inf,1,1,1,1,2,1,2,3,0,0,0
83974517,0,0.0,0.0,0.030535385,0.43224308,-0.03690173,0.0287597,0.43419725,-0.25574058,-0.0004635697,0.0019869646,0.0013106985,0.0011955072,-0.004578579,0.002422073,-0.00020330926,-0.5124967,0.42480972,-0.088292874,-3.130459,0.0,0.1,-0.0013106985,0.0051887995,0.0036121986,0.025871338,0.017668625,inf,inf,inf,inf,1,1,1,1,2,1,2,3,0,0,0
84078481,0,0.0,0.0,0.030317357,0.43223238,-0.03681905,0.0287597,0.43419725,-0.25574058,-0.0010377781,-0.0007413448,0.0013799209,0.001238036,-0.004578579,0.002422073,-0.00020330926,0.036060262,0.1980498,0.07715606,-3.1292243,0.0,0.1,-0.0013799209,0.0052862805,0.00367741,0.026167145,0.017858105,inf,inf,inf,inf,1,1,1,1,2,1,2,3,0,0,0
84173670,0,0.0,0.0,0.030130608,0.43235773,-0.036777657,0.0287597,0.43419725,-0.25574058,-0.0005567095,0.0026269672,0.0014609742,0.0013018706,-0.004578579,0.002422073,-0.00020330926,0.31559744,-0.393396,0.13848159,-3.1314769,0.0,0.1,-0.0014609742,0.005210222,0.0036266018,0.025918597,0.017698571,inf,inf,inf,inf,1,1,1,1,2,1,2,3,0,0,0
84277714,0,0.0,0.0,0.030051079,0.4323112,-0.036773283,0.0287597,0.43419725,-0.25574058,-0.0019107157,-0.0009531215,0.00049921713,0.00029290805,-0.004578579,0.002422073,-0.00020330926,-0.29310396,-0.42603472,-0.08285791,-3.13077,0.0,0.1,-0.00049921713,0.0052771964,0.0036718175,0.026089977,0.017809946,inf,inf,inf,inf,1,1,1,1,2,1,2,3,0,0,0
84381718,0,0.0,0.0,0.03011924,0.43237114,-0.036871705,0.0287597,0.43419725,-0.25574058,0.001033927,8.931296e-05,-0.0011014364,-0.0013823113,-0.004578579,0.002422073,-0.00020330926,-0.058081046,0.61137563,0.112540245,-3.130136,0.0,0.1,0.0011014364,0.0053288937,0.0037066871,0.026212886,0.017886726,inf,inf,inf,inf,1,1,1,1,2,1,2,3,0,0,0
84477670,0,0.0,0.0,0.030278984,0.43238354,-0.037024863,0.0287597,0.43419725,-0.25574058,0.001142294,0.0024780387,-0.00045028722,-0.0007784499,-0.004578579,0.002422073,-0.00020330926,0.0016769244,0.4784397,0.30429262,-3.129731,0.0,0.1,0.00045028722,0.005262219,0.0036615692,0.026069252,0.017795078,inf,inf,inf,inf,1,1,1,1,2,1,2,3,0,0,0
84581676,0,0.0,0.0,0.030510569,0.43228418,-0.037292007,0.0287597,0.43419725,-0.25574058,0.002294673,0.0010315189,-0.0016005686,-0.0019608417,-0.004578579,0.002422073,-0.00020330926,0.42598245,0.31292695,-0.28086665,-3.1295788,0.0,0.10002011,0.0016005686,0.0053348998,0.0037105333,0.026254578,0.017913131,inf,inf,inf,inf,1,1,1,1,2,1,2,3,0,0,0
84685671,0,0.0,0.0,0.030733936,0.4322088,-0.037596405,0.0287597,0.43419725,-0.25574058,-0.00076194346,0.0006280544,-0.0016484702,-0.001988041,-0.004578579,0.002422073,-0.00020330926,-0.53498006,1.0833951,0.50981,-3.129641,0.0,0.10024704,0.0016484702,0.0054182354,0.003766411,0.026479172,0.018057587,inf,inf,inf,inf,1,1,1,1,2,1,2,3,0,0,0
84781669,0,0.0,0.0,0.030899432,0.43211177,-0.037965607,0.0287597,0.43419725,-0.25574058,0.0020112605,-0.0016003565,-0.0036624868,-0.0039562075,-0.004578579,0.002422073,-0.00020330926,0.32620874,-0.17055133,-0.24299388,-3.1298952,0.0,0.1005363,0.0036624868,0.005337362,0.003712093,0.026260722,0.017917078,inf,inf,inf,inf,1,1,1,1,2,1,2,3,0,0,0
84888870,0,0.0,0.0,0.031026313,0.43194664,-0.038390927,0.0287597,0.43419725,-0.25574058,0.0015868435,0.00059215067,-0.0038339824,-0.004017965,-0.004578579,0.002422073,-0.00020330926,-0.014810309,0.49295607,0.07794484,-3.129635,0.0,0.10094298,0.0038339824,0.005089141,0.0035442652,0.025661603,0.017531032,inf,inf,inf,inf,1,1,1,1,2,1,2,3,0,0,0
84984125,0,0.0,0.0,0.031110799,0.43187428,-0.03870127,0.0287597,0.43419725,-0.25574058,0.0016928284,0.0010823716,-0.0036326111,-0.0036848213,-0.004578579,0.002422073,-0.00020330926,-0.40514603,0.34183994,0.16438802,-3.1294398,0.0,0.101096004,0.0036326111,0.005406881,0.0037581704,0.026480656,0.01805627,inf,inf,inf,inf,1,1,1,1,2,1,2,3,0,0,0
85088893,0,0.0,0.0,0.031166876,0.43181407,-0.03891103,0.0287597,0.43419725,-0.25574058,0.0039414894,-0.00207156,-0.003731345,-0.0035733918,-0.004578579,0.002422073,-0.00020330926,0.6628352,0.035196014,0.48097757,-3.12924,0.0,0.10130371,0.003731345,0.0055337204,0.003843694,0.026900863,0.018322198,inf,inf,inf,inf,1,1,1,1,2,1,2,3,0,0,0
85192891,0,0.0,0.0,0.031192286,0.43178314,-0.039010756,0.0287597,0.43419725,-0.25574058,0.00069867005,-0.0012513271,-0.0031847863,-0.0027833048,-0.004578579,0.002422073,-0.00020330926,-0.104134224,-0.76098186,0.091067255,-3.129183,0.0,0.10145809,0.0031847863,0.0051778993,0.003604849,0.025878502,0.017669966,inf,inf,inf,inf,1,1,1,1,2,1,2,3,0,0,0
85296876,0,0.0,0.0,0.03120234,0.43177,-0.039023634,0.0287597,0.43419725,-0.25574058,0.0006597928,-0.00087181915,-0.0049555674,-0.004318334,-0.004578579,0.002422073,-0.00020330926,-0.47814956,-0.1071933,-0.11607284,-3.1291342,0.0,0.10153347,0.0049555674,0.0052774367,0.0036712496,0.0261668,0.017854238,inf,inf,inf,inf,1,1,1,1,2,1,2,3,0,0,0
85400869,0,0.0,0.0,0.03118227,0.43176177,-0.038976178,0.0287597,0.43419725,-0.25574058,0.002260345,-0.0008578357,-0.0028232154,-0.0019851434,-0.004578579,0.002422073,-0.00020330926,0.55548745,0.37135765,-0.2504861,-3.1290007,0.0,0.101484105,0.0028232154,0.005344391,0.0037166032,0.02629167,0.01793509,inf,inf,inf,inf,1,1,1,1,2,1,2,3,0,0,0
85496868,0,0.0,0.0,0.031089725,0.43178353,-0.03881215,0.0287597,0.43419725,-0.25574058,-0.00019523838,-0.0017903056,-0.003914249,-0.0029123833,-0.004578579,0.002422073,-0.00020330926,-0.62304795,-0.24348705,-0.36885783,-3.128982,0.0,0.101355284,0.003914249,0.0052533555,0.0036555124,0.026036693,0.017770197,inf,inf,inf,inf,1,1,1,1,2,1,2,3,0,0,0
85600076,0,0.0,0.0,0.030982452,0.43182653,-0.038565498,0.0287597,0.43419725,-0.25574058,0.0005700679,0.0020883179,-0.0011666192,-1.9660034e-05,-0.004578579,0.002422073,-0.00020330926,0.4694719,0.91610265,-0.0458812,-3.1289697,0.0,0.10110864,0.0011666192,0.0053146454,0.0036967043,0.026199041,0.017876275,inf,inf,inf,inf,1,1,1,1,2,1,2,3,0,0,0
85704079,0,0.0,0.0,0.030911062,0.43195605,-0.038291983,0.0287597,0.43419725,-0.25574058,0.0015120798,0.0030120367,-0.0009601541,0.00027074327,-0.004578579,0.002422073,-0.00020330926,0.53413063,1.0194949,-0.23237246,-3.128893,0.0,0.10083512,0.0009601541,0.0054098037,0.0037602922,0.026481273,0.01805457,inf,inf,inf,inf,1,1,1,1,2,1,2,3,0,0,0
85800070,0,0.0,0.0,0.030835297,0.43208113,-0.03810991,0.0287597,0.43419725,-0.25574058,-0.0006892986,-0.0013993316,-0.001252102,1.4485497e-05,-0.004578579,0.002422073,-0.00020330926,0.3219439,-1.4920691,0.48320925,-3.128834,0.0,0.10065305,0.001252102,0.0049918513,0.0034784866,0.025411742,0.017368726,inf,inf,inf,inf,1,1,1,1,2,1,2,3,0,0,0
85904076,0,0.0,0.0,0.030763203,0.43219876,-0.037921607,0.0287597,0.43419725,-0.25574058,0.0001722658,-0.00084888237,-0.00047310488,0.0007797478,-0.004578579,0.002422073,-0.00020330926,0.4497323,-0.972751,0.5901172,-3.1286225,0.0,0.10046475,0.00047310488,0.005123446,0.0035665552,0.025786415,0.017609112,inf,inf,inf,inf,1,1,1,1,2,1,2,3,0,0,0
86008070,0,0.0,0.0,0.030704854,0.4323837,-0.037729118,0.0287597,0.43419725,-0.25574058,0.0010890723,0.0022088208,-0.0013419697,-0.000139518,-0.004578579,0.002422073,-0.00020330926,0.5144353,0.074469596,0.5671596,-3.128427,0.0,0.10027225,0.0013419697,0.005245887,0.003649219,0.026075296,0.017795254,inf,inf,inf,inf,1,1,1,1,2,1,2,3,0,0,0
86112076,0,0.0,0.0,0.030668508,0.43246356,-0.037638593,0.0287597,0.43419725,-0.25574058,0.0005576009,0.0028943322,-0.002941612,-0.0017962146,-0.004578579,0.002422073,-0.00020330926,-0.027806317,0.78957945,-0.35373873,-3.1284277,0.0,0.10018173,0.002941612,0.0053461604,0.003717259,0.026280753,0.017927863,inf,inf,inf,inf,1,1,1,1,2,1,2,3,0,0,0
86208076,0,0.0,0.0,0.030703515,0.43251097,-0.03760049,0.0287597,0.43419725,-0.25574058,-0.0008583282,0.0019132354,-0.0006747269,0.00040214477,-0.004578579,0.002422073,-0.00020330926,-0.40488023,-0.29525548,-0.2810144,-3.1285868,0.0,0.10014363,0.0006747269,0.0052726427,0.0036681427,0.026078172,0.017794548,inf,inf,inf,inf,1,1,1,1,2,1,2,3,0,0,0
86312078,0,0.0,0.0,0.030730743,0.43252072,-0.03753611,0.0287597,0.43419725,-0.25574058,-0.0026459738,-0.0044169407,-0.00095505867,4.2589116e-05,-0.004578579,0.002422073,-0.00020330926,-1.4230963,-1.3254342,-0.004550845,-3.1285553,0.0,0.10007925,0.00095505867,0.005338871,0.0037129205,0.026241116,0.01790007,inf,inf,inf,inf,1,1,1,1,2,1,2,3,0,0,0
86415293,0,0.0,0.0,0.03060384,0.43247175,-0.037575934,0.0287597,0.43419725,-0.25574058,-0.0028759583,-0.0007282192,0.00019181723,0.0011072084,-0.004578579,0.002422073,-0.00020330926,0.21337791,-0.45572358,0.30288887,-3.1283114,0.0,0.10011907,-0.00019181723,0.0053839246,0.0037435796,0.026336098,0.017962202,inf,inf,inf,inf,1,1,1,1,2,1,2,3,0,0,0
86511326,0,0.0,0.0,0.030355087,0.43241954,-0.037653327,0.0287597,0.43419725,-0.25574058,-0.0026651067,0.00024116776,-0.0025120073,-0.0016747997,-0.004578579,0.002422073,-0.00020330926,0.003113868,-0.07228151,-0.28670204,-3.1283913,0.0,0.100196466,0.0025120073,0.00530414,0.0036894144,0.026160011,0.017849099,inf,inf,inf,inf,1,1,1,1,2,1,2,3,0,0,0
86615271,0,0.0,0.0,0.030118974,0.4323878,-0.037768066,0.0287597,0.43419725,-0.25574058,-0.0015142523,-0.003155323,-0.0031040215,-0.0023379854,-0.004578579,0.002422073,-0.00020330926,0.5703874,-1.4924,-0.11094749,-3.1285532,0.0,0.100311205,0.0031040215,0.005385413,0.0037440266,0.026392477,0.0180008,inf,inf,inf,inf,1,1,1,1,2,1,2,3,0,0,0
86719276,0,0.0,0.0,0.029940765,0.4322714,-0.037919138,0.0287597,0.43419725,-0.25574058,0.00025530296,-0.0024691387,-0.00090158166,-0.00017274523,-0.004578579,0.002422073,-0.00020330926,0.56098706,-0.58051604,0.14290157,-3.1283216,0.0,0.10046227,0.00090158166,0.0051071723,0.003556582,0.02568122,0.017542953,inf,inf,inf,inf,1,1,1,1,2,1,2,3,0,0,0
86815285,0,0.0,0.0,0.029887874,0.4321616,-0.038208548,0.0287597,0.43419725,-0.25574058,-0.010495385,-0.0001767496,-0.003968076,-0.0032539181,-0.004578579,0.002422073,-0.00020330926,-1.0928615,0.11606539,0.11229816,-3.1279092,0.0,0.10075168,0.003968076,0.005375663,0.003738006,0.02632259,0.017955542,inf,inf,inf,inf,1,1,1,1,2,1,2,3,0,0,0
86919270,0,0.0,0.0,0.030087559,0.4320099,-0.038676567,0.0287597,0.43419725,-0.25574058,0.0023172582,0.0020255141,-0.0032796217,-0.0025882833,-0.004578579,0.002422073,-0.00020330926,3.5116584,1.3156184,0.7738085,-3.127721,0.0,0.101219706,0.0032796217,0.005085054,0.00354198,0.02559809,0.01748972,inf,inf,inf,inf,1,1,1,1,2,1,2,3,0,0,0
87023316,0,0.0,0.0,0.030255204,0.43203768,-0.03904986,0.0287597,0.43419725,-0.25574058,0.0039369655,-0.0073244213,-0.002221454,-0.0015827921,-0.004578579,0.002422073,-0.00020330926,1.170179,-1.3377206,0.6921927,-3.127818,0.0,0.101593,0.002221454,0.0051575038,0.0035906476,0.025808366,0.01762017,inf,inf,inf,inf,1,1,1,1,2,1,2,3,0,0,0
87126485,0,0.0,0.0,0.030342782,0.43189204,-0.03924685,0.0287597,0.43419725,-0.25574058,0.0013660612,0.0016205924,-0.0054405713,-0.0048207995,-0.004578579,0.002422073,-0.00020330926,-0.25683123,0.5245582,-0.66075563,-3.1279736,0.0,0.10178999,0.0054405713,0.0052156467,0.0036302067,0.025902966,0.017687593,inf,inf,inf,inf,1,1,1,1,2,1,2,3,0,0,0
87229717,0,0.0,0.0,0.03037592,0.4319647,-0.039300997,0.0287597,0.43419725,-0.25574058,-0.0062669436,0.0016190654,-0.006128189,-0.005429389,-0.004578579,0.002422073,-0.00020330926,-0.9593201,2.9454072,-0.50357884,-3.1276972,0.0,0.10184413,0.006128189,0.0052131033,0.0036293094,0.025845837,0.01765159,inf,inf,inf,inf,1,1,1,1,2,1,2,3,0,0,0
87326480,0,0.0,0.0,0.03038135,0.432082,-0.039251857,0.0287597,0.43419725,-0.25574058,-0.003726,0.0011794458,0.0032489928,0.0040596426,-0.004578579,0.002422073,-0.00020330926,-1.0161471,-0.31457126,0.8051174,-3.1280322,0.0,0.101794995,-0.0032489928,0.005074472,0.0035356632,0.025488442,0.017420499,inf,inf,inf,inf,1,1,1,1,2,1,2,3,0,0,0
87430470,0,0.0,0.0,0.030334886,0.43199372,-0.039227307,0.0287597,0.43419725,-0.25574058,0.0012577736,-0.0049412907,-0.010893655,-0.0099644875,-0.004578579,0.002422073,-0.00020330926,1.3638924,-2.1979532,0.5099911,-3.127876,0.0,0.101770446,0.010893655,0.0051505095,0.0035866166,0.025766024,0.017603775,inf,inf,inf,inf,1,1,1,1,2,1,2,3,0,0,0
87534520,0,0.0,0.0,0.030287277,0.4319604,-0.039131355,0.0287597,0.43419725,-0.25574058,0.0043526534,-0.00045407814,-0.0026860053,-0.0016886198,-0.004578579,0.002422073,-0.00020330926,3.7846751,0.7165779,-2.3971393,-3.1279128,0.0,0.1016745,0.0026860053,0.0052162283,0.0036307385,0.02595784,0.017721632,inf,inf,inf,inf,1,1,1,1,2,1,2,3,0,0,0
87630476,0,0.0,0.0,0.03040271,0.43185648,-0.039183613,0.0287597,0.43419725,-0.25574058,0.006174703,0.005160206,-0.00840695,-0.007378371,-0.004578579,0.002422073,-0.00020330926,0.32059744,2.34769,1.0873549,-3.1277714,0.0,0.101726755,0.00840695,0.005131793,0.0035737867,0.025709927,0.017571632,inf,inf,inf,inf,1,1,1,1,2,1,2,3,0,0,0
87734469,0,0.0,0.0,0.030547565,0.43181148,-0.0392788,0.0287597,0.43419725,-0.25574058,-0.0006496343,0.0009859361,-0.006079554,-0.0050443625,-0.004578579,0.002422073,-0.00020330926,2.307838,2.458857,0.21946566,-3.1278546,0.0,0.101821944,0.006079554,0.0052217324,0.003634191,0.025974372,0.017731994,inf,inf,inf,inf,1,1,1,1,2,1,2,3,0,0,0
87838509,0,0.0,0.0,0.030689115,0.43170026,-0.039554767,0.0287597,0.43419725,-0.25574058,0.006853874,0.010585727,-0.004232086,-0.0032423006,-0.004578579,0.002422073,-0.00020330926,1.8996189,1.1894138,0.24133088,-3.1278536,0.0,0.102097906,0.004232086,0.0052835415,0.003675904,0.026123488,0.017822057,inf,inf,inf,inf,1,1,1,1,2,1,2,3,0,0,0
87941670,0,0.0,0.0,0.030780664,0.4317125,-0.03972495,0.0287597,0.43419725,-0.25574058,-0.002258053,-0.016077468,-0.0023744544,-0.0014452568,-0.004578579,0.002422073,-0.00020330926,-0.8237074,-2.9265702,-1.3093781,-3.127907,0.0,0.102268085,0.0023744544,0.0053434973,0.0037163752,0.026271215,0.017918717,inf,inf,inf,inf,1,1,1,1,2,1,2,3,0,0,0
88037670,0,0.0,0.0,0.030778293,0.43162838,-0.03986476,0.0287597,0.43419725,-0.25574058,0.0055059493,-0.011613626,-0.0061473455,-0.0052523687,-0.004578579,0.002422073,-0.00020330926,2.081068,-0.30805176,-1.4784921,-3.1282027,0.0,0.1024079,0.0061473455,0.005253697,0.0036556579,0.026026871,0.017764894,inf,inf,inf,inf,1,1,1,1,2,1,2,3,0,0,0
88141687,0,0.0,0.0,0.03078588,0.4319385,-0.040170465,0.0287597,0.43419725,-0.25574058,-0.0037103118,-0.007567932,0.0006276533,0.0014995118,-0.004578579,0.002422073,-0.00020330926,-1.8812184,-3.8199823,2.7855575,-3.1275742,0.0,0.1027136,-0.0006276533,0.005330047,0.0037071921,0.026228141,0.017900035,inf,inf,inf,inf,1,1,1,1,2,1,2,3,0,0,0
88245695,0,0.0,0.0,0.030743327,0.43199596,-0.04042626,0.0287597,0.43419725,-0.25574058,0.00023711214,0.0013431824,-0.00814375,-0.007308732,-0.004578579,0.002422073,-0.00020330926,0.06097966,-0.985235,-1.2806971,-3.1276543,0.0,0.1029694,0.00814375,0.0053944946,0.0037508789,0.026384726,0.017990423,inf,inf,inf,inf,1,1,1,1,2,1,2,3,0,0,0
88341670,0,0.0,0.0,0.03024494,0.43235594,-0.040395517,0.0287597,0.43419725,-0.25574058,-0.0004121947,0.0041719335,0.004376894,0.005180418,-0.004578579,0.002422073,-0.00020330926,-1.1767832,-1.1550298,1.4186217,-3.1270275,0.0,0.10293865,-0.004376894,0.005324213,0.0037033253,0.026240898,0.017897936,inf,inf,inf,inf,1,1,1,1,2,1,2,3,0,0,0
88445670,0,0.0,0.0,0.030116685,0.43226618,-0.040635288,0.0287597,0.43419725,-0.25574058,-0.0017957396,0.0041546146,-0.0013659823,-0.00053315354,-0.004578579,0.002422073,-0.00020330926,-2.1367855,1.459579,0.59233505,-3.1269403,0.0,0.10317843,0.0013659823,0.005413504,0.0037632794,0.026475128,0.018061157,inf,inf,inf,inf,1,1,1,1,2,1,2,3,0,0,0
88549670,0,0.0,0.0,0.029939843,0.43251148,-0.040986557,0.0287597,0.43419725,-0.25574058,-0.0008592311,-0.010106405,-0.01277902,-0.011898593,-0.004578579,0.002422073,-0.00020330926,-1.8365769,-2.092972,-0.9983192,-3.1275394,0.0,0.10352969,0.01277902,0.005117399,0.0035641398,0.025695868,0.017557142,inf,inf,inf,inf,1,1,1,1,2,1,2,3,0,0,0
88652870,0,0.0,0.0,0.0300471,0.43232614,-0.041422106,0.0287597,0.43419725,-0.25574058,-0.0023859723,-0.013013619,-0.005743314,-0.004880401,-0.004578579,0.002422073,-0.00020330926,0.2555127,-0.43793365,-1.9260094,-3.126605,0.0,0.103965245,0.005743314,0.0051688626,0.0035992833,0.025783328,0.017615445,inf,inf,inf,inf,1,1,1,1,2,1,2,3,0,0,0
88756876,0,0.0,0.0,0.030097201,0.4317509,-0.041588083,0.0287597,0.43419725,-0.25574058,-0.0013127185,-0.0029383097,0.0019089615,0.0026907832,-0.004578579,0.002422073,-0.00020330926,-0.6876251,3.0562246,0.64021075,-3.1255786,0.0,0.10413122,-0.0019089615,0.0052716946,0.0036678864,0.026115952,0.017825676,inf,inf,inf,inf,1,1,1,1,2,1,2,3,0,0,0
88852870,0,0.0,0.0,0.029660573,0.4314015,-0.041262727,0.0287597,0.43419725,-0.25574058,0.0032751483,-0.001691515,0.004613166,0.005350937,-0.004578579,0.002422073,-0.00020330926,1.8989644,0.44442296,1.7872479,-3.1272774,0.0,0.10380587,-0.004613166,0.0051824353,0.003608051,0.02583273,0.017659772,inf,inf,inf,inf,1,1,1,1,2,1,2,3,0,0,0
88956870,0,0.0,0.0,0.029781876,0.4307587,-0.04156815,0.0287597,0.43419725,-0.25574058,-0.011390821,0.0062703495,0.0018682351,0.0026574866,-0.004578579,0.002422073,-0.00020330926,-5.7230854,2.580136,2.5796902,-3.125883,0.0,0.104111284,-0.0018682351,0.0052632634,0.0036629052,0.026075305,0.017812844,inf,inf,inf,inf,1,1,1,1,2,1,2,3,0,0,0
89060876,0,0.0,0.0,0.03037002,0.4305637,-0.042240784,0.0287597,0.43419725,-0.25574058,0.004916975,-0.014650793,-0.0045152805,-0.003789133,-0.004578579,0.002422073,-0.00020330926,-0.52707607,-4.024467,1.7516102,-3.128195,0.0,0.10478392,0.0045152805,0.005335565,0.003711997,0.026259264,0.017932473,inf,inf,inf,inf,1,1,1,1,2,1,2,3,0,0,0
89156870,0,0.0,0.0,0.03006437,0.43039078,-0.042293135,0.0287597,0.43419725,-0.25574058,-0.008480766,0.0008263896,0.006991051,0.0074911625,-0.004578579,0.002422073,-0.00020330926,-1.594379,-1.3793144,0.73057777,-3.126121,0.0,0.10483627,-0.006991051,0.00526464,0.0036640475,0.026073704,0.017803872,inf,inf,inf,inf,1,1,1,1,2,1,2,3,0,0,0
89260872,0,0.0,0.0,0.02964959,0.4301387,-0.04231023,0.0287597,0.43419725,-0.25574058,-0.0028096463,-0.002376533,5.223341e-06,0.0003685906,-0.004578579,0.002422073,-0.00020330926,-3.3129592,0.18634267,-1.5777897,-3.1263275,0.0,0.10485337,-5.223341e-06,0.005301084,0.0036890097,0.026119022,0.01784242,inf,inf,inf,inf,1,1,1,1,2,1,2,3,0,0,0
89364926,0,0.0,0.0,0.029597383,0.4300925,-0.04248218,0.0287597,0.43419725,-0.25574058,0.017181305,-0.0058318716,0.007934721,0.008337376,-0.004578579,0.002422073,-0.00020330926,6.2225413,-1.2798715,1.6257898,-3.1263335,0.0,0.10502532,-0.007934721,0.0053650727,0.0037327115,0.026312117,0.017965943,inf,inf,inf,inf,1,1,1,1,2,1,2,3,0,0,0
89464076,0,0.0,0.0,0.02908041,0.430809,-0.041834358,0.0287597,0.43419725,-0.25574058,0.0018784751,-0.0104254,-0.002477322,-0.0020823055,-0.004578579,0.002422073,-0.00020330926,0.6822064,-0.4791618,-1.025962,-3.1262996,0.0,0.10437749,0.002477322,0.005349126,0.0037209212,0.02637863,0.018017456,inf,inf,inf,inf,1,1,1,1,2,1,2,3,0,0,0
89568071,0,0.0,0.0,0.03041793,0.43077454,-0.042656068,0.0287597,0.43419725,-0.25574058,0.0036826634,-0.012877382,-0.017245749,-0.016814504,-0.004578579,0.002422073,-0.00020330926,0.9903027,-1.5260698,-0.4254288,-3.126172,0.0,0.1051992,0.017245749,0.005506009,0.0038266908,0.026890686,0.018354923,inf,inf,inf,inf,1,1,1,1,2,1,2,3,0,0,0
89664070,0,0.0,0.0,0.03154404,0.43134737,-0.043201324,0.0287597,0.43419725,-0.25574058,0.021831924,-0.011238469,0.006904229,0.007121614,-0.004578579,0.002422073,-0.00020330926,6.485303,-0.77734846,-1.0591778,-3.1279109,0.0,0.105744466,-0.006904229,0.0054212534,0.0037696792,0.02661912,0.018148704,inf,inf,inf,inf,1,1,1,1,2,1,2,3,0,0,0
89768076,0,0.0,0.0,0.0319184,0.43195546,-0.043321252,0.0287597,0.43419725,-0.25574058,-0.0014303782,0.0022064606,0.0042650243,0.0040641986,-0.004578579,0.002422073,-0.00020330926,-0.74367297,1.4220212,0.6575102,-3.1269424,0.0,0.10586439,-0.0042650243,0.0051252167,0.003569394,0.025768725,0.017603809,inf,inf,inf,inf,1,1,1,1,2,1,2,3,0,0,0
89872072,0,0.0,0.0,0.032132756,0.432319,-0.04370334,0.0287597,0.43419725,-0.25574058,-0.0049899505,-0.012887897,-0.0005576795,-0.00091453287,-0.004578579,0.002422073,-0.00020330926,0.19810602,-3.811193,3.6379094,-3.1278427,0.0,0.10624648,0.0005576795,0.005159553,0.0035937268,0.025742864,0.017617688,inf,inf,inf,inf,1,1,1,1,2,1,2,3,0,0,0
89976081,0,0.0,0.0,0.032715354,0.43318304,-0.04449702,0.0287597,0.43419725,-0.25574058,-0.0046491018,0.011537855,-0.00056506053,-0.0009277312,-0.004578579,0.002422073,-0.00020330926,1.2968612,1.6792551,3.352821,-3.1264563,0.0,0.10704016,0.00056506053,0.0052184816,0.0036341182,0.025918113,0.01772761,inf,inf,inf,inf,1,1,1,1,2,1,2,3,0,0,0
90080083,0,0.0,0.0,0.031462096,0.43389988,-0.044255782,0.0287597,0.43419725,-0.25574058,-0.01674319,0.020347647,0.028269235,0.0277831,-0.004578579,0.002422073,-0.00020330926,-0.29979974,2.429222,4.571157,-3.1290426,0.0,0.10679892,-0.028269235,0.0053131636,0.0036971977,0.026250556,0.01791491,inf,inf,inf,inf,1,1,1,1,2,1,2,3,0,0,0
90177676,0,0.0,0.0,0.027652184,0.4339957,-0.041186716,0.0287597,0.43419725,-0.25574058,-0.051557638,-0.021560261,0.041523904,0.041157153,-0.004578579,0.002422073,-0.00020330926,0.1386309,-4.2724566,-0.9671153,-3.1262937,0.0,0.10372986,-0.041523904,0.0052450057,0.0036511037,0.026045073,0.017808488,inf,inf,inf,inf,1,1,1,1,2,1,2,3,0,0,0
90279270,0,0.0,0.0,0.024323532,0.43230426,-0.03915626,0.0287597,0.43419725,-0.25574058,0.01568522,0.0019829923,0.0025597566,0.0030231036,-0.004578579,0.002422073,-0.00020330926,0.27596354,0.33008757,0.08463946,-3.12631,0.0,0.1016994,-0.0025597566,0.005328575,0.0037094587,0.026238808,0.017973276,inf,inf,inf,inf,1,1,1,1,2,1,2,3,0,0,0
90383300,0,0.0,0.0,0.022527745,0.43317372,-0.03760143,0.0287597,0.43419725,-0.25574058,-0.003925788,0.0015413646,0.0058184634,0.0070286714,-0.004578579,0.002422073,-0.00020330926,1.94688,-1.170407,-0.16886206,-3.127301,0.0,0.100144565,-0.0058184634,0.0053683803,0.0037393258,0.026324281,0.018018873,inf,inf,inf,inf,1,1,1,1,2,1,2,3,0,0,0
90487288,0,0.0,0.0,0.023280038,0.4327185,-0.036805663,0.0287597,0.43419725,-0.25574058,-0.009540454,0.011102334,0.0041463478,0.005244835,-0.004578579,0.002422073,-0.00020330926,-1.5758771,-0.11003901,-0.5843785,-3.1254714,0.0,0.1,-0.0041463478,0.0054353313,0.0037801447,0.026530119,0.018080803,inf,inf,inf,inf,1,1,1,1,2,1,2,3,0,0,0
90583300,0,0.0,0.0,0.025118744,0.43345457,-0.03666191,0.0287597,0.43419725,-0.25574058,0.006740424,0.0005997853,0.0006682327,0.0012994629,-0.004578579,0.002422073,-0.00020330926,0.84250975,-0.56646925,0.3047194,-3.1257112,0.0,0.1,-0.0006682327,0.005344789,0.003717395,0.026279025,0.017913193,inf,inf,inf,inf,1,1,1,1,2,1,2,3,0,0,0
90687271,0,0.0,0.0,0.027733942,0.43426493,-0.036967374,0.0287597,0.43419725,-0.25574058,0.012427397,0.013388824,-0.0014533187,-0.0013893145,-0.004578579,0.002422073,-0.00020330926,0.42723197,-0.06474233,-0.47017914,-3.1261857,0.0,0.1,0.0014533187,0.005457427,0.0037912496,0.026623424,0.018126104,inf,inf,inf,inf,1,1,1,1,2,1,2,3,0,0,0
90791293,0,0.0,0.0,0.030537777,0.4350362,-0.037609126,0.0287597,0.43419725,-0.25574058,0.014255459,0.0111709535,-0.0018522905,-0.0022083563,-0.004578579,0.002422073,-0.00020330926,0.08664813,0.94980323,0.17976668,-3.1259239,0.0,0.10015227,0.0018522905,0.0051491545,0.0035839118,0.025770122,0.017586691,inf,inf,inf,inf,1,1,1,1,2,1,2,3,0,0,0
90894498,0,0.0,0.0,0.032869104,0.43596557,-0.03830235,0.0287597,0.43419725,-0.25574058,0.013340469,0.009999755,-0.0021622647,-0.002718336,-0.004578579,0.002422073,-0.00020330926,-0.8887606,-0.42862314,0.48975137,-3.1258426,0.0,0.100845486,0.0021622647,0.0052137566,0.0036275948,0.025918381,0.017682187,inf,inf,inf,inf,1,1,1,1,2,1,2,3,0,0,0
90990470,0,0.0,0.0,0.034402687,0.43653923,-0.03878472,0.0287597,0.43419725,-0.25574058,0.013397546,0.013399824,-0.0022464278,-0.0027934897,-0.004578579,0.002422073,-0.00020330926,-0.3218003,-0.25780627,0.14674495,-3.12547,0.0,0.10132786,0.0022464278,0.0051442464,0.0035807965,0.025747739,0.017575828,inf,inf,inf,inf,1,1,1,1,2,1,2,3,0,0,0
91094511,0,0.0,0.0,0.03534041,0.43697056,-0.039100386,0.0287597,0.43419725,-0.25574058,0.010826133,0.013877249,-0.002642422,-0.0030201115,-0.004578579,0.002422073,-0.00020330926,-0.43769002,0.65368176,-0.3859943,-3.1256862,0.0,0.100396045,0.002642422,0.0051873387,0.0036101376,0.025829114,0.017629027,inf,inf,inf,inf,1,1,1,1,2,1,2,3,0,0,0
91198480,0,0.0,0.0,0.035606943,0.43721586,-0.03921648,0.0287597,0.43419725,-0.25574058,0.009852769,0.011140749,-0.00086804,-0.0010117141,-0.004578579,0.002422073,-0.00020330926,0.3566344,-0.26567325,0.33688465,-3.125838,0.0,0.10062422,0.00086804,0.0052835844,0.0036745535,0.026145305,0.017832693,inf,inf,inf,inf,1,1,1,1,2,1,2,3,0,0,0
91302478,0,0.0,0.0,0.035409924,0.43718627,-0.039275263,0.0287597,0.43419725,-0.25574058,0.005273824,0.012124387,-0.002253256,-0.002177558,-0.004578579,0.002422073,-0.00020330926,-0.6075236,0.6540294,-0.06403309,-3.125573,0.0,0.10076848,0.002253256,0.005346295,0.0037171908,0.026273144,0.01791698,inf,inf,inf,inf,1,1,1,1,2,1,2,3,0,0,0
91406470,0,0.0,0.0,0.034824472,0.4369428,-0.039347623,0.0287597,0.43419725,-0.25574058,0.006403196,0.008403727,-0.003367482,-0.0031080688,-0.004578579,0.002422073,-0.00020330926,-0.24968477,0.05576928,0.28447893,-3.1256678,0.0,0.10093849,0.003367482,0.005063261,0.003526447,0.025559895,0.01745844,inf,inf,inf,inf,1,1,1,1,2,1,2,3,0,0,0
91502476,0,0.0,0.0,0.034125496,0.43662864,-0.039387982,0.0287597,0.43419725,-0.25574058,0.00342522,0.008334376,-0.0018334022,-0.0014259774,-0.004578579,0.002422073,-0.00020330926,0.23090336,-0.58040196,0.25374132,-3.1255233,0.0,0.10101469,0.0018334022,0.0053359116,0.0037103784,0.026246823,0.01789757,inf,inf,inf,inf,1,1,1,1,2,1,2,3,0,0,0
91606474,0,0.0,0.0,0.033301193,0.43615088,-0.039358508,0.0287597,0.43419725,-0.25574058,0.0011092565,0.007855476,-0.0012633994,-0.000708723,-0.004578579,0.002422073,-0.00020330926,-0.6232712,0.40058345,0.37450626,-3.125319,0.0,0.10097772,0.0012633994,0.005075569,0.003534477,0.025621107,0.017498862,inf,inf,inf,inf,1,1,1,1,2,1,2,3,0,0,0
91705696,0,0.0,0.0,0.032510802,0.43583083,-0.03923938,0.0287597,0.43419725,-0.25574058,5.570655e-05,0.00916291,-0.0032512853,-0.002596348,-0.004578579,0.002422073,-0.00020330926,-0.21175039,0.03032158,-0.7693347,-3.1253636,0.0,0.100770414,0.0032512853,0.00539885,0.0037518677,0.026474904,0.018043792,inf,inf,inf,inf,1,1,1,1,2,1,2,3,0,0,0
91809669,0,0.0,0.0,0.03169549,0.4354889,-0.03902404,0.0287597,0.43419725,-0.25574058,0.0014845687,0.009585747,0.0012693246,0.0020163835,-0.004578579,0.002422073,-0.00020330926,0.51051474,0.5527949,0.0155913,-3.1252975,0.0,0.10059841,-0.0012693246,0.0051145,0.0035608986,0.02568989,0.017544176,inf,inf,inf,inf,1,1,1,1,2,1,2,3,0,0,0
91913684,0,0.0,0.0,0.030951409,0.43522263,-0.038704794,0.0287597,0.43419725,-0.25574058,-0.002680843,0.0057741036,0.0036749404,0.004500967,-0.004578579,0.002422073,-0.00020330926,-0.08519597,-0.5729084,0.35548627,-3.1254556,0.0,0.1004229,-0.0036749404,0.0052333674,0.0036412855,0.026092218,0.017801167,inf,inf,inf,inf,1,1,1,1,2,1,2,3,0,0,0
92009687,0,0.0,0.0,0.030394474,0.43499446,-0.038349528,0.0287597,0.43419725,-0.25574058,-0.0012309687,0.0051533603,-0.00028895092,0.00057478936,-0.004578579,0.002422073,-0.00020330926,0.08208648,-0.62422925,-0.20915565,-3.1251771,0.0,0.10019665,0.00028895092,0.0051418766,0.0035798387,0.025787149,0.017606229,inf,inf,inf,inf,1,1,1,1,2,1,2,3,0,0,0
92113670,0,0.0,0.0,0.029940931,0.43479648,-0.03795943,0.0287597,0.43419725,-0.25574058,-0.00032888097,0.0077921213,0.0011087758,0.0019543439,-0.004578579,0.002422073,-0.00020330926,0.18353814,-0.05154016,-0.54148394,-3.124932,0.0,0.1,-0.0011087758,0.005197635,0.003617547,0.025900938,0.017677499,inf,inf,inf,inf,1,1,1,1,2,1,2,3,0,0,0
92217676,0,0.0,0.0,0.029586568,0.43454236,-0.037696246,0.0287597,0.43419725,-0.25574058,-0.0020718134,0.005883377,0.003153795,0.0038944583,-0.004578579,0.002422073,-0.00020330926,-0.16441414,0.091382734,0.16329582,-3.1251838,0.0,0.1,-0.003153795,0.0052580563,0.003658121,0.026064899,0.017783673,inf,inf,inf,inf,1,1,1,1,2,1,2,3,0,0,0
92313670,0,0.0,0.0,0.029375197,0.4342546,-0.037562996,0.0287597,0.43419725,-0.25574058,-0.0008403453,0.0025709155,-0.0014748785,-0.00089361647,-0.004578579,0.002422073,-0.00020330926,0.050557304,-0.8795091,-0.049035124,-3.1251082,0.0,0.1,0.0014748785,0.0052187294,0.0036309133,0.026020914,0.017754689,inf,inf,inf,inf,1,1,1,1,2,1,2,3,0,0,0
92416870,0,0.0,0.0,0.029178439,0.43389755,-0.037567105,0.0287597,0.43419725,-0.25574058,-0.004351044,0.0054088663,0.0002669871,0.0006544237,-0.004578579,0.002422073,-0.00020330926,-0.4195987,0.29923204,-0.51568264,-3.1251757,0.0,0.1,-0.0002669871,0.005304147,0.003688474,0.026215533,0.017877007,inf,inf,inf,inf,1,1,1,1,2,1,2,3,0,0,0
92520889,0,0.0,0.0,0.02902205,0.43361393,-0.037603226,0.0287597,0.43419725,-0.25574058,-0.0032549559,0.003234749,0.0011660829,0.001390961,-0.004578579,0.002422073,-0.00020330926,-0.29126722,-0.66200405,-0.46472377,-3.125161,0.0,0.1,-0.0011660829,0.0053555313,0.003723568,0.0262911,0.017923525,inf,inf,inf,inf,1,1,1,1,2,1,2,3,0,0,0
92624869,0,0.0,0.0,0.028894702,0.43336776,-0.037740808,0.0287597,0.43419725,-0.25574058,-0.0046896846,0.0033303925,0.00018742478,0.00029885198,-0.004578579,0.002422073,-0.00020330926,-0.32123187,0.0044932496,0.1172277,-3.1251712,0.0,0.1,-0.00018742478,0.00541626,0.0037642135,0.02644222,0.018022805,inf,inf,inf,inf,1,1,1,1,2,1,2,3,0,0,0
92720870,0,0.0,0.0,0.0287602,0.4331472,-0.037908398,0.0287597,0.43419725,-0.25574058,-0.0032254718,0.0048138085,-0.0032424182,-0.0031954902,-0.004578579,0.002422073,-0.00020330926,0.046433456,0.2215356,-1.0120018,-3.125011,0.0,0.1,0.0032424182,0.005315506,0.0036967872,0.026165517,0.017844483,inf,inf,inf,inf,1,1,1,1,2,1,2,3,0,0,0
92824918,0,0.0,0.0,0.028656257,0.43283528,-0.038095858,0.0287597,0.43419725,-0.25574058,-0.0031298448,0.006237726,0.00024597798,0.00025269424,-0.004578579,0.002422073,-0.00020330926,-0.21320784,0.9995372,0.080371104,-3.1249049,0.0,0.1,-0.00024597798,0.0054076556,0.0037581522,0.026464306,0.018033577,inf,inf,inf,inf,1,1,1,1,2,1,2,3,0,0,0
92928903,0,0.0,0.0,0.028637713,0.43264297,-0.038262937,0.0287597,0.43419725,-0.25574058,-0.0014573452,0.0023682655,0.0010220533,0.0010094278,-0.004578579,0.002422073,-0.00020330926,0.51748306,-0.14006601,0.19969586,-3.1248937,0.0,0.1,-0.0010220533,0.0051154685,0.0035615186,0.025696343,0.017544895,inf,inf,inf,inf,1,1,1,1,2,1,2,3,0,0,0
93024870,0,0.0,0.0,0.028658943,0.43253535,-0.03840905,0.0287597,0.43419725,-0.25574058,-0.0023555956,0.0015139504,-0.0041002305,-0.004106586,-0.004578579,0.002422073,-0.00020330926,-0.34719455,-0.29599404,-0.91704446,-3.1249099,0.0,0.10002189,0.0041002305,0.005400629,0.0037535701,0.026424743,0.01801222,inf,inf,inf,inf,1,1,1,1,2,1,2,3,0,0,0
93128870,0,0.0,0.0,0.02870718,0.4323779,-0.03850234,0.0287597,0.43419725,-0.25574058,-0.0017745947,0.0035070048,0.00035113137,0.00037859907,-0.004578579,0.002422073,-0.00020330926,0.3593436,0.40207252,-0.07364102,-3.1249337,0.0,0.10011931,-0.00035113137,0.0054826094,0.0038086048,0.026642248,0.01815018,inf,inf,inf,inf,1,1,1,1,2,1,2,3,0,0,0
93228109,0,0.0,0.0,0.028821768,0.43235964,-0.03853374,0.0287597,0.43419725,-0.25574058,-0.0019607737,0.0037612924,0.00039053478,0.00046998664,-0.004578579,0.002422073,-0.00020330926,-0.6322515,0.8473806,0.30532312,-3.1251297,0.0,0.10016675,-0.00039053478,0.005062433,0.0035254788,0.025594795,0.017480705,inf,inf,inf,inf,1,1,1,1,2,1,2,3,0,0,0
93332077,0,0.0,0.0,0.029043924,0.4322692,-0.0384786,0.0287597,0.43419725,-0.25574058,-0.00080969324,0.00014448313,-0.002664048,-0.0025113435,-0.004578579,0.002422073,-0.00020330926,-0.08585269,-0.6735711,-0.5203045,-3.1248589,0.0,0.10016123,0.002664048,0.0052072387,0.0036235454,0.026109248,0.01780559,inf,inf,inf,inf,1,1,1,1,2,1,2,3,0,0,0
93436114,0,0.0,0.0,0.0293091,0.43223304,-0.03832981,0.0287597,0.43419725,-0.25574058,-0.00048099703,0.0021032598,0.00054923276,0.0007984679,-0.004578579,0.002422073,-0.00020330926,0.06291717,-0.37214944,-0.108932965,-3.1246443,0.0,0.10016304,-0.00054923276,0.0052481457,0.0036511682,0.026093354,0.01780028,inf,inf,inf,inf,1,1,1,1,2,1,2,3,0,0,0
93532085,0,0.0,0.0,0.0295482,0.4322085,-0.038183805,0.0287597,0.43419725,-0.25574058,-0.0006920682,0.003088526,0.00026000055,0.0005504523,-0.004578579,0.002422073,-0.00020330926,-0.3842967,0.22355609,0.32738146,-3.1246567,0.0,0.10007784,-0.00026000055,0.0051794583,0.0036048312,0.025888735,0.017671172,inf,inf,inf,inf,1,1,1,1,2,1,2,3,0,0,0
93636070,0,0.0,0.0,0.02972504,0.43219215,-0.037912264,0.0287597,0.43419725,-0.25574058,6.98216e-05,0.0020468957,0.0009467138,0.0012443925,-0.004578579,0.002422073,-0.00020330926,0.6552363,0.04068897,-0.46671888,-3.124946,0.0,0.1,-0.0009467138,0.005235273,0.0036426259,0.02600705,0.017745811,inf,inf,inf,inf,1,1,1,1,2,1,2,3,0,0,0
93740081,0,0.0,0.0,0.029830873,0.43224257,-0.037635606,0.0287597,0.43419725,-0.25574058,-0.002617178,0.003940128,0.0023392742,0.0026082608,-0.004578579,0.002422073,-0.00020330926,-0.48445046,0.70054626,-0.18317029,-3.124894,0.0,0.1,-0.0023392742,0.0053074146,0.0036911021,0.026200077,0.017868483,inf,inf,inf,inf,1,1,1,1,2,1,2,3,0,0,0
93835276,0,0.0,0.0,0.02986298,0.43227896,-0.03744688,0.0287597,0.43419725,-0.25574058,-0.00038657975,0.0011714891,0.0016063572,0.0017892242,-0.004578579,0.002422073,-0.00020330926,0.60458326,-0.31913185,0.4998804,-3.1247835,0.0,0.1,-0.0016063572,0.0052413065,0.0036463754,0.0260449,0.017770387,inf,inf,inf,inf,1,1,1,1,2,1,2,3,0,0,0
93939269,0,0.0,0.0,0.029830273,0.43225676,-0.037264675,0.0287597,0.43419725,-0.25574058,-0.0011482323,0.0015703526,0.0014282187,0.0014741861,-0.004578579,0.002422073,-0.00020330926,-0.17681259,-0.04484618,-0.43058434,-3.1243408,0.0,0.1,-0.0014282187,0.0052932412,0.0036817114,0.026135368,0.017826358,inf,inf,inf,inf,1,1,1,1,2,1,2,3,0,0,0
94043303,0,0.0,0.0,0.029862002,0.43215877,-0.03715386,0.0287597,0.43419725,-0.25574058,-0.0013952799,0.0021252625,0.0039419336,0.0038334643,-0.004578579,0.002422073,-0.00020330926,-0.5628741,0.39522913,0.01584567,-3.124668,0.0,0.1,-0.0039419336,0.0053707366,0.0037333043,0.026371915,0.017975936,inf,inf,inf,inf,1,1,1,1,2,1,2,3,0,0,0
94147270,0,0.0,0.0,0.029984176,0.4320512,-0.037156504,0.0287597,0.43419725,-0.25574058,0.0010737246,0.00046963582,0.0020399222,0.0017867277,-0.004578579,0.002422073,-0.00020330926,0.37628204,-0.7833018,0.12475643,-3.1249118,0.0,0.1,-0.0020399222,0.00543398,0.0037761477,0.02650963,0.018066848,inf,inf,inf,inf,1,1,1,1,2,1,2,3,0,0,0
94243302,0,0.0,0.0,0.030150723,0.43198374,-0.037207782,0.0287597,0.43419725,-0.25574058,0.0018327557,0.0007456697,0.0011964025,0.0008341984,-0.004578579,0.002422073,-0.00020330926,0.8182459,-0.2450639,-0.014894214,-3.1249697,0.0,0.1,-0.0011964025,0.005364123,0.0037289222,0.026365772,0.017973067,inf,inf,inf,inf,1,1,1,1,2,1,2,3,0,0,0
94347271,0,0.0,0.0,0.030336782,0.43191984,-0.03723551,0.0287597,0.43419725,-0.25574058,-0.000752884,0.0028641585,0.0011479487,0.0006827693,-0.004578579,0.002422073,-0.00020330926,-0.7393656,0.4690645,-0.5188861,-3.1246686,0.0,0.1,-0.0011479487,0.0054331734,0.0037755193,0.026516099,0.01806946,inf,inf,inf,inf,1,1,1,1,2,1,2,3,0,0,0
94451308,0,0.0,0.0,0.03052556,0.43189904,-0.037315797,0.0287597,0.43419725,-0.25574058,0.0016594072,0.00013710528,0.002885509,0.002348694,-0.004578579,0.002422073,-0.00020330926,-0.141734,-0.7159701,0.019064361,-3.1243458,0.0,0.1,-0.002885509,0.005156232,0.0035889004,0.025825724,0.01762764,inf,inf,inf,inf,1,1,1,1,2,1,2,3,0,0,0
94547309,0,0.0,0.0,0.030755207,0.43183252,-0.037425477,0.0287597,0.43419725,-0.25574058,0.0022930228,0.0011861417,-8.513802e-05,-0.00067209697,-0.004578579,0.002422073,-0.00020330926,-0.07411961,0.17890425,-0.3114476,-3.124538,0.0,0.1,8.513802e-05,0.005441822,0.003781391,0.026523594,0.018075759,inf,inf,inf,inf,1,1,1,1,2,1,2,3,0,0,0
94651270,0,0.0,0.0,0.030925324,0.43175387,-0.037571236,0.0287597,0.43419725,-0.25574058,0.0014738841,0.00076166424,0.0007684513,0.000119694516,-0.004578579,0.002422073,-0.00020330926,0.41768128,0.38274395,0.29637846,-3.1244898,0.0,0.1,-0.0007684513,0.0051260274,0.003569116,0.02569483,0.017543862,inf,inf,inf,inf,1,1,1,1,2,1,2,3,0,0,0
94754470,0,0.0,0.0,0.031019107,0.43159872,-0.037781693,0.0287597,0.43419725,-0.25574058,0.00055328384,0.0008726425,0.0014383406,0.0007460071,-0.004578579,0.002422073,-0.00020330926,-0.6731877,0.8015084,0.31363955,-3.124744,0.0,0.1,-0.0014383406,0.005189774,0.0036120794,0.025872517,0.017659618,inf,inf,inf,inf,1,1,1,1,2,1,2,3,0,0,0
94858470,0,0.0,0.0,0.031144219,0.43136233,-0.03790658,0.0287597,0.43419725,-0.25574058,0.0017355422,-0.0017466588,0.00074732065,6.146363e-05,-0.004578579,0.002422073,-0.00020330926,-0.43988767,-0.014361336,0.1505091,-3.1246822,0.0,0.1,-0.00074732065,0.005242588,0.003647466,0.02600975,0.017748192,inf,inf,inf,inf,1,1,1,1,2,1,2,3,0,0,0
94954476,0,0.0,0.0,0.031298567,0.4311118,-0.037986457,0.0287597,0.43419725,-0.25574058,0.0038808375,-0.003904141,0.00056979916,-6.797529e-05,-0.004578579,0.002422073,-0.00020330926,0.5556133,-0.12318664,-0.2973717,-3.124509,0.0,0.1,-0.00056979916,0.005177614,0.0036036265,0.025855757,0.017649222,inf,inf,inf,inf,1,1,1,1,2,1,2,3,0,0,0
95058485,0,0.0,0.0,0.031458195,0.43093336,-0.03804926,0.0287597,0.43419725,-0.25574058,0.0015975836,-0.0006867137,0.00054967334,-3.5256493e-05,-0.004578579,0.002422073,-0.00020330926,-0.0031517933,0.3098964,-0.10437653,-3.1247025,0.0,0.1,-0.00054967334,0.0052789557,0.0036716599,0.02613756,0.0178305,inf,inf,inf,inf,1,1,1,1,2,1,2,3,0,0,0
95162470,0,0.0,0.0,0.0316234,0.43078667,-0.038097065,0.0287597,0.43419725,-0.25574058,0.0037497813,0.0009894412,0.00021243701,-0.00032872337,-0.004578579,0.002422073,-0.00020330926,-0.2903391,0.38738248,0.03403419,-3.12458,0.0,0.1,-0.00021243701,0.0053440207,0.0037158602,0.026267229,0.017914342,inf,inf,inf,inf,1,1,1,1,2,1,2,3,0,0,0
95258476,0,0.0,0.0,0.031710394,0.43080825,-0.03814712,0.0287597,0.43419725,-0.25574058,0.0027970653,-0.0011672413,0.0010945483,0.00059273106,-0.004578579,0.002422073,-0.00020330926,-0.32612517,0.28222165,-0.10524096,-3.1246784,0.0,0.1,-0.0010945483,0.0052747102,0.0036690154,0.026123863,0.017821642,inf,inf,inf,inf,1,1,1,1,2,1,2,3,0,0,0
95360919,0,0.0,0.0,0.031717576,0.4309018,-0.038210582,0.0287597,0.43419725,-0.25574058,0.0025600935,-0.0019453462,-0.00014388865,-0.0005901945,-0.004578579,0.002422073,-0.00020330926,0.20513782,-0.116144046,-0.0065918337,-3.1247296,0.0,0.10007638,0.00014388865,0.0053585097,0.0037254435,0.026327813,0.017953169,inf,inf,inf,inf,1,1,1,1,2,1,2,3,0,0,0
95465691,0,0.0,0.0,0.03165007,0.4310211,-0.038361825,0.0287597,0.43419725,-0.25574058,0.0007432152,-0.00018064276,-0.0004014018,-0.0007880286,-0.004578579,0.002422073,-0.00020330926,-0.5108525,0.039119974,0.46309793,-3.1246448,0.0,0.10022797,0.0004014018,0.005415807,0.0037642312,0.026457058,0.018035851,inf,inf,inf,inf,1,1,1,1,2,1,2,3,0,0,0
95561676,0,0.0,0.0,0.03155765,0.43121785,-0.038463168,0.0287597,0.43419725,-0.25574058,0.0008440181,0.0003987251,-0.0010123696,-0.0013638802,-0.004578579,0.002422073,-0.00020330926,-0.22169283,-0.08339458,-0.2711869,-3.1244097,0.0,0.10022642,0.0010123696,0.0053385245,0.0037123135,0.026333481,0.017961064,inf,inf,inf,inf,1,1,1,1,2,1,2,3,0,0,0
95665670,0,0.0,0.0,0.031462196,0.4313623,-0.03850688,0.0287597,0.43419725,-0.25574058,0.0029559266,0.0015678231,0.0011424109,0.00083353126,-0.004578579,0.002422073,-0.00020330926,0.3919309,0.1494856,0.044815022,-3.1243412,0.0,0.10019685,-0.0011424109,0.005413727,0.0037627688,0.026512781,0.018076546,inf,inf,inf,inf,1,1,1,1,2,1,2,3,0,0,0
95769669,0,0.0,0.0,0.031430822,0.43154013,-0.038488355,0.0287597,0.43419725,-0.25574058,-0.00022504668,-0.0033677618,0.0025258132,0.0023024546,-0.004578579,0.002422073,-0.00020330926,-0.53773904,-1.1395816,0.3298274,-3.1244361,0.0,0.100263,-0.0025258132,0.0051059546,0.0035558885,0.025672246,0.017538939,inf,inf,inf,inf,1,1,1,1,2,1,2,3,0,0,0
95873713,0,0.0,0.0,0.031376243,0.4316533,-0.038413487,0.0287597,0.43419725,-0.25574058,-0.00034983616,0.0013217643,-0.0005373783,-0.00065920997,-0.004578579,0.002422073,-0.00020330926,-1.0227318,0.81661665,0.07838075,-3.1242425,0.0,0.10028331,0.0005373783,0.005182555,0.003607525,0.025867395,0.017661838,inf,inf,inf,inf,1,1,1,1,2,1,2,3,0,0,0
95977670,0,0.0,0.0,0.03125,0.4316506,-0.03831977,0.0287597,0.43419725,-0.25574058,0.002712454,0.00037453175,-0.0017794772,-0.0018151399,-0.004578579,0.002422073,-0.00020330926,0.53282034,-0.23365423,0.14351012,-3.1242425,0.0,0.10026074,0.0017794772,0.0052656247,0.0036633203,0.026089499,0.017803347,inf,inf,inf,inf,1,1,1,1,2,1,2,3,0,0,0
96073670,0,0.0,0.0,0.03115063,0.43156645,-0.03827041,0.0287597,0.43419725,-0.25574058,0.00089079264,-0.0031842014,-4.1163246e-05,-3.3206485e-05,-0.004578579,0.002422073,-0.00020330926,0.09723549,-0.60687226,-0.08530918,-3.1244142,0.0,0.10020748,4.1163246e-05,0.005187831,0.0036110566,0.025865816,0.017659005,inf,inf,inf,inf,1,1,1,1,2,1,2,3,0,0,0
96176900,0,0.0,0.0,0.031117762,0.4315145,-0.03831476,0.0287597,0.43419725,-0.25574058,0.0036219964,-0.00057903,-0.000539445,-0.0005372066,-0.004578579,0.002422073,-0.00020330926,0.03749038,0.34779596,0.2988606,-3.1243715,0.0,0.10018636,0.000539445,0.0052466267,0.0036508678,0.02598935,0.017737275,inf,inf,inf,inf,1,1,1,1,2,1,2,3,0,0,0
96280870,0,0.0,0.0,0.031109864,0.4313393,-0.03845093,0.0287597,0.43419725,-0.25574058,0.0015595618,-0.0024334406,-0.0031417657,-0.0031656472,-0.004578579,0.002422073,-0.00020330926,-0.17684442,-0.5179899,-0.4058867,-3.124351,0.0,0.10024509,0.0031417657,0.0052934466,0.0036822937,0.026097557,0.017806392,inf,inf,inf,inf,1,1,1,1,2,1,2,3,0,0,0
96376879,0,0.0,0.0,0.031106314,0.4313053,-0.038578566,0.0287597,0.43419725,-0.25574058,0.0023760993,-0.0035760037,-0.0006213048,-0.00064267806,-0.004578579,0.002422073,-0.00020330926,0.27232352,-0.5191565,0.1325236,-3.1242437,0.0,0.10033874,0.0006213048,0.005233363,0.0036413553,0.026012324,0.017752664,inf,inf,inf,inf,1,1,1,1,2,1,2,3,0,0,0
96480870,0,0.0,0.0,0.03110854,0.4313384,-0.038668215,0.0287597,0.43419725,-0.25574058,0.0012160433,-0.0009644491,-0.00090336933,-0.00087401,-0.004578579,0.002422073,-0.00020330926,-0.072239846,-0.22581467,0.09690191,-3.1243942,0.0,0.10040161,0.00090336933,0.005322563,0.003701246,0.026250163,0.017903963,inf,inf,inf,inf,1,1,1,1,2,1,2,3,0,0,0
96584870,0,0.0,0.0,0.031070491,0.4314651,-0.03864864,0.0287597,0.43419725,-0.25574058,0.003728054,8.03352e-05,-0.0016197185,-0.0015116117,-0.004578579,0.002422073,-0.00020330926,0.6696188,-0.59608865,-0.03138563,-3.1242716,0.0,0.10038105,0.0016197185,0.0054012127,0.0037541767,0.026448542,0.018031375,inf,inf,inf,inf,1,1,1,1,2,1,2,3,0,0,0
96688880,0,0.0,0.0,0.031023124,0.4316371,-0.038572375,0.0287597,0.43419725,-0.25574058,0.0011982009,-0.0016020703,-0.0018605158,-0.0016813094,-0.004578579,0.002422073,-0.00020330926,0.32726362,-0.43175098,-0.7939881,-3.12422,0.0,0.10034458,0.0018605158,0.0050976523,0.0035501607,0.025626548,0.017505549,inf,inf,inf,inf,1,1,1,1,2,1,2,3,0,0,0
96792872,0,0.0,0.0,0.030908028,0.4318261,-0.03852218,0.0287597,0.43419725,-0.25574058,0.0001285807,-0.0018301711,-0.0012355058,-0.0010047473,-0.004578579,0.002422073,-0.00020330926,-0.38209575,-0.41466627,-0.059541374,-3.1242502,0.0,0.10033038,0.0012355058,0.0051774015,0.0036038302,0.025850644,0.017648313,inf,inf,inf,inf,1,1,1,1,2,1,2,3,0,0,0
96888069,0,0.0,0.0,0.030814838,0.4319106,-0.03846569,0.0287597,0.43419725,-0.25574058,0.0015688358,-0.001661797,-0.001890595,-0.0016264846,-0.004578579,0.002422073,-0.00020330926,-0.11148944,-0.64466065,0.20491138,-3.1243942,0.0,0.10033342,0.001890595,0.005115288,0.0035619233,0.025686275,0.017545268,inf,inf,inf,inf,1,1,1,1,2,1,2,3,0,0,0
96992070,0,0.0,0.0,0.030666417,0.4319831,-0.03835607,0.0287597,0.43419725,-0.25574058,0.0014971694,-0.00046310303,-0.0017367932,-0.0014299131,-0.004578579,0.002422073,-0.00020330926,0.69525343,-0.4899553,0.050292935,-3.124287,0.0,0.100270346,0.0017367932,0.005161197,0.0035929612,0.02575251,0.017585518,inf,inf,inf,inf,1,1,1,1,2,1,2,3,0,0,0
97096093,0,0.0,0.0,0.030435106,0.43205872,-0.038325682,0.0287597,0.43419725,-0.25574058,-0.0020181786,-0.002301706,-0.00032542826,-1.4196102e-05,-0.004578579,0.002422073,-0.00020330926,-0.5091097,-0.5762946,-0.32053992,-3.1245673,0.0,0.100195885,0.00032542826,0.005246484,0.0036505784,0.026019787,0.01775787,inf,inf,inf,inf,1,1,1,1,2,1,2,3,0,0,0
97200077,0,0.0,0.0,0.030155076,0.4320292,-0.038293958,0.0287597,0.43419725,-0.25574058,-0.0014791313,-0.0008830115,0.0002569452,0.00053542916,-0.004578579,0.002422073,-0.00020330926,0.44221392,-0.58489543,-0.19507813,-3.1244454,0.0,0.100099035,-0.0002569452,0.0053081457,0.0036922977,0.02616437,0.01785108,inf,inf,inf,inf,1,1,1,1,2,1,2,3,0,0,0
97296069,0,0.0,0.0,0.029922763,0.43197972,-0.03814824,0.0287597,0.43419725,-0.25574058,-0.0030113142,-0.0008464921,0.0009230604,0.0011755057,-0.004578579,0.002422073,-0.00020330926,-0.31971878,0.22800611,-0.13127714,-3.1243312,0.0,0.1,-0.0009230604,0.00525297,0.003654702,0.026067028,0.017787822,inf,inf,inf,inf,1,1,1,1,2,1,2,3,0,0,0
97400073,0,0.0,0.0,0.02969895,0.43199497,-0.037957497,0.0287597,0.43419725,-0.25574058,-0.00343304,0.00015621186,0.0022342922,0.0024829325,-0.004578579,0.002422073,-0.00020330926,-0.20879313,0.24119775,0.37782586,-3.1244352,0.0,0.1,-0.0022342922,0.0053322334,0.0037081374,0.0262597,0.01791204,inf,inf,inf,inf,1,1,1,1,2,1,2,3,0,0,0
97504085,0,0.0,0.0,0.029506985,0.43193203,-0.03773178,0.0287597,0.43419725,-0.25574058,-0.0021945871,0.00013707114,0.00074989913,0.0009946931,-0.004578579,0.002422073,-0.00020330926,-0.18363364,-0.07592899,-0.23798011,-3.124312,0.0,0.1,-0.00074989913,0.0053793164,0.0037404436,0.0263241,0.017954629,inf,inf,inf,inf,1,1,1,1,2,1,2,3,0,0,0
97599270,0,0.0,0.0,0.029334199,0.4319165,-0.037560068,0.0287597,0.43419725,-0.25574058,-0.0034553525,0.0023736868,0.0030482817,0.0032369648,-0.004578579,0.002422073,-0.00020330926,-0.186901,0.4240882,0.35085636,-3.1244745,0.0,0.1,-0.0030482817,0.0052873697,0.0036783202,0.02612737,0.017828554,inf,inf,inf,inf,1,1,1,1,2,1,2,3,0,0,0
97703332,0,0.0,0.0,0.029153856,0.43200493,-0.037438326,0.0287597,0.43419725,-0.25574058,-0.0046587735,0.00028266304,0.002221211,0.0022984217,-0.004578579,0.002422073,-0.00020330926,-0.51660156,0.01052821,0.22770306,-3.1244204,0.0,0.1,-0.002221211,0.005361673,0.003728156,0.026327856,0.017956927,inf,inf,inf,inf,1,1,1,1,2,1,2,3,0,0,0
97807276,0,0.0,0.0,0.029022042,0.43209383,-0.03747839,0.0287597,0.43419725,-0.25574058,-0.0027882438,0.002436401,-0.0024378279,-0.0024848047,-0.004578579,0.002422073,-0.00020330926,0.23206592,0.7063238,-0.24392499,-3.1243432,0.0,0.1,0.0024378279,0.0050772517,0.0035363603,0.025595745,0.017486714,inf,inf,inf,inf,1,1,1,1,2,1,2,3,0,0,0
97903308,0,0.0,0.0,0.028940242,0.432117,-0.037534103,0.0287597,0.43419725,-0.25574058,-0.003127954,0.00023036939,0.00086807745,0.00072253606,-0.004578579,0.002422073,-0.00020330926,0.16672878,0.24064586,-0.09643994,-3.1242,0.0,0.1,-0.00086807745,0.0053591784,0.0037265953,0.026300129,0.01793826,inf,inf,inf,inf,1,1,1,1,2,1,2,3,0,0,0
98007269,0,0.0,0.0,0.028913287,0.4321333,-0.037642665,0.0287597,0.43419725,-0.25574058,-0.003947255,0.00020576034,0.00095144194,0.0007217022,-0.004578579,0.002422073,-0.00020330926,-0.5951871,-0.05526964,0.14225586,-3.1242304,0.0,0.1,-0.00095144194,0.0050801365,0.003538366,0.025596295,0.017486928,inf,inf,inf,inf,1,1,1,1,2,1,2,3,0,0,0
98111276,0,0.0,0.0,0.028898086,0.43212855,-0.03775336,0.0287597,0.43419725,-0.25574058,-0.0041110152,0.00034527841,-0.002031574,-0.0023413573,-0.004578579,0.002422073,-0.00020330926,-0.59002745,0.6061209,-0.36754498,-3.1242228,0.0,0.1,0.002031574,0.005153149,0.00358775,0.025770683,0.017599456,inf,inf,inf,inf,1,1,1,1,2,1,2,3,0,0,0
98207288,0,0.0,0.0,0.02884661,0.4320625,-0.03785307,0.0287597,0.43419725,-0.25574058,-0.002839943,-0.00063814217,-0.00042463938,-0.00077645987,-0.004578579,0.002422073,-0.00020330926,0.019262046,0.82002604,-0.057524215,-3.124314,0.0,0.1,0.00042463938,0.0054532313,0.0037897276,0.026548024,0.018096535,inf,inf,inf,inf,1,1,1,1,2,1,2,3,0,0,0
98311270,0,0.0,0.0,0.028791506,0.43213198,-0.037955284,0.0287597,0.43419725,-0.25574058,-0.0059970417,-0.00086419284,0.0008686424,0.00051917334,-0.004578579,0.002422073,-0.00020330926,-1.0664786,-1.0326179,0.27143234,-3.1244762,0.0,0.1,-0.0008686424,0.0051134354,0.0035614464,0.02562795,0.017508972,inf,inf,inf,inf,1,1,1,1,2,1,2,3,0,0,0
98414469,0,0.0,0.0,0.02876137,0.43217078,-0.03804106,0.0287597,0.43419725,-0.25574058,-0.0033698927,-0.0007746105,-0.0008166777,-0.0011332904,-0.004578579,0.002422073,-0.00020330926,0.19253148,-0.30566353,0.046824493,-3.124035,0.0,0.1,0.0008166777,0.0052008214,0.003619633,0.025941234,0.017707845,inf,inf,inf,inf,1,1,1,1,2,1,2,3,0,0,0
98518471,0,0.0,0.0,0.028712785,0.43232206,-0.038145937,0.0287597,0.43419725,-0.25574058,-0.0032445828,0.0014909124,0.0008805328,0.00058723585,-0.004578579,0.002422073,-0.00020330926,-0.16931637,-0.3558179,0.26268935,-3.1242101,0.0,0.10001721,-0.0008805328,0.00528997,0.0036795866,0.026160534,0.017850667,inf,inf,inf,inf,1,1,1,1,2,1,2,3,0,0,0
98614470,0,0.0,0.0,0.028631007,0.43245012,-0.038260065,0.0287597,0.43419725,-0.25574058,-0.004364108,0.002019826,-0.0012349903,-0.001522433,-0.004578579,0.002422073,-0.00020330926,0.06626025,0.4262523,0.40235078,-3.1238866,0.0,0.10008414,0.0012349903,0.005204443,0.0036222932,0.025896229,0.017681047,inf,inf,inf,inf,1,1,1,1,2,1,2,3,0,0,0
98718470,0,0.0,0.0,0.028560873,0.43251997,-0.038379494,0.0287597,0.43419725,-0.25574058,-0.004776227,-0.0010871127,-0.0034527578,-0.0037049737,-0.004578579,0.002422073,-0.00020330926,0.45826924,-0.8644709,-0.33325055,-3.1239324,0.0,0.100192025,0.0034527578,0.00529348,0.0036820432,0.026163388,0.017851677,inf,inf,inf,inf,1,1,1,1,2,1,2,3,0,0,0
98822483,0,0.0,0.0,0.028528776,0.43259302,-0.03855737,0.0287597,0.43419725,-0.25574058,-0.0049771676,0.0029110136,-0.0020198291,-0.0022054624,-0.004578579,0.002422073,-0.00020330926,0.20516945,0.3953982,-0.003400243,-3.1244078,0.0,0.10040818,0.0020198291,0.005370502,0.0037338778,0.02636629,0.017981265,inf,inf,inf,inf,1,1,1,1,2,1,2,3,0,0,0
98918469,0,0.0,0.0,0.028524132,0.4325976,-0.03876556,0.0287597,0.43419725,-0.25574058,-0.0046987063,0.0005535798,-0.0035735683,-0.003691877,-0.004578579,0.002422073,-0.00020330926,0.11289869,-1.0227501,0.32878566,-3.1242518,0.0,0.10057038,0.0035735683,0.005282757,0.0036751174,0.026110344,0.017818326,inf,inf,inf,inf,1,1,1,1,2,1,2,3,0,0,0
99022470,0,0.0,0.0,0.028523063,0.4325866,-0.039067246,0.0287597,0.43419725,-0.25574058,-0.0029411754,-0.0011140779,-0.0039301002,-0.0039774408,-0.004578579,0.002422073,-0.00020330926,0.8182003,-0.7305443,0.00531726,-3.1239295,0.0,0.10077824,0.0039301002,0.005343479,0.0037160863,0.02626265,0.017913656,inf,inf,inf,inf,1,1,1,1,2,1,2,3,0,0,0
99125669,0,0.0,0.0,0.028589208,0.43259138,-0.03935936,0.0287597,0.43419725,-0.25574058,-0.0045785536,0.0012243942,-0.0032440065,-0.003193868,-0.004578579,0.002422073,-0.00020330926,-0.31274462,-0.084977455,-0.010701852,-3.1241674,0.0,0.10094768,0.0032440065,0.005440269,0.003780602,0.026558064,0.018101938,inf,inf,inf,inf,1,1,1,1,2,1,2,3,0,0,0
99229676,0,0.0,0.0,0.028768392,0.43246034,-0.039537374,0.0287597,0.43419725,-0.25574058,-0.0028033648,0.0028494422,-0.006048405,-0.005841966,-0.004578579,0.002422073,-0.00020330926,0.42100978,0.7300574,-0.65762836,-3.1241114,0.0,0.10114779,0.006048405,0.0051147933,0.0035619382,0.025677904,0.017538777,inf,inf,inf,inf,1,1,1,1,2,1,2,3,0,0,0
99333670,0,0.0,0.0,0.029022587,0.43239486,-0.03954888,0.0287597,0.43419725,-0.25574058,-0.003122234,0.00018660132,-0.0030154176,-0.0026063316,-0.004578579,0.002422073,-0.00020330926,0.018274715,-0.27085555,-0.3825947,-3.1240795,0.0,0.10117248,0.0030154176,0.0051750396,0.0036024712,0.02582501,0.017633943,inf,inf,inf,inf,1,1,1,1,2,1,2,3,0,0,0
99429670,0,0.0,0.0,0.029299868,0.43231076,-0.039494723,0.0287597,0.43419725,-0.25574058,-0.004367127,-0.002653281,-0.0025736075,-0.001989251,-0.004578579,0.002422073,-0.00020330926,-0.8605712,-0.5012083,0.15320729,-3.1241639,0.0,0.10113695,0.0025736075,0.005113585,0.0035609852,0.02567578,0.017540023,inf,inf,inf,inf,1,1,1,1,2,1,2,3,0,0,0
99533679,0,0.0,0.0,0.029574277,0.43220985,-0.039355613,0.0287597,0.43419725,-0.25574058,-0.0017328889,-0.002067598,-0.002555337,-0.0018011944,-0.004578579,0.002422073,-0.00020330926,-0.072521545,-0.6957795,0.25106224,-3.123786,0.0,0.101103276,0.002555337,0.005179851,0.003606055,0.025814028,0.017628847,inf,inf,inf,inf,1,1,1,1,2,1,2,3,0,0,0
99637669,0,0.0,0.0,0.029781945,0.4322104,-0.039140414,0.0287597,0.43419725,-0.25574058,0.00029338745,-0.0021054468,-0.0037201303,-0.0028287338,-0.004578579,0.002422073,-0.00020330926,0.52303797,-0.79021835,-1.0996546,-3.1241815,0.0,0.10094678,0.0037201303,0.005241884,0.0036479905,0.025973601,0.017730298,inf,inf,inf,inf,1,1,1,1,2,1,2,3,0,0,0
99733669,0,0.0,0.0,0.0299495,0.43216163,-0.038928267,0.0287597,0.43419725,-0.25574058,-0.0006906667,0.0010029132,-0.0009758504,1.1569238e-05,-0.004578579,0.002422073,-0.00020330926,-0.28716776,0.60254484,0.02835662,-3.1242092,0.0,0.100823775,0.0009758504,0.0051928572,0.0036142475,0.025922004,0.017698579,inf,inf,inf,inf,1,1,1,1,2,1,2,3,0,0,0
99836118,0,0.0,0.0,0.030096948,0.43223947,-0.03867826,0.0287597,0.43419725,-0.25574058,-0.001043465,0.0015652559,-0.002078013,-0.001042441,-0.004578579,0.002422073,-0.00020330926,-0.5759794,-0.102051795,-0.13735607,-3.124021,0.0,0.10059455,0.002078013,0.005251867,0.0036545394,0.026010742,0.017755935,inf,inf,inf,inf,1,1,1,1,2,1,2,3,0,0,0
99940870,0,0.0,0.0,0.030184062,0.43233785,-0.038474023,0.0287597,0.43419725,-0.25574058,-0.0012649947,-0.0008961899,0.0007373309,0.0017537323,-0.004578579,0.002422073,-0.00020330926,0.18236613,-0.38733006,0.3065455,-3.1240788,0.0,0.10034351,-0.0007373309,0.005328187,0.003705736,0.02623454,0.017897421,inf,inf,inf,inf,1,1,1,1,2,1,2,3,0,0,0
100044879,0,0.0,0.0,0.030241584,0.43241176,-0.038353905,0.0287597,0.43419725,-0.25574058,-0.0021496546,0.0017280612,0.0008205924,0.0017732113,-0.004578579,0.002422073,-0.00020330926,-0.586966,-0.16276982,0.45278776,-3.1239412,0.0,0.100213334,-0.0008205924,0.0053675864,0.0037326955,0.026293937,0.017937316,inf,inf,inf,inf,1,1,1,1,2,1,2,3,0,0,0
100140876,0,0.0,0.0,0.03026074,0.43246588,-0.0382563,0.0287597,0.43419725,-0.25574058,-0.00036159292,0.0018459815,0.00044717154,0.001341078,-0.004578579,0.002422073,-0.00020330926,0.42181107,0.37781522,-0.5743712,-3.1240158,0.0,0.100134075,-0.00044717154,0.0053108213,0.0036939795,0.026208902,0.01788084,inf,inf,inf,inf,1,1,1,1,2,1,2,3,0,0,0
100244870,0,0.0,0.0,0.03025031,0.43249905,-0.038201258,0.0287597,0.43419725,-0.25574058,-0.0024035824,0.0011561218,0.0015502502,0.002391398,-0.004578579,0.002422073,-0.00020330926,-0.012388028,0.33009228,0.21152014,-3.1242857,0.0,0.10012236,-0.0015502502,0.005408711,0.0037595965,0.026475674,0.018052423,inf,inf,inf,inf,1,1,1,1,2,1,2,3,0,0,0
100348878,0,0.0,0.0,0.030202257,0.43245178,-0.03811143,0.0287597,0.43419725,-0.25574058,-0.0033153058,0.0027977934,0.0017467882,0.0025337902,-0.004578579,0.002422073,-0.00020330926,-0.44805232,1.1821679,0.63588375,-3.1243281,0.0,0.100051045,-0.0017467882,0.0051166555,0.0035631345,0.025692057,0.017550267,inf,inf,inf,inf,1,1,1,1,2,1,2,3,0,0,0
100444877,0,0.0,0.0,0.030183509,0.432414,-0.03813718,0.0287597,0.43419725,-0.25574058,-6.869779e-05,-0.0025210076,-0.0043341075,-0.0036082037,-0.004578579,0.002422073,-0.00020330926,0.5183732,-1.9664232,-0.72548276,-3.1242623,0.0,0.10005461,0.0043341075,0.0054014293,0.0037550912,0.026419314,0.01801579,inf,inf,inf,inf,1,1,1,1,2,1,2,3,0,0,0
100552081,0,0.0,0.0,0.030344857,0.43239358,-0.03831938,0.0287597,0.43419725,-0.25574058,0.00089672144,-0.0037667437,0.00014402333,0.0007583586,-0.004578579,0.002422073,-0.00020330926,-0.88357776,-1.2960443,-0.8360542,-3.124328,0.0,0.1002368,-0.00014402333,0.0051118033,0.003559925,0.025681052,0.01754111,inf,inf,inf,inf,1,1,1,1,2,1,2,3,0,0,0
100648070,0,0.0,0.0,0.030181944,0.43235338,-0.03841858,0.0287597,0.43419725,-0.25574058,0.0042058756,0.0042654676,0.0024910402,0.0029759489,-0.004578579,0.002422073,-0.00020330926,2.644446,0.410025,1.452731,-3.124279,0.0,0.10033601,-0.0024910402,0.0054312665,0.003774699,0.026527926,0.018083474,inf,inf,inf,inf,1,1,1,1,2,1,2,3,0,0,0
100752098,0,0.0,0.0,0.0299103,0.4323424,-0.038369395,0.0287597,0.43419725,-0.25574058,-0.011154985,-0.0013796961,0.0014652594,0.0018575849,-0.004578579,0.002422073,-0.00020330926,-1.8564022,-0.6099678,-1.1049149,-3.1243002,0.0,0.10028683,-0.0014652594,0.005187423,0.00361088,0.02604044,0.017764367,inf,inf,inf,inf,1,1,1,1,2,1,2,3,0,0,0
100856076,0,0.0,0.0,0.029552188,0.4322949,-0.038274515,0.0287597,0.43419725,-0.25574058,-0.013980735,0.0056285486,0.0029355716,0.003280932,-0.004578579,0.002422073,-0.00020330926,-2.1016688,1.636494,-1.6021805,-3.1243024,0.0,0.10019194,-0.0029355716,0.00523329,0.0036417516,0.026068557,0.017790915,inf,inf,inf,inf,1,1,1,1,2,1,2,3,0,0,0
100952070,0,0.0,0.0,0.029131386,0.43220618,-0.03815429,0.0287597,0.43419725,-0.25574058,-0.003591068,-0.0015899286,0.007002297,0.007301134,-0.004578579,0.002422073,-0.00020330926,1.2787616,-1.4950265,0.7450545,-3.124187,0.0,0.10007171,-0.007002297,0.005159151,0.0035917691,0.02584618,0.017648743,inf,inf,inf,inf,1,1,1,1,2,1,2,3,0,0,0
101056078,0,0.0,0.0,0.028621905,0.43214214,-0.03788665,0.0287597,0.43419725,-0.25574058,-0.009319198,-0.007892503,-0.0011265988,-0.00089076103,-0.004578579,0.002422073,-0.00020330926,-1.6643721,-1.4850267,-2.1536226,-3.1244938,0.0,0.1,0.0011265988,0.0052264053,0.003637158,0.02600796,0.01774919,inf,inf,inf,inf,1,1,1,1,2,1,2,3,0,0,0
101160081,0,0.0,0.0,0.028173046,0.4319651,-0.037612256,0.0287597,0.43419725,-0.25574058,-0.0076133083,-0.00062004605,-0.00049418764,-0.0003534307,-0.004578579,0.002422073,-0.00020330926,-0.2513392,0.06857188,0.8357202,-3.1245651,0.0,0.1,0.00049418764,0.0053046034,0.0036897308,0.026205076,0.017875696,inf,inf,inf,inf,1,1,1,1,2,1,2,3,0,0,0
101264083,0,0.0,0.0,0.027924942,0.43183157,-0.037441283,0.0287597,0.43419725,-0.25574058,-0.0050686183,-0.0057033384,0.0069265105,0.0069406084,-0.004578579,0.002422073,-0.00020330926,-0.49466527,-0.89117426,1.3524814,-3.1246774,0.0,0.1,-0.0069265105,0.0053850245,0.0037439044,0.026377102,0.017989872,inf,inf,inf,inf,1,1,1,1,2,1,2,3,0,0,0
101367277,0,0.0,0.0,0.027864056,0.43151215,-0.03733088,0.0287597,0.43419725,-0.25574058,-0.013008603,-0.0015250248,0.0045518386,0.0044065844,-0.004578579,0.002422073,-0.00020330926,-1.8261335,-0.9052034,0.31134537,-3.1243997,0.0,0.1,-0.0045518386,0.005475663,0.0038045868,0.02662762,0.018146988,inf,inf,inf,inf,1,1,1,1,2,1,2,3,0,0,0
101463325,0,0.0,0.0,0.027906694,0.43125188,-0.037331026,0.0287597,0.43419725,-0.25574058,-0.010839502,-0.009248309,0.0058606835,0.005576749,-0.004578579,0.002422073,-0.00020330926,-1.8880215,-0.8770644,-0.6937237,-3.1247656,0.0,0.1,-0.0058606835,0.005346127,0.003718151,0.02624456,0.017902792,inf,inf,inf,inf,1,1,1,1,2,1,2,3,0,0,0
101567280,0,0.0,0.0,0.027921064,0.4311305,-0.037448395,0.0287597,0.43419725,-0.25574058,-0.0051025813,-0.005349715,0.00096197054,0.0005214609,-0.004578579,0.002422073,-0.00020330926,2.1509824,-0.8845628,-1.6723471,-3.1245244,0.0,0.1,-0.00096197054,0.005427406,0.0037721922,0.026509257,0.018068908,inf,inf,inf,inf,1,1,1,1,2,1,2,3,0,0,0
101671276,0,0.0,0.0,0.028056754,0.43090472,-0.0377688,0.0287597,0.43419725,-0.25574058,-0.0020753895,-0.00066177774,-0.0019659412,-0.002570462,-0.004578579,0.002422073,-0.00020330926,0.030751277,0.9946325,0.0499782,-3.1244752,0.0,0.1,0.0019659412,0.005136588,0.003576325,0.025755366,0.017585795,inf,inf,inf,inf,1,1,1,1,2,1,2,3,0,0,0
101767298,0,0.0,0.0,0.028140975,0.43086463,-0.038072076,0.0287597,0.43419725,-0.25574058,-0.0045112655,-0.003850431,-0.0047060726,-0.0054191435,-0.004578579,0.002422073,-0.00020330926,-1.048764,1.5625036,-0.8889166,-3.1247706,0.0,0.1,0.0047060726,0.005429346,0.0037733798,0.02650811,0.018066198,inf,inf,inf,inf,1,1,1,1,2,1,2,3,0,0,0
101871270,0,0.0,0.0,0.028295688,0.43084976,-0.03840932,0.0287597,0.43419725,-0.25574058,-0.0021834816,-0.0043845307,-0.0026181678,-0.0033752886,-0.004578579,0.002422073,-0.00020330926,0.99081874,-1.5230621,1.0405928,-3.1242762,0.0,0.10032675,0.0026181678,0.005124308,0.0035680719,0.02570727,0.01755821,inf,inf,inf,inf,1,1,1,1,2,1,2,3,0,0,0
101975276,0,0.0,0.0,0.028467922,0.43092188,-0.038692094,0.0287597,0.43419725,-0.25574058,-0.002129209,-0.00047459788,0.0002785482,-0.0004449798,-0.004578579,0.002422073,-0.00020330926,1.4697659,-0.673294,0.07419293,-3.1243722,0.0,0.100609526,-0.0002785482,0.005189147,0.0036118291,0.02586122,0.01766034,inf,inf,inf,inf,1,1,1,1,2,1,2,3,0,0,0
102079270,0,0.0,0.0,0.028598076,0.43113723,-0.03888775,0.0287597,0.43419725,-0.25574058,-0.0048642284,7.420148e-05,-8.7697554e-05,-0.000720711,-0.004578579,0.002422073,-0.00020330926,-0.27944016,0.6160292,-1.0326897,-3.1245797,0.0,0.10080518,8.7697554e-05,0.00526749,0.0036644316,0.026094574,0.017802432,inf,inf,inf,inf,1,1,1,1,2,1,2,3,0,0,0
102174470,0,0.0,0.0,0.028693302,0.4312045,-0.039032392,0.0287597,0.43419725,-0.25574058,-0.0039893896,-0.0062103923,0.008594678,0.008072033,-0.004578579,0.002422073,-0.00020330926,0.8863782,-1.8304574,1.5698918,-3.124491,0.0,0.100949824,-0.008594678,0.0051887296,0.0036114464,0.025884854,0.017667549,inf,inf,inf,inf,1,1,1,1,2,1,2,3,0,0,0
102278501,0,0.0,0.0,0.02878171,0.43125236,-0.03898345,0.0287597,0.43419725,-0.25574058,-0.0035186128,-0.005288477,-0.003088225,-0.0034851907,-0.004578579,0.002422073,-0.00020330926,-0.6120181,-1.3359576,-1.7128711,-3.1242638,0.0,0.10090087,0.003088225,0.0052532586,0.0036549747,0.026039546,0.017769584,inf,inf,inf,inf,1,1,1,1,2,1,2,3,0,0,0
102382470,0,0.0,0.0,0.02903077,0.43123084,-0.039042518,0.0287597,0.43419725,-0.25574058,-0.00013656386,-0.001367551,-0.006485628,-0.0067697736,-0.004578579,0.002422073,-0.00020330926,0.010223525,0.6340884,0.37406844,-3.1246188,0.0,0.10095994,0.006485628,0.0053438446,0.0037159866,0.02628301,0.017927019,inf,inf,inf,inf,1,1,1,1,2,1,2,3,0,0,0
102478470,0,0.0,0.0,0.02938109,0.4311867,-0.039193787,0.0287597,0.43419725,-0.25574058,-0.0027693477,-0.0006263886,-0.0101417275,-0.010342244,-0.004578579,0.002422073,-0.00020330926,-2.2114801,0.27116463,-2.2288988,-3.124722,0.0,0.10111122,0.0101417275,0.0052704313,0.0036666426,0.026095748,0.017804712,inf,inf,inf,inf,1,1,1,1,2,1,2,3,0,0,0
102582476,0,0.0,0.0,0.029646473,0.43113998,-0.039375857,0.0287597,0.43419725,-0.25574058,-0.006743059,-0.003650444,-0.005429196,-0.005578529,-0.004578579,0.002422073,-0.00020330926,-0.41127488,0.44027156,-1.0194767,-3.1243942,0.0,0.10129328,0.005429196,0.005338462,0.0037125135,0.026254585,0.017910436,inf,inf,inf,inf,1,1,1,1,2,1,2,3,0,0,0
102686479,0,0.0,0.0,0.030007172,0.43113127,-0.039796963,0.0287597,0.43419725,-0.25574058,-0.003848496,-0.0024523188,0.0062122173,0.006099264,-0.004578579,0.002422073,-0.00020330926,0.14517623,-1.8747827,3.2320716,-3.1244183,0.0,0.10171439,-0.0062122173,0.005419893,0.0037670834,0.02648152,0.018053874,inf,inf,inf,inf,1,1,1,1,2,1,2,3,0,0,0
102782470,0,0.0,0.0,0.03029468,0.43111807,-0.040118624,0.0287597,0.43419725,-0.25574058,-0.011783163,0.0040662554,-0.0020845132,-0.002159519,-0.004578579,0.002422073,-0.00020330926,-2.7295563,1.9331237,0.6789205,-3.1245282,0.0,0.10203605,0.0020845132,0.005337316,0.003711595,0.026264824,0.017911354,inf,inf,inf,inf,1,1,1,1,2,1,2,3,0,0,0
102889670,0,0.0,0.0,0.030300174,0.43124324,-0.04045645,0.0287597,0.43419725,-0.25574058,-0.00023715364,-0.0019840728,-0.0065252287,-0.006519046,-0.004578579,0.002422073,-0.00020330926,0.41091022,-1.7173673,2.0932367,-3.124421,0.0,0.10237388,0.0065252287,0.0054388037,0.0037793664,0.02656163,0.018102365,inf,inf,inf,inf,1,1,1,1,2,1,2,3,0,0,0
102985699,0,0.0,0.0,0.030035228,0.43144894,-0.040565055,0.0287597,0.43419725,-0.25574058,-0.001325182,0.0052447063,-0.003653169,-0.0034936166,-0.004578579,0.002422073,-0.00020330926,0.71392345,0.9298319,-1.1459534,-3.1240857,0.0,0.10248248,0.003653169,0.005033003,0.0035058483,0.025525745,0.017441094,inf,inf,inf,inf,1,1,1,1,2,1,2,3,0,0,0
103089683,0,0.0,0.0,0.029588377,0.4315877,-0.04060226,0.0287597,0.43419725,-0.25574058,-0.005108414,-0.005976372,-0.009380993,-0.009017313,-0.004578579,0.002422073,-0.00020330926,0.54939246,-0.024204561,-1.2706084,-3.12438,0.0,0.10251969,0.009380993,0.0051555694,0.0035888988,0.025942784,0.017711231,inf,inf,inf,inf,1,1,1,1,2,1,2,3,0,0,0
103289705,0,0.0,0.0,0.028937615,0.4317904,-0.040796384,0.0287597,0.43419725,-0.25574058,-0.010451165,-0.0060946885,-0.0021877065,-0.0014789909,-0.004578579,0.002422073,-0.00020330926,-2.7230992,-1.5406425,0.7840639,-3.1243038,0.0,0.10271381,0.0021877065,0.0051098173,0.0035585114,0.025680069,0.017546572,inf,inf,inf,inf,1,1,1,1,2,1,2,3,0,0,0
103696869,0,0.0,0.0,0.028632646,0.43231305,-0.04118557,0.0287597,0.43419725,-0.25574058,-0.008516265,0.0028764582,0.00884634,0.010067874,-0.004578579,0.002422073,-0.00020330926,2.41284,0.38089788,1.5298636,-3.1243877,0.0,0.103103,-0.00884634,0.0052352073,0.0036429372,0.025969252,0.01771719,inf,inf,inf,inf,1,1,1,1,2,1,2,3,0,0,0
104304878,0,0.0,0.0,0.029339062,0.4315651,-0.040168017,0.0287597,0.43419725,-0.25574058,-0.005294996,-0.006374575,0.0038348595,0.005340373,-0.004578579,0.002422073,-0.00020330926,-0.74910134,-1.6702403,-1.6564488,-3.1254609,0.0,0.10208544,-0.0038348595,0.005396982,0.0037512162,0.026439985,0.018027008,inf,inf,inf,inf,1,1,1,1,2,1,2,3,0,0,0
104408072,0,0.0,0.0,0.02920789,0.4318479,-0.039781366,0.0287597,0.43419725,-0.25574058,-0.0060054483,0.0028733923,3.8275415e-05,0.0013625434,-0.004578579,0.002422073,-0.00020330926,-1.0611659,1.3372188,0.39762485,-3.1254115,0.0,0.10169879,-3.8275415e-05,0.005083604,0.0035405376,0.025597604,0.017481554,inf,inf,inf,inf,1,1,1,1,2,1,2,3,0,0,0
104512070,0,0.0,0.0,0.028966289,0.4320925,-0.0393679,0.0287597,0.43419725,-0.25574058,0.0033803722,0.0061406526,0.0013794851,0.0025625145,-0.004578579,0.002422073,-0.00020330926,0.85945374,3.247874,-0.19601321,-3.1246703,0.0,0.10128532,-0.0013794851,0.0051457803,0.0035822173,0.02573352,0.01757737,inf,inf,inf,inf,1,1,1,1,2,1,2,3,0,0,0
104616075,0,0.0,0.0,0.02872744,0.4324132,-0.0389654,0.0287597,0.43419725,-0.25574058,-0.01966133,-0.003882109,0.018519899,0.019540966,-0.004578579,0.002422073,-0.00020330926,-4.939679,-1.5173324,3.2479362,-3.1248405,0.0,0.10088283,-0.018519899,0.0052064005,0.003623842,0.025871707,0.017668026,inf,inf,inf,inf,1,1,1,1,2,1,2,3,0,0,0
104712078,0,0.0,0.0,0.02874682,0.4325476,-0.03880247,0.0287597,0.43419725,-0.25574058,-0.005456519,-0.009155117,0.0045000454,0.0053220866,-0.004578579,0.002422073,-0.00020330926,-2.1594782,-4.0772057,0.44600254,-3.1257775,0.0,0.1007199,-0.0045000454,0.005140072,0.0035790072,0.02573046,0.01757302,inf,inf,inf,inf,1,1,1,1,2,1,2,3,0,0,0
104816080,0,0.0,0.0,0.028565608,0.4326346,-0.038616125,0.0287597,0.43419725,-0.25574058,-0.0016761093,-0.0021347464,0.0006083527,0.0011704459,-0.004578579,0.002422073,-0.00020330926,0.43682808,0.33385104,2.2395444,-3.1251016,0.0,0.10053355,-0.0006083527,0.0052086515,0.0036254402,0.025909385,0.017684972,inf,inf,inf,inf,1,1,1,1,2,1,2,3,0,0,0
104920076,0,0.0,0.0,0.029217228,0.43279314,-0.038949884,0.0287597,0.43419725,-0.25574058,-0.0011057674,1.5984779e-05,-9.54621e-05,0.00013594047,-0.004578579,0.002422073,-0.00020330926,-0.2898083,0.17161751,-1.2492318,-3.1249156,0.0,0.100867316,9.54621e-05,0.005275245,0.0036701367,0.026087765,0.017807936,inf,inf,inf,inf,1,1,1,1,2,1,2,3,0,0,0
105016070,0,0.0,0.0,0.029380227,0.43262982,-0.03909009,0.0287597,0.43419725,-0.25574058,-0.0044072666,-0.014092586,-0.0003939673,-0.00052905676,-0.004578579,0.002422073,-0.00020330926,-1.2837406,-6.3869267,0.2555688,-3.125438,0.0,0.10100752,0.0003939673,0.0052027917,0.003621222,0.025919102,0.017679736,inf,inf,inf,inf,1,1,1,1,2,1,2,3,0,0,0
105120072,0,0.0,0.0,0.030103244,0.43248668,-0.03963779,0.0287597,0.43419725,-0.25574058,0.001146958,0.01494966,-0.00074029434,-0.0011843074,-0.004578579,0.002422073,-0.00020330926,-3.5703495,1.9315373,2.4381652,-3.124255,0.0,0.10155521,0.00074029434,0.005273334,0.0036685786,0.026085827,0.017808307,inf,inf,inf,inf,1,1,1,1,2,1,2,3,0,0,0
105223275,0,0.0,0.0,0.030822609,0.4327191,-0.04031973,0.0287597,0.43419725,-0.25574058,0.012757905,0.012363636,-0.001320597,-0.0020122034,-0.004578579,0.002422073,-0.00020330926,5.710372,4.1711345,0.64066887,-3.125963,0.0,0.10223716,0.001320597,0.0053239865,0.0037029467,0.026188998,0.017865684,inf,inf,inf,inf,1,1,1,1,2,1,2,3,0,0,0
105327303,0,0.0,0.0,0.031879913,0.43220806,-0.041546773,0.0287597,0.43419725,-0.25574058,0.009132619,0.0023071636,0.0022995519,0.0013845018,-0.004578579,0.002422073,-0.00020330926,3.8773887,7.9224,4.001558,-3.1244411,0.0,0.1034642,-0.0022995519,0.005067667,0.0035295973,0.025611697,0.01750087,inf,inf,inf,inf,1,1,1,1,2,1,2,3,0,0,0
105431287,0,0.0,0.0,0.03186261,0.43216276,-0.041904718,0.0287597,0.43419725,-0.25574058,-0.011863682,0.0035101154,0.009704342,0.008578017,-0.004578579,0.002422073,-0.00020330926,3.7559328,0.8622616,3.8966236,-3.1241686,0.0,0.10382214,-0.009704342,0.0051368317,0.003576632,0.025756286,0.017590722,inf,inf,inf,inf,1,1,1,1,2,1,2,3,0,0,0
105527270,0,0.0,0.0,0.031827733,0.43241405,-0.04228449,0.0287597,0.43419725,-0.25574058,0.026002403,-0.021646032,-0.0078108897,-0.008962951,-0.004578579,0.002422073,-0.00020330926,4.150807,-4.4661136,-1.4036444,-3.1261113,0.0,0.10420191,0.0078108897,0.0054449057,0.0037840588,0.02653983,0.018096047,inf,inf,inf,inf,1,1,1,1,2,1,2,3,0,0,0
105631307,0,0.0,0.0,0.031325094,0.43184623,-0.04260729,0.0287597,0.43419725,-0.25574058,-0.01603945,-0.0035140063,-0.008511425,-0.009522876,-0.004578579,0.002422073,-0.00020330926,-4.7520404,-2.6913671,-3.528443,-3.12542,0.0,0.10452472,0.008511425,0.005127926,0.0035715564,0.025682814,0.017555917,inf,inf,inf,inf,1,1,1,1,2,1,2,3,0,0,0
105735309,0,0.0,0.0,0.029610218,0.43231922,-0.041893143,0.0287597,0.43419725,-0.25574058,-0.007751358,0.0006668334,-0.0023992234,-0.0032926942,-0.004578579,0.002422073,-0.00020330926,-3.7804468,2.1670501,-1.61204,-3.125927,0.0,0.10381057,0.0023992234,0.0052061523,0.003624049,0.025906844,0.017700335,inf,inf,inf,inf,1,1,1,1,2,1,2,3,0,0,0
105838486,0,0.0,0.0,0.029185165,0.43201157,-0.042109642,0.0287597,0.43419725,-0.25574058,-0.010748284,-0.01210029,-0.0118515175,-0.012525455,-0.004578579,0.002422073,-0.00020330926,-2.4753568,-0.7837363,1.7218409,-3.1262722,0.0,0.10402707,0.0118515175,0.005275541,0.0036714822,0.026080364,0.017817141,inf,inf,inf,inf,1,1,1,1,2,1,2,3,0,0,0
105942470,0,0.0,0.0,0.02915367,0.4318167,-0.042391572,0.0287597,0.43419725,-0.25574058,-0.01999037,0.020742565,0.015531778,0.014852009,-0.004578579,0.002422073,-0.00020330926,-1.5274515,0.47062021,3.5377555,-3.1249173,0.0,0.104309,-0.015531778,0.005339931,0.0037150588,0.026257668,0.017915249,inf,inf,inf,inf,1,1,1,1,2,1,2,3,0,0,0
106038469,0,0.0,0.0,0.028531028,0.43224883,-0.04187802,0.0287597,0.43419725,-0.25574058,-0.001203052,-0.00011846602,0.01682638,0.015891585,-0.004578579,0.002422073,-0.00020330926,6.640785,-0.7104793,4.015636,-3.126703,0.0,0.10379545,-0.01682638,0.0052564545,0.003657948,0.026043888,0.017779116,inf,inf,inf,inf,1,1,1,1,2,1,2,3,0,0,0
106142488,0,0.0,0.0,0.029090537,0.4322037,-0.041994397,0.0287597,0.43419725,-0.25574058,0.0029960028,-0.004604141,0.008361111,0.00727574,-0.004578579,0.002422073,-0.00020330926,1.5825307,-6.385058,-0.48895448,-3.1260207,0.0,0.103911825,-0.008361111,0.005332365,0.0037091202,0.026227167,0.017918278,inf,inf,inf,inf,1,1,1,1,2,1,2,3,0,0,0
106246470,0,0.0,0.0,0.029009676,0.43255454,-0.04170106,0.0287597,0.43419725,-0.25574058,-0.01965589,-0.0073912498,0.016198099,0.014968282,-0.004578579,0.002422073,-0.00020330926,-0.32957947,0.6235519,2.94713,-3.1256511,0.0,0.10361849,-0.016198099,0.0054027014,0.0037568696,0.026439978,0.01804749,inf,inf,inf,inf,1,1,1,1,2,1,2,3,0,0,0
106342470,0,0.0,0.0,0.02899105,0.43222547,-0.04161842,0.0287597,0.43419725,-0.25574058,0.005909955,-0.00084282615,0.0021707232,0.0007635116,-0.004578579,0.002422073,-0.00020330926,0.28510314,1.9087673,-2.0563993,-3.1264067,0.0,0.103535846,-0.0021707232,0.0053144707,0.003697325,0.026190968,0.017886303,inf,inf,inf,inf,1,1,1,1,2,1,2,3,0,0,0
106446476,0,0.0,0.0,0.029663097,0.43238318,-0.042233236,0.0287597,0.43419725,-0.25574058,0.017869463,0.005613312,-0.0037938876,-0.0053828857,-0.004578579,0.002422073,-0.00020330926,1.8965563,2.424158,-3.1795843,-3.1255505,0.0,0.10415067,0.0037938876,0.005053363,0.0035211558,0.025554096,0.017482411,inf,inf,inf,inf,1,1,1,1,2,1,2,3,0,0,0
106550481,0,0.0,0.0,0.030458916,0.43274328,-0.043186277,0.0287597,0.43419725,-0.25574058,0.006708503,0.007730547,-0.0007543958,-0.0026722683,-0.004578579,0.002422073,-0.00020330926,-4.129681,4.94447,2.0601704,-3.1263936,0.0,0.1051037,0.0007543958,0.0055033183,0.00382442,0.026708521,0.018197415,inf,inf,inf,inf,1,1,1,1,2,1,2,3,0,0,0
106653681,0,0.0,0.0,0.031533327,0.43240955,-0.044802528,0.0287597,0.43419725,-0.25574058,-0.0021407797,-0.0116051845,-0.008940544,-0.011298086,-0.004578579,0.002422073,-0.00020330926,-5.641485,-0.5316222,-0.14335679,-3.1260903,0.0,0.106719956,0.008940544,0.0051812953,0.00360746,0.025831178,0.0176497,inf,inf,inf,inf,1,1,1,1,2,1,2,3,0,0,0
106757676,0,0.0,0.0,0.031910658,0.43209967,-0.045651358,0.0287597,0.43419725,-0.25574058,-0.011104191,-0.0105987275,0.0017415882,-0.0009847919,-0.004578579,0.002422073,-0.00020330926,-2.9665234,-2.771365,1.3519782,-3.1244242,0.0,0.107568786,-0.0017415882,0.005250814,0.0036540986,0.026046956,0.017777134,inf,inf,inf,inf,1,1,1,1,2,1,2,3,0,0,0
106861715,0,0.0,0.0,0.03178445,0.4327003,-0.046251535,0.0287597,0.43419725,-0.25574058,0.015595812,0.0019168331,-0.005356151,-0.008159688,-0.004578579,0.002422073,-0.00020330926,0.85173666,-3.2056887,-4.07211,-3.1236293,0.0,0.10816896,0.005356151,0.0053063002,0.0036918905,0.026170725,0.017873306,inf,inf,inf,inf,1,1,1,1,2,1,2,3,0,0,0
106957671,0,0.0,0.0,0.03124106,0.43340683,-0.04683397,0.0287597,0.43419725,-0.25574058,-0.0042118826,-0.0064171436,0.007951516,0.0053687897,-0.004578579,0.002422073,-0.00020330926,2.1912687,-1.0029873,-0.27572092,-3.125379,0.0,0.1087514,-0.007951516,0.0052530486,0.0036567391,0.026057756,0.01780986,inf,inf,inf,inf,1,1,1,1,2,1,2,3,0,0,0
107061669,0,0.0,0.0,0.029974632,0.43315133,-0.04692689,0.0287597,0.43419725,-0.25574058,-0.00811052,-0.006772897,-0.008836736,-0.01110779,-0.004578579,0.002422073,-0.00020330926,-3.0652173,1.3039266,-1.9890646,-3.125567,0.0,0.10884432,0.008836736,0.005316534,0.0037001357,0.026211604,0.017911384,inf,inf,inf,inf,1,1,1,1,2,1,2,3,0,0,0
107165682,0,0.0,0.0,0.029799009,0.43302208,-0.047853965,0.0287597,0.43419725,-0.25574058,0.0008243121,0.00031329494,-0.0034979798,-0.0054390933,-0.004578579,0.002422073,-0.00020330926,-0.082014754,-3.5332513,1.2858324,-3.1225073,0.0,0.10977139,0.0034979798,0.0050529577,0.0035223337,0.025544971,0.017500956,inf,inf,inf,inf,1,1,1,1,2,1,2,3,0,0,0
107269676,0,0.0,0.0,0.029351082,0.43376175,-0.048607595,0.0287597,0.43419725,-0.25574058,-0.010950303,0.000606972,0.00463577,0.002806005,-0.004578579,0.002422073,-0.00020330926,-2.1830444,-1.2674696,0.6248511,-3.1245146,0.0,0.11052503,-0.00463577,0.005145595,0.0035850515,0.025804715,0.017635977,inf,inf,inf,inf,1,1,1,1,2,1,2,3,0,0,0
107372919,0,0.0,0.0,0.027854968,0.43423346,-0.048011314,0.0287597,0.43419725,-0.25574058,-0.0017538521,0.00048082994,0.0046385364,0.0028392929,-0.004578579,0.002422073,-0.00020330926,1.5897905,-0.026710197,0.3709785,-3.1237886,0.0,0.10992874,-0.0046385364,0.0052023386,0.0036230294,0.025897129,0.017707199,inf,inf,inf,inf,1,1,1,1,2,1,2,3,0,0,0
107468870,0,0.0,0.0,0.027157757,0.43449667,-0.04813556,0.0287597,0.43419725,-0.25574058,-0.0044775773,0.016375165,-0.003525499,-0.0049884026,-0.004578579,0.002422073,-0.00020330926,-3.6615329,0.26753518,-0.70845604,-3.123108,0.0,0.11005299,0.003525499,0.0051114927,0.003562514,0.025629282,0.01755096,inf,inf,inf,inf,1,1,1,1,2,1,2,3,0,0,0
107572902,0,0.0,0.0,0.027250078,0.43513748,-0.048218735,0.0287597,0.43419725,-0.25574058,-0.008095977,0.00928403,-0.0001649456,-0.0012427073,-0.004578579,0.002422073,-0.00020330926,-1.50323,3.6730714,-0.7828537,-3.123982,0.0,0.110136166,0.0001649456,0.005157741,0.0035943943,0.025761088,0.017619971,inf,inf,inf,inf,1,1,1,1,2,1,2,3,0,0,0
107676869,0,0.0,0.0,0.026683493,0.4354069,-0.047728557,0.0287597,0.43419725,-0.25574058,-0.0066335453,0.009838849,0.0081992755,0.0072939764,-0.004578579,0.002422073,-0.00020330926,-0.91672623,2.0274763,1.5167147,-3.1234314,0.0,0.109645985,-0.0081992755,0.0052323327,0.0036439188,0.025981043,0.017735425,inf,inf,inf,inf,1,1,1,1,2,1,2,3,0,0,0
107772870,0,0.0,0.0,0.026853161,0.43541268,-0.04787888,0.0287597,0.43419725,-0.25574058,0.012020721,0.025461815,-0.003565103,-0.0043146648,-0.004578579,0.002422073,-0.00020330926,1.9789224,4.8170366,1.5303752,-3.123465,0.0,0.10979631,0.003565103,0.005189735,0.0036140315,0.02592548,0.017729918,inf,inf,inf,inf,1,1,1,1,2,1,2,3,0,0,0
107876876,0,0.0,0.0,0.028214311,0.43548197,-0.049003165,0.0287597,0.43419725,-0.25574058,0.004250662,-0.0012247908,-0.011105049,-0.011768327,-0.004578579,0.002422073,-0.00020330926,0.47301212,-3.064122,-0.10788879,-3.1245468,0.0,0.11092059,0.011105049,0.0052210893,0.0036359397,0.025933085,0.017707665,inf,inf,inf,inf,1,1,1,1,2,1,2,3,0,0,0
107980870,0,0.0,0.0,0.029460054,0.43580994,-0.049404565,0.0287597,0.43419725,-0.25574058,-0.0027533511,0.010018182,0.0025284896,0.0016773054,-0.004578579,0.002422073,-0.00020330926,-0.32110205,-1.0510734,0.43252525,-3.1236691,0.0,0.11132199,-0.0025284896,0.0052949255,0.0036840811,0.026153449,0.017831847,inf,inf,inf,inf,1,1,1,1,2,1,2,3,0,0,0
108084869,0,0.0,0.0,0.029699612,0.43648368,-0.049401928,0.0287597,0.43419725,-0.25574058,0.009605858,0.0021641047,5.702389e-05,-0.00087757886,-0.004578579,0.002422073,-0.00020330926,3.0218763,-3.4018383,1.1035872,-3.1251357,0.0,0.111319356,-5.702389e-05,0.005379351,0.003739707,0.026360305,0.0179782,inf,inf,inf,inf,1,1,1,1,2,1,2,3,0,0,0
108180110,0,0.0,0.0,0.030084334,0.4368832,-0.0499772,0.0287597,0.43419725,-0.25574058,0.0010532041,0.0034239944,-0.0042196102,-0.004899324,-0.004578579,0.002422073,-0.00020330926,-2.2071252,-1.2858949,1.5145195,-3.124362,0.0,0.11189462,0.0042196102,0.0052998257,0.0036868455,0.026151096,0.01784729,inf,inf,inf,inf,1,1,1,1,2,1,2,3,0,0,0
108284078,0,0.0,0.0,0.030439183,0.43715626,-0.05083873,0.0287597,0.43419725,-0.25574058,0.014218404,0.014267362,-0.015581222,-0.015999155,-0.004578579,0.002422073,-0.00020330926,2.4804811,1.2829596,0.30963832,-3.1218722,0.0,0.11275616,0.015581222,0.0053529786,0.0037227026,0.026274681,0.017922593,inf,inf,inf,inf,1,1,1,1,2,1,2,3,0,0,0
108388096,0,0.0,0.0,0.031769473,0.43816295,-0.0521549,0.0287597,0.43419725,-0.25574058,0.029621968,0.010792519,-0.0035926537,-0.003938758,-0.004578579,0.002422073,-0.00020330926,3.5688767,-2.600607,0.8870466,-3.1200776,0.0,0.11407232,0.0035926537,0.0054371697,0.0037788907,0.026543662,0.0180876,inf,inf,inf,inf,1,1,1,1,2,1,2,3,0,0,0
108484069,0,0.0,0.0,0.034543697,0.43967745,-0.05338755,0.0287597,0.43419725,-0.25574058,0.035660475,0.021121165,-0.017244944,-0.017685369,-0.004578579,0.002422073,-0.00020330926,-1.7716372,-0.1595929,-1.816578,-3.112292,0.0,0.11530498,0.017244944,0.0053545455,0.0037226784,0.026321633,0.017934892,inf,inf,inf,inf,1,1,1,1,2,1,2,3,0,0,0
108588072,0,0.0,0.0,0.039638653,0.44293603,-0.054978315,0.0287597,0.43419725,-0.25574058,0.06350902,0.03520739,-0.019329062,-0.01982584,-0.004578579,0.002422073,-0.00020330926,1.5040835,-1.0368444,-2.3304904,-3.1013737,0.0,0.11689574,0.019329062,0.0054473868,0.0037844423,0.026567692,0.018096788,inf,inf,inf,inf,1,1,1,1,2,1,2,3,0,0,0
108692083,0,0.0,0.0,0.0471955,0.44820067,-0.056939866,0.0287597,0.43419725,-0.25574058,0.08528339,0.0686565,-0.011679842,-0.012194673,-0.004578579,0.002422073,-0.00020330926,1.4716482,2.9540682,1.1091771,-3.0913873,0.0,0.118857294,0.011679842,0.0051453067,0.0035811255,0.025756374,0.017572396,inf,inf,inf,inf,1,1,1,1,2,1,2,3,0,0,0
108788081,0,0.0,0.0,0.05739778,0.4576225,-0.05763858,0.0287597,0.43419725,-0.25574058,0.1064069,0.09987859,-0.0022809543,-0.0027739715,-0.004578579,0.002422073,-0.00020330926,-0.48771906,-0.7719824,0.28975776,-3.0842476,0.0,0.11955601,0.0022809543,0.0054539167,0.003787813,0.026585156,0.018089473,inf,inf,inf,inf,1,1,1,1,2,1,2,3,0,0,0
108895277,0,0.0,0.0,0.07281479,0.47262555,-0.058062553,0.0287597,0.43419725,-0.25574058,0.14790706,0.13788337,-0.004679892,-0.004842762,-0.004578579,0.002422073,-0.00020330926,1.777772,3.6698077,2.0260613,-3.0715778,0.0,0.11997998,0.004679892,0.0051804716,0.0036031273,0.025908327,0.017653123,inf,inf,inf,inf,1,1,1,1,2,1,2,3,0,0,0
108991269,0,0.0,0.0,0.09013841,0.4904185,-0.058155965,0.0287597,0.43419725,-0.25574058,0.15500906,0.1637325,-0.009317241,-0.008982839,-0.004578579,0.002422073,-0.00020330926,-1.8552848,0.38417372,-0.12025371,-3.0601754,0.0,0.12007339,0.009317241,0.0054947366,0.0038136058,0.026724393,0.018157488,inf,inf,inf,inf,1,1,1,1,2,1,2,3,0,0,0
109095293,0,0.0,0.0,0.11164832,0.51378113,-0.058291793,0.0287597,0.43419725,-0.25574058,0.20980251,0.21098806,-0.0038556424,-0.003059557,-0.004578579,0.002422073,-0.00020330926,2.3831441,2.358928,2.4479759,-3.047133,0.0,0.12020922,0.0038556424,0.0052093226,0.0036215056,0.02611581,0.01774915,inf,inf,inf,inf,1,1,1,1,2,1,2,3,0,0,0
109199270,0,0.0,0.0,0.13734667,0.54184717,-0.06078439,0.0287597,0.43419725,-0.25574058,0.24967021,0.24384661,-0.047482777,-0.04655995,-0.004578579,0.002422073,-0.00020330926,0.09890758,-0.09337263,-1.8843949,-3.0347414,0.0,0.122701816,0.047482777,0.005284529,0.0036699476,0.02632574,0.017851241,inf,inf,inf,inf,1,1,1,1,2,1,2,3,0,0,0
109303287,0,0.0,0.0,0.1670695,0.5748644,-0.06685899,0.0287597,0.43419725,-0.25574058,0.2906435,0.2798735,-0.07205712,-0.07175632,-0.004578579,0.002422073,-0.00020330926,2.1734807,-2.2679296,0.85584164,-3.0274513,0.0,0.12877642,0.07205712,0.005356812,0.0037153068,0.026568381,0.017957289,inf,inf,inf,inf,1,1,1,1,2,1,2,3,0,0,0
109399284,0,0.0,0.0,0.198544,0.6073884,-0.07621211,0.0287597,0.43419725,-0.25574058,0.33957767,0.30647987,-0.10519329,-0.10631349,-0.004578579,0.002422073,-0.00020330926,3.2840133,-0.0027178684,0.53215814,-3.0280514,0.0,0.13812953,0.10519329,0.0052909898,0.0036670733,0.026479062,0.017864494,inf,inf,inf,inf,1,1,1,1,2,1,2,3,0,0,0
109503314,0,0.0,0.0,0.23726714,0.6438766,-0.090332,0.0287597,0.43419725,-0.25574058,0.36413044,0.31751382,-0.116541296,-0.1198565,-0.004578579,0.002422073,-0.00020330926,0.44624713,-2.413477,0.53077656,-3.0371702,0.0,0.15224943,0.116541296,0.0054023038,0.0037345956,0.026874065,0.017995935,inf,inf,inf,inf,1,1,1,1,2,1,2,3,0,0,0
109607281,0,0.0,0.0,0.28009823,0.679569,-0.1065453,0.0287597,0.43419725,-0.25574058,0.40502337,0.33122134,-0.1308465,-0.13625798,-0.004578579,0.002422073,-0.00020330926,1.9745058,1.5458732,-0.6494816,-3.052218,0.0,0.16846272,0.1308465,0.005479652,0.0037786574,0.02711136,0.018073892,inf,inf,inf,inf,1,1,1,1,2,1,2,3,0,0,0
109702471,0,0.0,0.0,0.32184473,0.71085805,-0.1214985,0.0287597,0.43419725,-0.25574058,0.42424983,0.2982725,-0.13224491,-0.13874468,-0.004578579,0.002422073,-0.00020330926,-1.9030515,0.21263759,-0.9961614,-3.071569,0.0,0.18341593,0.13224491,0.0053893654,0.0037164937,0.026781484,0.017918939,inf,inf,inf,inf,1,1,1,1,2,1,2,3,0,0,0
109806469,0,0.0,0.0,0.370079,0.7400525,-0.13650352,0.0287597,0.43419725,-0.25574058,0.4513615,0.2777197,-0.12060575,-0.12689137,-0.004578579,0.002422073,-0.00020330926,-0.43002054,1.3360965,-1.4930775,-3.0949283,0.0,0.19842094,0.12060575,0.005450693,0.0037585201,0.026789373,0.018047266,inf,inf,inf,inf,1,1,1,1,2,1,2,3,0,0,0
109910491,0,0.0,0.0,0.41987038,0.76507205,-0.14795554,0.0287597,0.43419725,-0.25574058,0.4666289,0.23265551,-0.10300949,-0.107615426,-0.004578579,0.002422073,-0.00020330926,-1.0968256,-0.85798156,-1.1561738,-3.118015,0.0,0.20987296,0.10300949,0.0051596398,0.003572716,0.0259218,0.017600363,inf,inf,inf,inf,1,1,1,1,2,1,2,3,0,0,0
110006470,0,0.0,0.0,0.46632648,0.78261304,-0.15367317,0.0287597,0.43419725,-0.25574058,0.48070475,0.19096293,-0.057519127,-0.059440434,-0.004578579,0.002422073,-0.00020330926,-1.1176912,-4.653397,-0.7238927,-3.1371112,0.0,0.2155906,0.057519127,0.0054482603,0.0037730404,0.02655835,0.018109493,inf,inf,inf,inf,1,1,1,1,2,1,2,3,0,0,0
110110470,0,0.0,0.0,0.51556534,0.7957118,-0.15354867,0.0287597,0.43419725,-0.25574058,0.47523147,0.14435278,-0.0068864254,-0.0048445454,-0.004578579,0.002422073,-0.00020330926,-0.77732724,-0.38714564,-0.22735189,3.1277866,0.0,0.2154661,0.0068864254,0.005112005,0.0035580613,0.025606632,0.017549587,inf,inf,inf,inf,1,1,1,1,2,1,2,3,0,0,0
110214470,0,0.0,0.0,0.56221306,0.8016105,-0.14655232,0.0287597,0.43419725,-0.25574058,0.46637774,0.10265019,0.028959623,0.03567763,-0.004578579,0.002422073,-0.00020330926,0.63676006,1.0383774,0.8137672,3.112927,0.0,0.20846975,-0.028959623,0.0051783486,0.0036086377,0.025835676,0.017696748,inf,inf,inf,inf,1,1,1,1,2,1,2,3,0,0,0
110309716,0,0.0,0.0,0.60181475,0.8021238,-0.13629915,0.0287597,0.43419725,-0.25574058,0.43224576,0.074311666,0.05143564,0.06248148,-0.004578579,0.002422073,-0.00020330926,-3.3799956,4.014755,-2.0085943,3.1020617,0.0,0.19821657,-0.05143564,0.0051131872,0.0035651966,0.025757937,0.017572165,inf,inf,inf,inf,1,1,1,1,2,1,2,3,0,0,0
110414516,0,0.0,0.0,0.63999724,0.79779536,-0.12215228,0.0287597,0.43419725,-0.25574058,0.39915183,0.023620171,0.08133789,0.09605056,-0.004578579,0.002422073,-0.00020330926,3.8915997,-3.4807987,0.87024975,3.0926325,0.0,0.18406971,-0.08133789,0.0051884144,0.0036125153,0.026044322,0.017678004,inf,inf,inf,inf,1,1,1,1,2,1,2,3,0,0,0
110517670,0,0.0,0.0,0.6721606,0.79032815,-0.1059384,0.0287597,0.43419725,-0.25574058,0.33543074,0.033512954,0.10903389,0.12566477,-0.004578579,0.002422073,-0.00020330926,-3.3846726,2.8922172,0.2899467,3.0857675,0.0,0.16785583,-0.10903389,0.0052646697,0.0036571007,0.026368659,0.017789453,inf,inf,inf,inf,1,1,1,1,2,1,2,3,0,0,0
110621670,0,0.0,0.0,0.6990955,0.78086036,-0.0879915,0.0287597,0.43419725,-0.25574058,0.2866495,-0.008812122,0.13842687,0.1554097,-0.004578579,0.002422073,-0.00020330926,0.10580603,1.452007,-1.1299156,3.080184,0.0,0.14990893,-0.13842687,0.00533983,0.00369901,0.026635498,0.017879318,inf,inf,inf,inf,1,1,1,1,2,1,2,3,0,0,0
110717719,0,0.0,0.0,0.71851826,0.77141494,-0.07048043,0.0287597,0.43419725,-0.25574058,0.23934418,-0.020424474,0.14642686,0.16280426,-0.004578579,0.002422073,-0.00020330926,2.6985366,2.492731,-0.3506679,3.0769587,0.0,0.13239786,-0.14642686,0.005275226,0.0036492979,0.02652819,0.017768178,inf,inf,inf,inf,1,1,1,1,2,1,2,3,0,0,0
110821670,0,0.0,0.0,0.7333415,0.7612396,-0.05255777,0.0287597,0.43419725,-0.25574058,0.16655593,-0.057657093,0.15165834,0.16675338,-0.004578579,0.002422073,-0.00020330926,1.113579,0.9871853,0.02608133,3.078149,0.0,0.1144752,-0.15165834,0.0053486973,0.0036924593,0.026709583,0.017857121,inf,inf,inf,inf,1,1,1,1,2,1,2,3,0,0,0
110925693,0,0.0,0.0,0.74088,0.75142545,-0.03691707,0.0287597,0.43419725,-0.25574058,0.08938439,-0.079709016,0.1178867,0.13091552,-0.004578579,0.002422073,-0.00020330926,-6.770704,-2.0634773,-1.0928822,3.083659,0.0,0.1,-0.1178867,0.005454556,0.0037573508,0.027039899,0.018038867,inf,inf,inf,inf,1,1,1,1,2,1,2,3,0,0,0
111021711,0,0.0,0.0,0.7406875,0.743254,-0.030020596,0.0287597,0.43419725,-0.25574058,0.024586692,-0.09530786,0.030511137,0.040761996,-0.004578579,0.002422073,-0.00020330926,-3.3556113,-2.2472246,-0.1356809,3.0928502,0.0,0.1,-0.030511137,0.0053464794,0.0036855452,0.026681578,0.01782807,inf,inf,inf,inf,1,1,1,1,2,1,2,3,0,0,0
111123342,0,0.0,0.0,0.7318723,0.7363758,-0.033708535,0.0287597,0.43419725,-0.25574058,-0.049619246,-0.07295357,-0.01644311,-0.011012278,-0.004578579,0.002422073,-0.00020330926,-0.24824996,2.1183639,1.3057139,3.1001143,0.0,0.1,0.01644311,0.005435165,0.0037420401,0.027003009,0.01799867,inf,inf,inf,inf,1,1,1,1,2,1,2,3,0,0,0
111228881,0,0.0,0.0,0.7151945,0.73133516,-0.044113547,0.0287597,0.43419725,-0.25574058,-0.095644824,-0.086925246,-0.06681016,-0.06839117,-0.004578579,0.002422073,-0.00020330926,-4.384219,0.2896718,-0.71840006,3.109117,0.0,0.10603097,0.06681016,0.0055142706,0.0037912868,0.027336976,0.018134976,inf,inf,inf,inf,1,1,1,1,2,1,2,3,0,0,0
111332870,0,0.0,0.0,0.6948519,0.7245571,-0.06099048,0.0287597,0.43419725,-0.25574058,-0.12657435,-0.1079731,-0.09705143,-0.10576659,-0.004578579,0.002422073,-0.00020330926,1.5295914,2.2074115,0.32040954,3.1205082,0.0,0.12290791,0.09705143,0.005202347,0.0035885181,0.026392547,0.017732106,inf,inf,inf,inf,1,1,1,1,2,1,2,3,0,0,0
111436876,0,0.0,0.0,0.67339075,0.71515775,-0.08214744,0.0287597,0.43419725,-0.25574058,-0.16434616,-0.11832917,-0.12420467,-0.13830715,-0.004578579,0.002422073,-0.00020330926,1.2720478,-0.86927325,-0.27130407,3.1311834,0.0,0.14406487,0.12420467,0.0052561457,0.0036298023,0.026333941,0.017748326,inf,inf,inf,inf,1,1,1,1,2,1,2,3,0,0,0
111532874,0,0.0,0.0,0.6550172,0.7046775,-0.10246927,0.0287597,0.43419725,-0.25574058,-0.21078758,-0.11991053,-0.13007979,-0.14702703,-0.004578579,0.002422073,-0.00020330926,-2.2542458,-0.40503696,2.34415,-3.1405556,0.0,0.1643867,0.13007979,0.0051648864,0.0035749334,0.025984934,0.017587787,inf,inf,inf,inf,1,1,1,1,2,1,2,3,0,0,0
111636870,0,0.0,0.0,0.63656783,0.6920216,-0.122516714,0.0287597,0.43419725,-0.25574058,-0.21959068,-0.116373844,-0.11958224,-0.13721228,-0.004578579,0.002422073,-0.00020330926,1.9493022,0.94485056,0.5227039,-3.1324604,0.0,0.18443415,0.11958224,0.0052479794,0.0036357034,0.02612566,0.01774803,inf,inf,inf,inf,1,1,1,1,2,1,2,3,0,0,0
111740887,0,0.0,0.0,0.61849,0.67886597,-0.13700408,0.0287597,0.43419725,-0.25574058,-0.24409665,-0.0941435,-0.09493259,-0.110649325,-0.004578579,0.002422073,-0.00020330926,-3.167156,1.2214792,-1.4822963,-3.1236944,0.0,0.1989215,0.09493259,0.005338898,0.0037030915,0.026338007,0.01794567,inf,inf,inf,inf,1,1,1,1,2,1,2,3,0,0,0
111836870,0,0.0,0.0,0.60110176,0.6679324,-0.14481434,0.0287597,0.43419725,-0.25574058,-0.25286928,-0.08352467,-0.058400463,-0.070398524,-0.004578579,0.002422073,-0.00020330926,2.150561,-0.25504395,2.2941198,-3.1175659,0.0,0.20673177,0.058400463,0.005221002,0.0036306712,0.025883622,0.017698336,inf,inf,inf,inf,1,1,1,1,2,1,2,3,0,0,0
111944070,0,0.0,0.0,0.57944256,0.65685433,-0.14709048,0.0287597,0.43419725,-0.25574058,-0.28474733,-0.07825881,-0.0367744,-0.043173127,-0.004578579,0.002422073,-0.00020330926,-1.9147496,-0.18939224,-1.7193314,-3.1123796,0.0,0.2090079,0.0367744,0.0053158887,0.0036984768,0.026216079,0.017929673,inf,inf,inf,inf,1,1,1,1,2,1,2,3,0,0,0
112040077,0,0.0,0.0,0.55716324,0.64983016,-0.14424738,0.0287597,0.43419725,-0.25574058,-0.31635755,-0.045618832,0.001356177,0.00031248876,-0.004578579,0.002422073,-0.00020330926,-2.014381,-0.19748813,3.1724088,-3.1088417,0.0,0.2061648,-0.001356177,0.005243096,0.0036510897,0.026011726,0.017773818,inf,inf,inf,inf,1,1,1,1,2,1,2,3,0,0,0
112144118,0,0.0,0.0,0.5296255,0.64680094,-0.13709122,0.0287597,0.43419725,-0.25574058,-0.33619317,-0.010629752,0.023122283,0.027175799,-0.004578579,0.002422073,-0.00020330926,1.3263831,4.198153,1.027898,-3.1086743,0.0,0.19900864,-0.023122283,0.0053621973,0.003732174,0.026431987,0.018062312,inf,inf,inf,inf,1,1,1,1,2,1,2,3,0,0,0
112248070,0,0.0,0.0,0.4984475,0.6487656,-0.12741894,0.0287597,0.43419725,-0.25574058,-0.3508349,0.02120914,0.04141378,0.04916034,-0.004578579,0.002422073,-0.00020330926,2.8912616,-0.07282364,-0.47794268,-3.1087306,0.0,0.18933636,-0.04141378,0.005084045,0.0035440025,0.02568007,0.017574778,inf,inf,inf,inf,1,1,1,1,2,1,2,3,0,0,0
112344070,0,0.0,0.0,0.46702608,0.6565264,-0.11772157,0.0287597,0.43419725,-0.25574058,-0.37281227,0.06567323,0.058487106,0.068106726,-0.004578579,0.002422073,-0.00020330926,0.38444072,1.8881214,-2.0460846,-3.1092687,0.0,0.179639,-0.058487106,0.0053649787,0.0037336645,0.02635073,0.017990408,inf,inf,inf,inf,1,1,1,1,2,1,2,3,0,0,0
112448070,0,0.0,0.0,0.43091622,0.6693157,-0.10655516,0.0287597,0.43419725,-0.25574058,-0.38232595,0.094711125,0.065741844,0.07581109,-0.004578579,0.002422073,-0.00020330926,-2.0115643,0.8954056,-1.620748,-3.1099043,0.0,0.16847259,-0.065741844,0.005070999,0.003534681,0.02559487,0.017507289,inf,inf,inf,inf,1,1,1,1,2,1,2,3,0,0,0
112552075,0,0.0,0.0,0.39356261,0.6864385,-0.096310504,0.0287597,0.43419725,-0.25574058,-0.3794326,0.13253269,0.06703097,0.076447874,-0.004578579,0.002422073,-0.00020330926,-2.287653,0.95312077,-0.309294,-3.107027,0.0,0.15822794,-0.06703097,0.0051211603,0.003568736,0.02569762,0.017568812,inf,inf,inf,inf,1,1,1,1,2,1,2,3,0,0,0
112655301,0,0.0,0.0,0.3562311,0.7069797,-0.089773506,0.0287597,0.43419725,-0.25574058,-0.3548842,0.17775165,0.0398847,0.047794856,-0.004578579,0.002422073,-0.00020330926,3.9436407,0.7741895,0.8798764,-3.101756,0.0,0.15169093,-0.0398847,0.00520421,0.0036239643,0.02594481,0.01772783,inf,inf,inf,inf,1,1,1,1,2,1,2,3,0,0,0
112751281,0,0.0,0.0,0.32266092,0.7286361,-0.089333996,0.0287597,0.43419725,-0.25574058,-0.33542538,0.19961345,-0.021336267,-0.01583019,-0.004578579,0.002422073,-0.00020330926,-3.6978009,-0.5754055,-3.327409,-3.099727,0.0,0.15125142,0.021336267,0.0051657795,0.00359635,0.02594189,0.017676348,inf,inf,inf,inf,1,1,1,1,2,1,2,3,0,0,0
112855270,0,0.0,0.0,0.290126,0.75394964,-0.09591526,0.0287597,0.43419725,-0.25574058,-0.30145645,0.21107306,-0.05651533,-0.054939866,-0.004578579,0.002422073,-0.00020330926,-2.2830331,-1.0032675,1.3063594,-3.1035826,0.0,0.15783268,0.05651533,0.005334765,0.003707275,0.026469968,0.017988937,inf,inf,inf,inf,1,1,1,1,2,1,2,3,0,0,0
112959270,0,0.0,0.0,0.2641352,0.7783303,-0.10951542,0.0287597,0.43419725,-0.25574058,-0.2447874,0.20722775,-0.09686695,-0.10034148,-0.004578579,0.002422073,-0.00020330926,2.3002734,0.80119336,-1.3188944,-3.1154368,0.0,0.17143285,0.09686695,0.00508,0.0035331422,0.025771193,0.017508443,inf,inf,inf,inf,1,1,1,1,2,1,2,3,0,0,0
113063321,0,0.0,0.0,0.2455653,0.8007776,-0.12788787,0.0287597,0.43419725,-0.25574058,-0.19141588,0.20289211,-0.13022612,-0.1388091,-0.004578579,0.002422073,-0.00020330926,1.7441384,3.3265734,0.5186652,-3.135396,0.0,0.1898053,0.13022612,0.0051840018,0.003599708,0.026075298,0.017644964,inf,inf,inf,inf,1,1,1,1,2,1,2,3,0,0,0
113167307,0,0.0,0.0,0.23467089,0.8196499,-0.14945649,0.0287597,0.43419725,-0.25574058,-0.1496378,0.1477865,-0.14180808,-0.15422517,-0.004578579,0.002422073,-0.00020330926,1.3523316,-5.088352,2.302117,3.128044,0.0,0.21137391,0.14180808,0.0052627157,0.0036504879,0.02618002,0.017753601,inf,inf,inf,inf,1,1,1,1,2,1,2,3,0,0,0
113271270,0,0.0,0.0,0.22988279,0.83269894,-0.17101198,0.0287597,0.43419725,-0.25574058,-0.1182439,0.12104765,-0.14323246,-0.15753661,-0.004578579,0.002422073,-0.00020330926,-3.8157668,0.45261714,2.1177151,3.113528,0.0,0.23292941,0.14323246,0.0053284396,0.003695164,0.026323056,0.017861828,inf,inf,inf,inf,1,1,1,1,2,1,2,3,0,0,0
113373686,0,0.0,0.0,0.229291,0.8390664,-0.188502,0.0287597,0.43419725,-0.25574058,-0.065495305,0.04841972,-0.11625656,-0.13023674,-0.004578579,0.002422073,-0.00020330926,2.886222,-4.081906,-0.36440793,3.10334,0.0,0.25041944,0.11625656,0.005361639,0.0037207988,0.026296282,0.017885717,inf,inf,inf,inf,1,1,1,1,2,1,2,3,0,0,0
113471298,0,0.0,0.0,0.23132363,0.8394867,-0.19956264,0.0287597,0.43419725,-0.25574058,-0.04582935,0.0018904135,-0.0756791,-0.087163955,-0.004578579,0.002422073,-0.00020330926,1.1483227,-3.8674417,1.5662127,3.0978167,0.0,0.26148006,0.0756791,0.00527546,0.0036656992,0.026089614,0.017784026,inf,inf,inf,inf,1,1,1,1,2,1,2,3,0,0,0
113570478,0,0.0,0.0,0.23524229,0.83348143,-0.20440194,0.0287597,0.43419725,-0.25574058,-0.0048312973,-0.054072063,-0.04979072,-0.05710361,-0.004578579,0.002422073,-0.00020330926,1.5888016,2.2903721,-2.8772287,3.0936913,0.0,0.26631936,0.04979072,0.00524491,0.0036462278,0.026127039,0.017792014,inf,inf,inf,inf,1,1,1,1,2,1,2,3,0,0,0
113674470,0,0.0,0.0,0.2407597,0.8196038,-0.20223533,0.0287597,0.43419725,-0.25574058,0.006572504,-0.09304379,0.0008546597,-0.0007788871,-0.004578579,0.002422073,-0.00020330926,-3.21356,-0.07621542,0.20665668,3.0915325,0.0,0.26415277,-0.0008546597,0.0053587784,0.003723059,0.0264455,0.017971301,inf,inf,inf,inf,1,1,1,1,2,1,2,3,0,0,0
113778470,0,0.0,0.0,0.24645151,0.8005854,-0.19333418,0.0287597,0.43419725,-0.25574058,0.01889857,-0.13266946,0.033738926,0.03824375,-0.004578579,0.002422073,-0.00020330926,-2.2980344,0.31866395,-1.8693681,3.0933511,0.0,0.25525162,-0.033738926,0.0054656714,0.003794098,0.026770024,0.018171692,inf,inf,inf,inf,1,1,1,1,2,1,2,3,0,0,0
113874478,0,0.0,0.0,0.25020942,0.77874935,-0.18113299,0.0287597,0.43419725,-0.25574058,0.0144409565,-0.15407002,0.060468912,0.06999678,-0.004578579,0.002422073,-0.00020330926,-2.4706001,2.8344386,-0.5075515,3.1012862,0.0,0.24305041,-0.060468912,0.005364033,0.0037245136,0.026464483,0.01795793,inf,inf,inf,inf,1,1,1,1,2,1,2,3,0,0,0
113978470,0,0.0,0.0,0.2524033,0.75355154,-0.16628213,0.0287597,0.43419725,-0.25574058,0.020722374,-0.1717128,0.07463618,0.08806085,-0.004578579,0.002422073,-0.00020330926,3.7669365,1.6140857,0.15946695,3.114854,0.0,0.22819956,-0.07463618,0.005443978,0.003775524,0.02669335,0.01808846,inf,inf,inf,inf,1,1,1,1,2,1,2,3,0,0,0
114082518,0,0.0,0.0,0.25149032,0.7292207,-0.15207489,0.0287597,0.43419725,-0.25574058,-0.012837836,-0.1657099,0.084741384,0.09988109,-0.004578579,0.002422073,-0.00020330926,0.48048484,1.9373027,3.4722643,3.1338882,0.0,0.21399231,-0.084741384,0.0051493887,0.003577534,0.025879195,0.01758213,inf,inf,inf,inf,1,1,1,1,2,1,2,3,0,0,0
114184127,0,0.0,0.0,0.24656466,0.70875114,-0.13957769,0.0287597,0.43419725,-0.25574058,-0.037270386,-0.15416014,0.087705426,0.1022331,-0.004578579,0.002422073,-0.00020330926,3.2231784,-1.7957631,1.0379207,-3.1299682,0.0,0.20149511,-0.087705426,0.005204698,0.0036153067,0.025946643,0.017647637,inf,inf,inf,inf,1,1,1,1,2,1,2,3,0,0,0
114285672,0,0.0,0.0,0.2368028,0.6924569,-0.13054442,0.0287597,0.43419725,-0.25574058,-0.06715872,-0.15141886,0.058460966,0.0706827,-0.004578579,0.002422073,-0.00020330926,-0.22638197,-3.0570643,-0.738714,-3.110415,0.0,0.19246185,-0.058460966,0.0052434504,0.0036433225,0.025999881,0.017714921,inf,inf,inf,inf,1,1,1,1,2,1,2,3,0,0,0
114381684,0,0.0,0.0,0.22324613,0.68172055,-0.1259234,0.0287597,0.43419725,-0.25574058,-0.10573824,-0.12376524,0.026550964,0.03579567,-0.004578579,0.002422073,-0.00020330926,-2.0300896,-0.96322405,-3.0701454,-3.0922844,0.0,0.18784082,-0.026550964,0.0050930777,0.0035439432,0.025505261,0.017407333,inf,inf,inf,inf,1,1,1,1,2,1,2,3,0,0,0
114485684,0,0.0,0.0,0.204506,0.6746858,-0.12600997,0.0287597,0.43419725,-0.25574058,-0.1372127,-0.09763574,-0.0012356975,0.004272764,-0.004578579,0.002422073,-0.00020330926,-2.7873387,1.6542525,0.8456264,-3.0753825,0.0,0.1879274,0.0012356975,0.0052061216,0.0036210013,0.025932765,0.017675178,inf,inf,inf,inf,1,1,1,1,2,1,2,3,0,0,0
114589670,0,0.0,0.0,0.18279846,0.6715679,-0.1322495,0.0287597,0.43419725,-0.25574058,-0.14748245,-0.08516212,-0.051471666,-0.0499706,-0.004578579,0.002422073,-0.00020330926,1.5122985,-1.5250013,-0.3875747,-3.065597,0.0,0.19416693,0.051471666,0.005278032,0.0036695895,0.026175061,0.017796379,inf,inf,inf,inf,1,1,1,1,2,1,2,3,0,0,0
114685669,0,0.0,0.0,0.16085552,0.67131597,-0.14284898,0.0287597,0.43419725,-0.25574058,-0.16965772,-0.07462189,-0.084735505,-0.08704992,-0.004578579,0.002422073,-0.00020330926,-1.8080846,-2.359276,-2.7270083,-3.0665817,0.0,0.20476641,0.084735505,0.005196501,0.003612574,0.026081719,0.017651042,inf,inf,inf,inf,1,1,1,1,2,1,2,3,0,0,0
114789689,0,0.0,0.0,0.13594462,0.6710229,-0.15845545,0.0287597,0.43419725,-0.25574058,-0.17046033,-0.06758298,-0.11943884,-0.12562932,-0.004578579,0.002422073,-0.00020330926,1.3624895,1.0530251,0.30863887,-3.0752652,0.0,0.22037287,0.11943884,0.0052827154,0.0036643222,0.026442928,0.017800605,inf,inf,inf,inf,1,1,1,1,2,1,2,3,0,0,0
114893676,0,0.0,0.0,0.11148974,0.6708955,-0.17827578,0.0287597,0.43419725,-0.25574058,-0.16245677,-0.066582434,-0.16263804,-0.17181067,-0.004578579,0.002422073,-0.00020330926,4.532346,-0.31387207,-1.4875478,-3.0900717,0.0,0.2401932,0.16263804,0.005376556,0.003720237,0.026715176,0.017931249,inf,inf,inf,inf,1,1,1,1,2,1,2,3,0,0,0
114992869,0,0.0,0.0,0.09099512,0.66822284,-0.20100144,0.0287597,0.43419725,-0.25574058,-0.16803075,-0.0765027,-0.19728097,-0.20823453,-0.004578579,0.002422073,-0.00020330926,-4.929716,-0.31936845,-0.17038737,-3.1077614,0.0,0.26291886,0.19728097,0.005647143,0.0038957861,0.02728805,0.018283153,inf,inf,inf,inf,1,1,1,1,2,1,2,3,0,0,0
115096870,0,0.0,0.0,0.07215749,0.6634644,-0.22705917,0.0287597,0.43419725,-0.25574058,-0.15482233,-0.084482364,-0.22398373,-0.23623377,-0.004578579,0.002422073,-0.00020330926,-4.166305,-3.9192402,-0.63826144,-3.1275237,0.0,0.2889766,0.22398373,0.0056024115,0.0038653251,0.027107678,0.018189335,inf,inf,inf,inf,1,1,1,1,2,1,2,3,0,0,0
115192917,0,0.0,0.0,0.058029316,0.65678453,-0.25201112,0.0287597,0.43419725,-0.25574058,-0.12925604,-0.09210479,-0.21829927,-0.23068585,-0.004578579,0.002422073,-0.00020330926,3.8908918,2.0984707,2.3196688,3.1381953,0.0,0.31392854,0.21829927,0.0054386742,0.0037585334,0.02674176,0.018019676,inf,inf,inf,inf,1,1,1,1,2,1,2,3,0,0,0
115296869,0,0.0,0.0,0.04588565,0.6467955,-0.27756116,0.0287597,0.43419725,-0.25574058,-0.12389478,-0.11361567,-0.21670687,-0.22802323,-0.004578579,0.002422073,-0.00020330926,1.900814,-4.1447945,2.8237228,3.1226645,0.0,0.33947858,0.21670687,0.0054690554,0.0037817948,0.026770588,0.018114578,inf,inf,inf,inf,1,1,1,1,2,1,2,3,0,0,0
115400878,0,0.0,0.0,0.036146868,0.6350573,-0.2999289,0.0287597,0.43419725,-0.25574058,-0.11833594,-0.10325941,-0.2020336,-0.21098147,-0.004578579,0.002422073,-0.00020330926,-5.6320996,2.2614737,2.1473784,3.1113584,0.0,0.36184633,0.2020336,0.005139656,0.0035687904,0.025818417,0.017590942,inf,inf,inf,inf,1,1,1,1,2,1,2,3,0,0,0
115504892,0,0.0,0.0,0.028531441,0.6219634,-0.31825683,0.0287597,0.43419725,-0.25574058,-0.09023814,-0.1143844,-0.17843935,-0.1839208,-0.004578579,0.002422073,-0.00020330926,-3.8293257,0.97394705,-0.7804778,3.1015868,0.0,0.38017425,0.17843935,0.005210114,0.0036213903,0.025958786,0.01770358,inf,inf,inf,inf,1,1,1,1,2,1,2,3,0,0,0
115608877,0,0.0,0.0,0.022308707,0.60767186,-0.33094046,0.0287597,0.43419725,-0.25574058,-0.064415544,-0.13316882,-0.14010586,-0.14124726,-0.004578579,0.002422073,-0.00020330926,5.4349027,1.0249068,-0.6115876,3.0931146,0.0,0.39285788,0.14010586,0.0052774986,0.0036700678,0.026142245,0.017815378,inf,inf,inf,inf,1,1,1,1,2,1,2,3,0,0,0
115704073,0,0.0,0.0,0.017715555,0.59331566,-0.33744776,0.0287597,0.43419725,-0.25574058,-0.061950922,-0.14522663,-0.101380266,-0.09814614,-0.004578579,0.002422073,-0.00020330926,1.0805199,1.8433986,-1.3352771,3.0866923,0.0,0.3993652,0.101380266,0.0051910765,0.0036126117,0.025929065,0.017657164,inf,inf,inf,inf,1,1,1,1,2,1,2,3,0,0,0
115808070,0,0.0,0.0,0.012934465,0.57652956,-0.3393392,0.0287597,0.43419725,-0.25574058,-0.06938132,-0.16304654,-0.05067003,-0.042762153,-0.004578579,0.002422073,-0.00020330926,1.0897902,-3.9162576,2.1394613,3.0811048,0.0,0.40125662,0.05067003,0.005270688,0.003664359,0.02619949,0.017795485,inf,inf,inf,inf,1,1,1,1,2,1,2,3,0,0,0
115912070,0,0.0,0.0,0.007504896,0.5580342,-0.33606106,0.0287597,0.43419725,-0.25574058,-0.06649662,-0.17957278,-0.038182534,-0.02615142,-0.004578579,0.002422073,-0.00020330926,-0.15134484,0.340212,-2.1688304,3.0778465,0.0,0.39797848,0.038182534,0.005321976,0.0036958053,0.026346892,0.017845277,inf,inf,inf,inf,1,1,1,1,2,1,2,3,0,0,0
116016076,0,0.0,0.0,0.0010093864,0.5364527,-0.3312407,0.0287597,0.43419725,-0.25574058,-0.077183634,-0.21347938,-0.005456429,0.009721535,-0.004578579,0.002422073,-0.00020330926,1.7682347,-3.197273,-1.2427316,3.0789793,0.0,0.39315814,0.005456429,0.0054297317,0.0037642925,0.026694821,0.01805219,inf,inf,inf,inf,1,1,1,1,2,1,2,3,0,0,0
116112070,0,0.0,0.0,-0.006422859,0.51459247,-0.32501805,0.0287597,0.43419725,-0.25574058,-0.09186138,-0.21956252,0.02149447,0.038102143,-0.004578579,0.002422073,-0.00020330926,-1.8973806,-0.34713903,-0.061852414,3.0798488,0.0,0.38693547,-0.02149447,0.0053523853,0.003710616,0.026481695,0.017912483,inf,inf,inf,inf,1,1,1,1,2,1,2,3,0,0,0
116216081,0,0.0,0.0,-0.016352752,0.48886135,-0.31573617,0.0287597,0.43419725,-0.25574058,-0.09686546,-0.23297893,0.07759979,0.09428589,-0.004578579,0.002422073,-0.00020330926,-2.1097538,1.4808565,1.7867606,3.082394,0.0,0.3776536,-0.07759979,0.005049987,0.0035076118,0.02567699,0.017413978,inf,inf,inf,inf,1,1,1,1,2,1,2,3,0,0,0
116320076,0,0.0,0.0,-0.028205512,0.4614104,-0.29871213,0.0287597,0.43419725,-0.25574058,-0.09030564,-0.2476551,0.15759866,0.17371432,-0.004578579,0.002422073,-0.00020330926,3.6172764,0.5316123,-1.9448847,3.0782843,0.0,0.36062956,-0.15759866,0.0051210546,0.003554797,0.025841612,0.017528811,inf,inf,inf,inf,1,1,1,1,2,1,2,3,0,0,0
116424082,0,0.0,0.0,-0.04118293,0.43273976,-0.27586842,0.0287597,0.43419725,-0.25574058,-0.10162824,-0.26264137,0.20029876,0.21667479,-0.004578579,0.002422073,-0.00020330926,6.3977127,-0.76550907,-0.96245146,3.0747077,0.0,0.33778584,-0.20029876,0.0051788767,0.003594834,0.025928222,0.01760888,inf,inf,inf,inf,1,1,1,1,2,1,2,3,0,0,0
116527270,0,0.0,0.0,-0.05381017,0.4034937,-0.25186956,0.0287597,0.43419725,-0.25574058,-0.10771358,-0.2572267,0.18479249,0.20229222,-0.004578579,0.002422073,-0.00020330926,1.0488235,0.7260245,0.83271664,3.0748122,0.0,0.31378698,-0.18479249,0.0052692457,0.00365613,0.026202213,0.017793385,inf,inf,inf,inf,1,1,1,1,2,1,2,3,0,0,0
116631270,0,0.0,0.0,-0.06632681,0.37394592,-0.2299451,0.0287597,0.43419725,-0.25574058,-0.10584358,-0.26865095,0.16564171,0.18304661,-0.004578579,0.002422073,-0.00020330926,0.25898474,-0.08643381,1.0001141,3.0791845,0.0,0.29186252,-0.16564171,0.005330969,0.0036986924,0.026312124,0.01787385,inf,inf,inf,inf,1,1,1,1,2,1,2,3,0,0,0
116727280,0,0.0,0.0,-0.077175364,0.34776735,-0.21398886,0.0287597,0.43419725,-0.25574058,-0.0912169,-0.2592567,0.1401358,0.15504399,-0.004578579,0.002422073,-0.00020330926,0.26819414,1.021221,-3.6300206,3.081499,0.0,0.2759063,-0.1401358,0.00523631,0.003636673,0.026046662,0.01770147,inf,inf,inf,inf,1,1,1,1,2,1,2,3,0,0,0
116831270,0,0.0,0.0,-0.08820064,0.32065648,-0.20215783,0.0287597,0.43419725,-0.25574058,-0.093695864,-0.26699507,0.11260237,0.12237935,-0.004578579,0.002422073,-0.00020330926,-4.554064,-2.834994,-1.1292328,3.0827951,0.0,0.26407525,-0.11260237,0.005275712,0.0036635587,0.026181957,0.017764853,inf,inf,inf,inf,1,1,1,1,2,1,2,3,0,0,0
116935270,0,0.0,0.0,-0.097528204,0.2952335,-0.19767964,0.0287597,0.43419725,-0.25574058,-0.082962416,-0.26355278,0.064213246,0.06750727,-0.004578579,0.002422073,-0.00020330926,-3.0084438,-2.3313468,-0.19688657,3.083726,0.0,0.25959706,-0.064213246,0.0053449203,0.003708604,0.026419017,0.017904319,inf,inf,inf,inf,1,1,1,1,2,1,2,3,0,0,0
117031270,0,0.0,0.0,-0.1034086,0.27308944,-0.20005651,0.0287597,0.43419725,-0.25574058,-0.046967328,-0.22885646,0.027110439,0.024164697,-0.004578579,0.002422073,-0.00020330926,-0.052374844,3.7477338,-1.4888067,3.08413,0.0,0.26197395,-0.027110439,0.0053329845,0.0036979183,0.026532568,0.017950665,inf,inf,inf,inf,1,1,1,1,2,1,2,3,0,0,0
117135270,0,0.0,0.0,-0.10710883,0.25031242,-0.20673764,0.0287597,0.43419725,-0.25574058,-0.03302491,-0.21723239,-0.004655402,-0.013755988,-0.004578579,0.002422073,-0.00020330926,-0.4732898,3.8251352,-0.81892556,3.084362,0.0,0.26865506,0.004655402,0.005437028,0.0037653532,0.026774969,0.018081546,inf,inf,inf,inf,1,1,1,1,2,1,2,3,0,0,0
117239280,0,0.0,0.0,-0.10808418,0.22932044,-0.21694283,0.0287597,0.43419725,-0.25574058,-0.011575384,-0.20098226,-0.028705247,-0.04255959,-0.004578579,0.002422073,-0.00020330926,-0.4852545,1.8770912,0.057971053,3.08532,0.0,0.27886027,0.028705247,0.0051096096,0.0035470254,0.025791818,0.017492412,inf,inf,inf,inf,1,1,1,1,2,1,2,3,0,0,0
117342470,0,0.0,0.0,-0.10686514,0.21053006,-0.22890757,0.0287597,0.43419725,-0.25574058,0.0036696047,-0.17469217,-0.051668305,-0.06841215,-0.004578579,0.002422073,-0.00020330926,-0.68980867,0.77539456,-0.5789924,3.087557,0.0,0.290825,0.051668305,0.005176994,0.003592458,0.025964826,0.017618263,inf,inf,inf,inf,1,1,1,1,2,1,2,3,0,0,0
117446499,0,0.0,0.0,-0.10448668,0.19489741,-0.24035197,0.0287597,0.43419725,-0.25574058,0.0140119,-0.14946677,-0.05749349,-0.0752265,-0.004578579,0.002422073,-0.00020330926,0.5277215,-2.253142,-2.5390427,3.0899134,0.0,0.3022694,0.05749349,0.0052206903,0.0036236101,0.026022922,0.01767595,inf,inf,inf,inf,1,1,1,1,2,1,2,3,0,0,0
117542489,0,0.0,0.0,-0.102004394,0.18350403,-0.24981155,0.0287597,0.43419725,-0.25574058,-0.005206362,-0.10644116,-0.05877743,-0.075856686,-0.004578579,0.002422073,-0.00020330926,-4.441155,4.0519905,-0.522547,3.093509,0.0,0.31172898,0.05877743,0.005128662,0.0035637193,0.025759561,0.017534828,inf,inf,inf,inf,1,1,1,1,2,1,2,3,0,0,0
117646470,0,0.0,0.0,-0.09961616,0.17572993,-0.25842267,0.0287597,0.43419725,-0.25574058,0.002193101,-0.08222957,-0.066763245,-0.081815824,-0.004578579,0.002422073,-0.00020330926,-2.966392,-2.1648006,-0.5440862,3.0981257,0.0,0.3203401,0.066763245,0.0052268556,0.0036313008,0.026045937,0.017739227,inf,inf,inf,inf,1,1,1,1,2,1,2,3,0,0,0
117750495,0,0.0,0.0,-0.09802347,0.17174491,-0.2649601,0.0287597,0.43419725,-0.25574058,-0.0049926643,-0.05325559,-0.049192715,-0.061493408,-0.004578579,0.002422073,-0.00020330926,-1.3089336,-2.0909853,1.0183177,3.1007395,0.0,0.32687753,0.049192715,0.005323549,0.0036980612,0.026270198,0.017902298,inf,inf,inf,inf,1,1,1,1,2,1,2,3,0,0,0
117846470,0,0.0,0.0,-0.09757477,0.17104678,-0.26935765,0.0287597,0.43419725,-0.25574058,-0.01085641,-0.021003917,-0.046885308,-0.05644703,-0.004578579,0.002422073,-0.00020330926,-3.2852707,-0.046719313,1.7052244,3.1020072,0.0,0.33127508,0.046885308,0.005231751,0.0036380638,0.025977014,0.017714597,inf,inf,inf,inf,1,1,1,1,2,1,2,3,0,0,0
117950506,0,0.0,0.0,-0.09834635,0.1732053,-0.273484,0.0287597,0.43419725,-0.25574058,-0.013288972,-0.004341115,-0.06808967,-0.074725665,-0.004578579,0.002422073,-0.00020330926,-5.881204,-0.1951318,-0.42543754,3.100785,0.0,0.33540142,0.06808967,0.0052861874,0.0036761044,0.026095849,0.017803837,inf,inf,inf,inf,1,1,1,1,2,1,2,3,0,0,0
118053677,0,0.0,0.0,-0.1004854,0.17651218,-0.2794791,0.0287597,0.43419725,-0.25574058,0.00043789175,0.0033768252,-0.08868948,-0.09299757,-0.004578579,0.002422073,-0.00020330926,-3.6708875,-3.9010842,-1.3337955,3.1013968,0.0,0.3413965,0.08868948,0.0053431015,0.0037150425,0.026256865,0.017903045,inf,inf,inf,inf,1,1,1,1,2,1,2,3,0,0,0
118157701,0,0.0,0.0,-0.103297405,0.18079992,-0.2874284,0.0287597,0.43419725,-0.25574058,0.0072493693,0.024574483,-0.08669572,-0.08987749,-0.004578579,0.002422073,-0.00020330926,4.481549,0.58703613,0.24731758,3.103032,0.0,0.34934583,0.08669572,0.005049242,0.0035164377,0.025532346,0.01741875,inf,inf,inf,inf,1,1,1,1,2,1,2,3,0,0,0
118261678,0,0.0,0.0,-0.106935166,0.18424754,-0.2958141,0.0287597,0.43419725,-0.25574058,-0.008602083,0.03670693,-0.07989723,-0.08297368,-0.004578579,0.002422073,-0.00020330926,2.8926647,3.8567188,1.2485732,3.1062217,0.0,0.35773152,0.07989723,0.0051260437,0.0035673366,0.02573372,0.01754283,inf,inf,inf,inf,1,1,1,1,2,1,2,3,0,0,0
118357676,0,0.0,0.0,-0.110771574,0.18701997,-0.3033793,0.0287597,0.43419725,-0.25574058,-0.007445834,0.03329416,-0.07349598,-0.07664009,-0.004578579,0.002422073,-0.00020330926,1.602514,-3.6571207,0.7972592,3.1086893,0.0,0.36529672,0.07349598,0.0054604816,0.0037909516,0.0266268,0.018122025,inf,inf,inf,inf,1,1,1,1,2,1,2,3,0,0,0
118461680,0,0.0,0.0,-0.11564141,0.1891159,-0.31048784,0.0287597,0.43419725,-0.25574058,-0.026763318,0.03497128,-0.061689768,-0.064364605,-0.004578579,0.002422073,-0.00020330926,1.7775254,0.6862125,0.6830505,3.1112723,0.0,0.37240526,0.061689768,0.005168314,0.003595559,0.025826138,0.017628845,inf,inf,inf,inf,1,1,1,1,2,1,2,3,0,0,0
118565682,0,0.0,0.0,-0.12079911,0.19024831,-0.3158362,0.0287597,0.43419725,-0.25574058,-0.035923865,0.03726235,-0.04645821,-0.048016027,-0.004578579,0.002422073,-0.00020330926,0.87702215,3.2540216,0.9765102,3.1121047,0.0,0.37775362,0.04645821,0.005239967,0.0036450976,0.02597328,0.0177284,inf,inf,inf,inf,1,1,1,1,2,1,2,3,0,0,0
118661676,0,0.0,0.0,-0.12546006,0.19013646,-0.31928355,0.0287597,0.43419725,-0.25574058,-0.027407477,0.02824443,-0.04931426,-0.04938967,-0.004578579,0.002422073,-0.00020330926,3.3694541,0.4603401,0.41824088,3.1111467,0.0,0.38120097,0.04931426,0.005140565,0.0035793248,0.0256798,0.01754794,inf,inf,inf,inf,1,1,1,1,2,1,2,3,0,0,0
118764874,0,0.0,0.0,-0.1298465,0.18997678,-0.32226738,0.0287597,0.43419725,-0.25574058,-0.033736277,0.0332813,-0.043629233,-0.042051453,-0.004578579,0.002422073,-0.00020330926,-2.270817,0.7577759,2.9077754,3.1075003,0.0,0.3841848,0.043629233,0.005192863,0.003615274,0.025826475,0.017648255,inf,inf,inf,inf,1,1,1,1,2,1,2,3,0,0,0
118868876,0,0.0,0.0,-0.1343578,0.18935318,-0.3251493,0.0287597,0.43419725,-0.25574058,-0.024545329,0.03430341,-0.047303464,-0.04456579,-0.004578579,0.002422073,-0.00020330926,2.3920796,1.6616952,0.14012337,3.1034384,0.0,0.38706672,0.047303464,0.0052492665,0.0036533077,0.026001751,0.017754667,inf,inf,inf,inf,1,1,1,1,2,1,2,3,0,0,0
118972870,0,0.0,0.0,-0.13899848,0.18928118,-0.32875776,0.0287597,0.43419725,-0.25574058,-0.021919057,0.037471887,-0.04844521,-0.0452974,-0.004578579,0.002422073,-0.00020330926,1.4640155,0.39492068,-1.1013641,3.0973432,0.0,0.3906752,0.04844521,0.005331106,0.0037077651,0.0262459,0.017901346,inf,inf,inf,inf,1,1,1,1,2,1,2,3,0,0,0
119068883,0,0.0,0.0,-0.14367008,0.1892717,-0.33250615,0.0287597,0.43419725,-0.25574058,-0.03577416,0.041360997,-0.04798933,-0.04509942,-0.004578579,0.002422073,-0.00020330926,0.22147696,1.4838971,1.1066637,3.0917919,0.0,0.39442357,0.04798933,0.0052833077,0.0036749425,0.026167229,0.017846981,inf,inf,inf,inf,1,1,1,1,2,1,2,3,0,0,0
119172876,0,0.0,0.0,-0.14925279,0.19015548,-0.3375362,0.0287597,0.43419725,-0.25574058,-0.04663802,0.03565117,-0.04505364,-0.04280954,-0.004578579,0.002422073,-0.00020330926,0.81817985,0.27587432,0.8896866,3.0839596,0.0,0.3994536,0.04505364,0.005380997,0.0037403493,0.02640387,0.018003834,inf,inf,inf,inf,1,1,1,1,2,1,2,3,0,0,0
119276929,0,0.0,0.0,-0.15564893,0.1909678,-0.34300715,0.0287597,0.43419725,-0.25574058,-0.05070134,0.039504763,-0.055864017,-0.054389033,-0.004578579,0.002422073,-0.00020330926,1.0729831,0.12740256,0.20384651,3.0758677,0.0,0.40492457,0.055864017,0.005419915,0.0037672394,0.026421113,0.018006673,inf,inf,inf,inf,1,1,1,1,2,1,2,3,0,0,0
119372896,0,0.0,0.0,-0.16205788,0.19337615,-0.34924385,0.0287597,0.43419725,-0.25574058,-0.07467379,0.05032179,-0.06096668,-0.06013445,-0.004578579,0.002422073,-0.00020330926,-2.621669,0.9178921,1.2146386,3.0686884,0.0,0.41116127,0.06096668,0.0053503253,0.00372005,0.026290799,0.017927857,inf,inf,inf,inf,1,1,1,1,2,1,2,3,0,0,0
119476077,0,0.0,0.0,-0.16999918,0.19623183,-0.35605803,0.0287597,0.43419725,-0.25574058,-0.082907006,0.03469786,-0.050311547,-0.05019999,-0.004578579,0.002422073,-0.00020330926,-3.339912,0.6379794,-0.081816636,3.0613272,0.0,0.41797546,0.050311547,0.0054035303,0.0037558835,0.026413435,0.017988421,inf,inf,inf,inf,1,1,1,1,2,1,2,3,0,0,0
119580113,0,0.0,0.0,-0.17879646,0.19980907,-0.359166,0.0287597,0.43419725,-0.25574058,-0.08888318,0.048442453,-0.0018158574,-0.002232354,-0.004578579,0.002422073,-0.00020330926,-4.944954,-3.0011802,1.5071683,3.0524764,0.0,0.42108342,0.0018158574,0.0050987517,0.0035497027,0.02566749,0.017503293,inf,inf,inf,inf,1,1,1,1,2,1,2,3,0,0,0
119684070,0,0.0,0.0,-0.18811728,0.20391704,-0.35851523,0.0287597,0.43419725,-0.25574058,-0.09026492,0.047784317,-0.0020266694,-0.0019635062,-0.004578579,0.002422073,-0.00020330926,-6.1398635,-1.6110977,-2.0159888,3.0428154,0.0,0.42043266,0.0020266694,0.005162035,0.003592248,0.025801707,0.017607048,inf,inf,inf,inf,1,1,1,1,2,1,2,3,0,0,0
119788070,0,0.0,0.0,-0.19774334,0.20775054,-0.35718316,0.0287597,0.43419725,-0.25574058,-0.086404055,0.04766941,-0.0104953805,-0.008789268,-0.004578579,0.002422073,-0.00020330926,-3.8605866,-3.3439806,-2.207076,3.0356598,0.0,0.41910058,0.0104953805,0.005222187,0.0036332603,0.025951883,0.017696159,inf,inf,inf,inf,1,1,1,1,2,1,2,3,0,0,0
