timestamp,ref_timestamp,ref_lat,ref_lon,x,y,z,delta_xy[0],delta_xy[1],delta_z,vx,vy,vz,z_deriv,delta_vxy[0],delta_vxy[1],delta_vz,ax,ay,az,yaw,ref_alt,dist_bottom,dist_bottom_rate,eph,epv,evh,evv,vxy_max,vz_max,hagl_min,hagl_max,xy_valid,z_valid,v_xy_valid,v_z_valid,xy_reset_counter,z_reset_counter,vxy_reset_counter,vz_reset_counter,xy_global,z_global,dist_bottom_valid
47785880,0,0.0,0.0,0.20277278,0.49124715,-0.035216384,0.20331125,0.49127465,-0.25526088,-0.0018539883,-0.0022527308,0.0063280254,0.0045220805,0.0021388521,-0.00409127,-0.002900156,-0.0031332436,-0.019346159,-0.00613936,3.1060147,0.0,0.1,-0.0063280254,0.005260367,0.0036217445,0.025721733,0.017084664,inf,inf,inf,inf,1,1,1,1,2,1,2,3,0,0,0
47889870,0,0.0,0.0,0.2027392,0.49123636,-0.035036102,0.20331125,0.49127465,-0.25526088,-0.0015198215,-0.0022809107,0.005808127,0.0038644292,0.0021388521,-0.00409127,-0.002900156,-0.008129592,-0.0006149683,0.010244266,3.1059966,0.0,0.1,-0.005808127,0.0051848316,0.003567757,0.025800398,0.017122839,inf,inf,inf,inf,1,1,1,1,2,1,2,3,0,0,0
47985876,0,0.0,0.0,0.20274526,0.49122152,-0.034946,0.20331125,0.49127465,-0.25526088,-0.0009944927,-0.0024166948,0.006128768,0.00402558,0.0021388521,-0.00409127,-0.002900156,0.0054168897,-0.014951862,0.006371439,3.106025,0.0,0.1,-0.006128768,0.005088717,0.0035009147,0.025727777,0.01707507,inf,inf,inf,inf,1,1,1,1,2,1,2,3,0,0,0
48089870,0,0.0,0.0,0.2028151,0.49121496,-0.034874745,0.20331125,0.49127465,-0.25526088,-0.00070080033,-0.0022655122,0.0058918605,0.0035998044,0.0021388521,-0.00409127,-0.002900156,-0.08268254,0.14651082,0.007021177,3.1060894,0.0,0.1,-0.0058918605,0.005241048,0.0035952008,0.026253348,0.017382396,inf,inf,inf,inf,1,1,1,1,2,1,2,3,0,0,0
48193876,0,0.0,0.0,0.20290583,0.49120247,-0.034855515,0.20331125,0.49127465,-0.25526088,0.00059334806,-0.0017015487,0.005863776,0.0034041798,0.0021388521,-0.00409127,-0.002900156,-0.006840286,0.35873103,0.0018160157,3.1064951,0.0,0.1,-0.005863776,0.0053699575,0.0036782634,0.026490381,0.017523382,inf,inf,inf,inf,1,1,1,1,2,1,2,3,0,0,0
48289912,0,0.0,0.0,0.20299052,0.49121317,-0.03488766,0.20331125,0.49127465,-0.25526088,-0.00059637864,-0.002440268,0.0057824138,0.003188727,0.0021388521,-0.00409127,-0.002900156,-0.07096218,-0.20984915,0.01829886,3.1060495,0.0,0.1,-0.0057824138,0.005324248,0.0036494443,0.02630101,0.017412739,inf,inf,inf,inf,1,1,1,1,2,1,2,3,0,0,0
48393870,0,0.0,0.0,0.20304064,0.4912351,-0.034912333,0.20331125,0.49127465,-0.25526088,-0.00064866245,-0.0010278625,0.005758328,0.003021045,0.0021388521,-0.00409127,-0.002900156,-0.02995679,-0.20059438,-0.004848227,3.106223,0.0,0.1,-0.005758328,0.005193022,0.003561604,0.02611417,0.017301999,inf,inf,inf,inf,1,1,1,1,2,1,2,3,0,0,0
48497870,0,0.0,0.0,0.20309119,0.4913035,-0.03497764,0.20331125,0.49127465,-0.25526088,-0.00018795546,-0.0015628571,0.005002623,0.0021365108,0.0021388521,-0.00409127,-0.002900156,0.16009153,-0.34186083,-0.049734127,3.1059105,0.0,0.1,-0.005002623,0.0050505945,0.0034698716,0.025666812,0.017038612,inf,inf,inf,inf,1,1,1,1,2,1,2,3,0,0,0
48601876,0,0.0,0.0,0.20313248,0.49134815,-0.035084747,0.20331125,0.49127465,-0.25526088,-0.00018941524,-0.0019577642,0.0050404086,0.0020669876,0.0021388521,-0.00409127,-0.002900156,0.08231031,0.054469857,0.05605638,3.106313,0.0,0.1,-0.0050404086,0.0051704263,0.003549539,0.025851818,0.017149037,inf,inf,inf,inf,1,1,1,1,2,1,2,3,0,0,0
48704298,0,0.0,0.0,0.20325427,0.49139035,-0.03536411,0.20331125,0.49127465,-0.25526088,0.0019609465,-0.0051199514,0.004289383,0.0012196889,0.0021388521,-0.00409127,-0.002900156,0.64285535,-1.3719448,0.314864,3.1059868,0.0,0.1,-0.004289383,0.005332047,0.0036537396,0.02629345,0.0174091,inf,inf,inf,inf,1,1,1,1,2,1,2,3,0,0,0
48801100,0,0.0,0.0,0.20329987,0.49119845,-0.0356821,0.20331125,0.49127465,-0.25526088,0.00048256063,-0.0011396924,0.0014910377,-0.0016547001,0.0021388521,-0.00409127,-0.002900156,-0.23854116,-0.041666068,0.05804946,3.1065419,0.0,0.1,-0.0014910377,0.0049883476,0.003430904,0.025444373,0.016906388,inf,inf,inf,inf,1,1,1,1,2,1,2,3,0,0,0
48905070,0,0.0,0.0,0.20336962,0.49125907,-0.036035974,0.20331125,0.49127465,-0.25526088,-0.00021372146,-0.0029074864,0.0020796242,-0.0011217549,0.0021388521,-0.00409127,-0.002900156,-0.1555393,-0.3236261,0.053035963,3.1055954,0.0,0.1,-0.0020796242,0.0052497676,0.003596959,0.026263746,0.017387204,inf,inf,inf,inf,1,1,1,1,2,1,2,3,0,0,0
49009097,0,0.0,0.0,0.20334151,0.4912151,-0.03636318,0.20331125,0.49127465,-0.25526088,0.00052798394,-0.0009052312,0.0035041668,0.00030665702,0.0021388521,-0.00409127,-0.002900156,0.1628106,0.3808576,-0.0031265712,3.1062138,0.0,0.1,-0.0035041668,0.0051708897,0.0035455767,0.026048398,0.017262787,inf,inf,inf,inf,1,1,1,1,2,1,2,3,0,0,0
49105106,0,0.0,0.0,0.20326799,0.49130118,-0.036568355,0.20331125,0.49127465,-0.25526088,0.0005867814,-0.003514086,0.0017377633,-0.0013908087,0.0021388521,-0.00409127,-0.002900156,0.26295754,-0.14641578,-0.5910692,3.1067476,0.0,0.1,-0.0017377633,0.005179607,0.003554024,0.02590437,0.01717972,inf,inf,inf,inf,1,1,1,1,2,1,2,3,0,0,0
49209070,0,0.0,0.0,0.20309813,0.49146965,-0.036777757,0.20331125,0.49127465,-0.25526088,0.0009017619,0.0017938623,0.0020831353,-0.00090871507,0.0021388521,-0.00409127,-0.002900156,1.5951897,1.077147,-0.14209172,3.1066236,0.0,0.1,-0.0020831353,0.0052672266,0.0036136277,0.025997292,0.017235268,inf,inf,inf,inf,1,1,1,1,2,1,2,3,0,0,0
49313070,0,0.0,0.0,0.20299527,0.49160564,-0.036999248,0.20331125,0.49127465,-0.25526088,0.000951387,-0.0015204108,0.001806276,-0.0010376364,0.0021388521,-0.00409127,-0.002900156,1.1240435,-0.5594037,-0.19298747,3.107226,0.0,0.1,-0.001806276,0.005270576,0.0036180518,0.025951317,0.017209671,inf,inf,inf,inf,1,1,1,1,2,1,2,3,0,0,0
49409069,0,0.0,0.0,0.20304525,0.49184567,-0.037251603,0.20331125,0.49127465,-0.25526088,-0.006950084,0.002336338,0.0043443865,0.0016266282,0.0021388521,-0.00409127,-0.002900156,-2.156073,1.0244104,0.5322596,3.1070316,0.0,0.10007885,-0.0043443865,0.0051487535,0.003539433,0.025669059,0.01704183,inf,inf,inf,inf,1,1,1,1,2,1,2,3,0,0,0
49513070,0,0.0,0.0,0.20306495,0.49200666,-0.037433065,0.20331125,0.49127465,-0.25526088,0.0001799092,-0.0010420455,0.0030184165,0.00041679904,0.0021388521,-0.00409127,-0.002900156,-0.16661902,-0.5713035,0.75246316,3.1073189,0.0,0.10026031,-0.0030184165,0.0048795855,0.0033627516,0.02509832,0.016699849,inf,inf,inf,inf,1,1,1,1,2,1,2,3,0,0,0
49617071,0,0.0,0.0,0.20306805,0.4921461,-0.03763605,0.20331125,0.49127465,-0.25526088,-0.0016884026,0.003419437,0.0010257636,-0.00147422,0.0021388521,-0.00409127,-0.002900156,-0.5230306,0.8902902,0.56375605,3.107256,0.0,0.10046329,-0.0010257636,0.0050466578,0.003468805,0.025656464,0.017030455,inf,inf,inf,inf,1,1,1,1,2,1,2,3,0,0,0
49721070,0,0.0,0.0,0.20301081,0.49214867,-0.037756387,0.20331125,0.49127465,-0.25526088,0.001008277,0.002458489,-0.00047455833,-0.002843426,0.0021388521,-0.00409127,-0.002900156,0.44031748,0.7174339,0.14342898,3.1072495,0.0,0.10058363,0.00047455833,0.005246986,0.0035970884,0.026203481,0.017353281,inf,inf,inf,inf,1,1,1,1,2,1,2,3,0,0,0
49817098,0,0.0,0.0,0.20290183,0.492058,-0.037790556,0.20331125,0.49127465,-0.25526088,0.0003360705,-0.0052983523,-0.0033850032,-0.0056070015,0.0021388521,-0.00409127,-0.002900156,0.505873,-1.709398,-1.3449768,3.1071968,0.0,0.100617796,0.0033850032,0.0049464437,0.0034024671,0.025390092,0.016878141,inf,inf,inf,inf,1,1,1,1,2,1,2,3,0,0,0
49921070,0,0.0,0.0,0.20293503,0.49199048,-0.037781846,0.20331125,0.49127465,-0.25526088,0.0041105137,0.00030422932,6.7231013e-06,-0.0020601896,0.0021388521,-0.00409127,-0.002900156,0.7212479,0.43251875,0.5943546,3.1072989,0.0,0.100609094,-6.7231013e-06,0.0050900425,0.0034968555,0.025672644,0.017047863,inf,inf,inf,inf,1,1,1,1,2,1,2,3,0,0,0
50025070,0,0.0,0.0,0.20303006,0.49198684,-0.037706584,0.20331125,0.49127465,-0.25526088,0.0003065717,0.0007573649,0.0037990704,0.0018552903,0.0021388521,-0.00409127,-0.002900156,0.78950226,-0.48322904,0.39082572,3.1076303,0.0,0.10053383,-0.0037990704,0.005270177,0.0036126683,0.026188591,0.017351173,inf,inf,inf,inf,1,1,1,1,2,1,2,3,0,0,0
50121089,0,0.0,0.0,0.20304759,0.49186411,-0.037548617,0.20331125,0.49127465,-0.25526088,-0.001258826,-0.001843087,0.0032467137,0.0013706856,0.0021388521,-0.00409127,-0.002900156,0.17788385,-0.6703952,0.06549086,3.107579,0.0,0.10037586,-0.0032467137,0.005005263,0.00344039,0.025541967,0.01696645,inf,inf,inf,inf,1,1,1,1,2,1,2,3,0,0,0
50225070,0,0.0,0.0,0.20312358,0.49187282,-0.037651975,0.20331125,0.49127465,-0.25526088,-0.0040151337,0.00714418,0.0026790688,0.0008424593,0.0021388521,-0.00409127,-0.002900156,-0.15104584,2.8350427,-0.66611224,3.1076944,0.0,0.100479215,-0.0026790688,0.005201702,0.0035676693,0.026038483,0.017260375,inf,inf,inf,inf,1,1,1,1,2,1,2,3,0,0,0
50328273,0,0.0,0.0,0.20306437,0.4918412,-0.03784304,0.20331125,0.49127465,-0.25526088,-0.004109091,-0.004476623,0.0060006715,0.004127137,0.0021388521,-0.00409127,-0.002900156,0.25609615,0.94740707,1.7558801,3.1077044,0.0,0.100670286,-0.0060006715,0.0054072463,0.0037005602,0.026545675,0.017554173,inf,inf,inf,inf,1,1,1,1,2,1,2,3,0,0,0
50428270,0,0.0,0.0,0.20292811,0.49185172,-0.0381186,0.20331125,0.49127465,-0.25526088,-0.0055585876,-0.0051641585,-0.003489005,-0.0054168096,0.0021388521,-0.00409127,-0.002900156,-1.8004494,-0.7431076,0.8926256,3.1077957,0.0,0.100945845,0.003489005,0.0051399595,0.0035268303,0.025934257,0.017190862,inf,inf,inf,inf,1,1,1,1,2,1,2,3,0,0,0
50532294,0,0.0,0.0,0.20258276,0.49172932,-0.03836813,0.20331125,0.49127465,-0.25526088,-0.005291975,-0.0028641487,-0.003006588,-0.0049503753,0.0021388521,-0.00409127,-0.002900156,-1.1770617,0.067013256,1.3123678,3.1080651,0.0,0.10119537,0.003006588,0.0053222594,0.00364569,0.026357885,0.017445207,inf,inf,inf,inf,1,1,1,1,2,1,2,3,0,0,0
50628270,0,0.0,0.0,0.20215994,0.49162617,-0.03839744,0.20331125,0.49127465,-0.25526088,-0.005994106,-0.0013622404,-0.004484092,-0.006372922,0.0021388521,-0.00409127,-0.002900156,-0.11522733,0.5132141,-2.2416575,3.107906,0.0,0.10122468,0.004484092,0.0050449194,0.0034675999,0.02573045,0.017102428,inf,inf,inf,inf,1,1,1,1,2,1,2,3,0,0,0
50732289,0,0.0,0.0,0.201885,0.4915796,-0.03855699,0.20331125,0.49127465,-0.25526088,-0.008369082,0.0005762435,-0.007394044,-0.009190329,0.0021388521,-0.00409127,-0.002900156,-0.62114275,1.3762347,-0.43348417,3.1077383,0.0,0.10138424,0.007394044,0.0052270615,0.0035856143,0.02617653,0.017363783,inf,inf,inf,inf,1,1,1,1,2,1,2,3,0,0,0
50836282,0,0.0,0.0,0.20162745,0.4914329,-0.03857634,0.20331125,0.49127465,-0.25526088,-0.0070338086,-0.002932422,0.013930469,0.0121991085,0.0021388521,-0.00409127,-0.002900156,-0.70559245,-1.0912435,3.6876116,3.1079524,0.0,0.10140358,-0.013930469,0.005402809,0.0037001509,0.026548173,0.01756877,inf,inf,inf,inf,1,1,1,1,2,1,2,3,0,0,0
50932270,0,0.0,0.0,0.20162345,0.4912893,-0.03876793,0.20331125,0.49127465,-0.25526088,0.006299342,-0.0011563957,0.0066915764,0.0050085024,0.0021388521,-0.00409127,-0.002900156,1.3978041,-1.0843141,4.103607,3.108463,0.0,0.10159518,-0.0066915764,0.005009743,0.0034473012,0.025413174,0.016902797,inf,inf,inf,inf,1,1,1,1,2,1,2,3,0,0,0
51036283,0,0.0,0.0,0.20189586,0.49141005,-0.038991872,0.20331125,0.49127465,-0.25526088,0.0022531715,0.0019031753,-0.0045967614,-0.0062840036,0.0021388521,-0.00409127,-0.002900156,0.32503015,0.05332007,-2.8347702,3.1073315,0.0,0.10181911,0.0045967614,0.005227168,0.003585467,0.026151573,0.017320083,inf,inf,inf,inf,1,1,1,1,2,1,2,3,0,0,0
51140276,0,0.0,0.0,0.2022385,0.4909551,-0.03937758,0.20331125,0.49127465,-0.25526088,-0.00046683828,-0.0049542957,0.005249832,0.0035230175,0.0021388521,-0.00409127,-0.002900156,0.8136645,2.6298935,1.9337986,3.1075401,0.0,0.10220483,-0.005249832,0.005077734,0.00348821,0.025706472,0.01706882,inf,inf,inf,inf,1,1,1,1,2,1,2,3,0,0,0
51236270,0,0.0,0.0,0.20233026,0.49088573,-0.039635863,0.20331125,0.49127465,-0.25526088,0.001702559,0.0017645058,0.0015293721,-0.00018602921,0.0021388521,-0.00409127,-0.002900156,0.6032356,1.5624286,-0.14225161,3.1072843,0.0,0.10246311,-0.0015293721,0.0050662444,0.0034821404,0.025584185,0.016992971,inf,inf,inf,inf,1,1,1,1,2,1,2,3,0,0,0
51340270,0,0.0,0.0,0.20258333,0.4904909,-0.040220577,0.20331125,0.49127465,-0.25526088,0.0015280133,-0.007392098,-0.002851853,-0.0045007793,0.0021388521,-0.00409127,-0.002900156,-0.12160423,0.20642355,1.8580387,3.107522,0.0,0.10304782,0.002851853,0.005137392,0.0035300327,0.02569182,0.017054375,inf,inf,inf,inf,1,1,1,1,2,1,2,3,0,0,0
51444322,0,0.0,0.0,0.20295678,0.4906356,-0.041018795,0.20331125,0.49127465,-0.25526088,0.007964793,-0.0051885564,-0.013473958,-0.015020162,0.0021388521,-0.00409127,-0.002900156,-0.91116536,-3.2902193,-1.4343063,3.106504,0.0,0.10384604,0.013473958,0.0052443254,0.0035987264,0.026023,0.017248489,inf,inf,inf,inf,1,1,1,1,2,1,2,3,0,0,0
51540271,0,0.0,0.0,0.20359045,0.49137565,-0.042136256,0.20331125,0.49127465,-0.25526088,0.004433259,0.008119359,-0.007699297,-0.009198183,0.0021388521,-0.00409127,-0.002900156,0.98714745,1.4000468,0.8817754,3.1057787,0.0,0.1049635,0.007699297,0.0051637897,0.003547291,0.025798444,0.01711081,inf,inf,inf,inf,1,1,1,1,2,1,2,3,0,0,0
51644316,0,0.0,0.0,0.20490718,0.4922518,-0.044201184,0.20331125,0.49127465,-0.25526088,0.015384034,-0.0030052576,-0.02571354,-0.02723306,0.0021388521,-0.00409127,-0.002900156,-1.7554786,-0.5926425,2.0969198,3.103288,0.0,0.107028425,0.02571354,0.005243457,0.003598209,0.026035385,0.017249953,inf,inf,inf,inf,1,1,1,1,2,1,2,3,0,0,0
51748313,0,0.0,0.0,0.20650378,0.49343118,-0.046592794,0.20331125,0.49127465,-0.25526088,0.00279606,0.001879149,-0.011483571,-0.013114479,0.0021388521,-0.00409127,-0.002900156,-1.6518817,-2.5885537,1.7251288,3.1013284,0.0,0.10942004,0.011483571,0.0052768406,0.003620867,0.026067112,0.017275818,inf,inf,inf,inf,1,1,1,1,2,1,2,3,0,0,0
51852270,0,0.0,0.0,0.20556635,0.4942127,-0.047123443,0.20331125,0.49127465,-0.25526088,-0.005772762,-0.00847012,-0.007684265,-0.009376752,0.0021388521,-0.00409127,-0.002900156,-1.6906084,-1.0215503,-0.30405173,3.0995624,0.0,0.10995069,0.007684265,0.0053400975,0.0036609087,0.026268821,0.017390382,inf,inf,inf,inf,1,1,1,1,2,1,2,3,0,0,0
51948270,0,0.0,0.0,0.20452215,0.49370918,-0.047691416,0.20331125,0.49127465,-0.25526088,-0.008919607,-0.0035184983,-0.0023173061,-0.0035218582,0.0021388521,-0.00409127,-0.002900156,-1.4695123,1.5359408,-0.81870687,3.1008835,0.0,0.110518664,0.0023173061,0.0052667945,0.0036143644,0.026091427,0.017343689,inf,inf,inf,inf,1,1,1,1,2,1,2,3,0,0,0
52052330,0,0.0,0.0,0.20208353,0.49367562,-0.04731047,0.20331125,0.49127465,-0.25526088,-0.013443314,0.0046728514,0.0030856363,0.0026774872,0.0021388521,-0.00409127,-0.002900156,-0.97767746,0.8120285,-0.6312219,3.1000886,0.0,0.110137716,-0.0030856363,0.0050216224,0.0034571516,0.025506584,0.01700161,inf,inf,inf,inf,1,1,1,1,2,1,2,3,0,0,0
52156278,0,0.0,0.0,0.19968796,0.49266088,-0.04672636,0.20331125,0.49127465,-0.25526088,-0.011184913,-0.007075871,0.004448074,0.004763096,0.0021388521,-0.00409127,-0.002900156,-0.3519309,0.11693287,1.0519629,3.1000674,0.0,0.109553605,-0.004448074,0.005196033,0.0035706358,0.026035948,0.017326271,inf,inf,inf,inf,1,1,1,1,2,1,2,3,0,0,0
52252270,0,0.0,0.0,0.19759905,0.49189448,-0.046268735,0.20331125,0.49127465,-0.25526088,-0.018113736,-0.020228902,-0.0061371545,-0.0053572734,0.0021388521,-0.00409127,-0.002900156,-0.94402164,-5.2614183,0.08253569,3.1008384,0.0,0.109095976,0.0061371545,0.005165534,0.0035532785,0.025866563,0.017246185,inf,inf,inf,inf,1,1,1,1,2,1,2,3,0,0,0
52354718,0,0.0,0.0,0.19609636,0.49190608,-0.04596249,0.20331125,0.49127465,-0.25526088,-0.0028921992,-0.003891368,-0.012288271,-0.01132401,0.0021388521,-0.00409127,-0.002900156,-2.108638,0.5532489,-0.48474398,3.099937,0.0,0.108789735,0.012288271,0.0052492293,0.0036097448,0.026037443,0.017338583,inf,inf,inf,inf,1,1,1,1,2,1,2,3,0,0,0
52459470,0,0.0,0.0,0.19585915,0.49210614,-0.046256106,0.20331125,0.49127465,-0.25526088,-0.018113902,-0.01436284,-0.004969188,-0.0040995893,0.0021388521,-0.00409127,-0.002900156,-5.1246223,-4.2877216,-0.31467333,3.0992942,0.0,0.109083354,0.004969188,0.005065194,0.0034884578,0.025672816,0.017127743,inf,inf,inf,inf,1,1,1,1,2,1,2,3,0,0,0
52555469,0,0.0,0.0,0.19562367,0.49267,-0.046470873,0.20331125,0.49127465,-0.25526088,0.013571351,0.0015792028,0.0060810307,0.006706962,0.0021388521,-0.00409127,-0.002900156,10.434835,-2.251346,2.018266,3.0986867,0.0,0.10929812,-0.0060810307,0.005089762,0.0035027713,0.025797436,0.017183648,inf,inf,inf,inf,1,1,1,1,2,1,2,3,0,0,0
52659477,0,0.0,0.0,0.19593565,0.4929881,-0.04674142,0.20331125,0.49127465,-0.25526088,-0.0003616526,-0.017967872,-0.003042501,-0.0026407503,0.0021388521,-0.00409127,-0.002900156,2.8038285,-6.665075,-1.7433934,3.0972555,0.0,0.10956866,0.003042501,0.004988052,0.0034352262,0.02557594,0.017084114,inf,inf,inf,inf,1,1,1,1,2,1,2,3,0,0,0
52763470,0,0.0,0.0,0.19527584,0.49221686,-0.046088982,0.20331125,0.49127465,-0.25526088,-0.036724027,-0.016229568,0.00043666834,0.00071890175,0.0021388521,-0.00409127,-0.002900156,-3.3124998,2.468898,-2.8526452,3.0976503,0.0,0.10891622,-0.00043666834,0.0051663085,0.0035533346,0.02594704,0.017351428,inf,inf,inf,inf,1,1,1,1,2,1,2,3,0,0,0
52867479,0,0.0,0.0,0.19402999,0.49123195,-0.04506912,0.20331125,0.49127465,-0.25526088,0.010970586,-0.008300492,-0.0001450232,0.00023614735,0.0021388521,-0.00409127,-0.002900156,5.9745502,1.6615314,0.37745264,3.099109,0.0,0.107896365,0.0001450232,0.0052709742,0.003625603,0.026071284,0.017405003,inf,inf,inf,inf,1,1,1,1,2,1,2,3,0,0,0
53571476,0,0.0,0.0,0.19986776,0.4952947,-0.048242997,0.20331125,0.49127465,-0.25526088,0.01409365,0.015645105,-0.0043396116,-0.0052332045,0.0021388521,-0.00409127,-0.002900156,2.4940722,-2.0538168,0.06399894,3.0956821,0.0,0.111070246,0.0043396116,0.005136291,0.0035375713,0.025883451,0.017272724,inf,inf,inf,inf,1,1,1,1,2,1,2,3,0,0,0
53779470,0,0.0,0.0,0.20271596,0.49948052,-0.050152875,0.20331125,0.49127465,-0.25526088,0.0053249826,0.0054566567,-0.0013130996,-0.0026567727,0.0021388521,-0.00409127,-0.002900156,-1.344969,-1.3046727,-0.19598928,3.0888844,0.0,0.11298012,0.0013130996,0.005119046,0.0035250145,0.025770178,0.017190812,inf,inf,inf,inf,1,1,1,1,2,1,2,3,0,0,0
53875480,0,0.0,0.0,0.20302236,0.4988233,-0.050516453,0.20331125,0.49127465,-0.25526088,-0.00016437907,-0.013287753,0.0069615114,0.0055989544,0.0021388521,-0.00409127,-0.002900156,-0.4746524,1.8985096,1.114167,3.0888758,0.0,0.1133437,-0.0069615114,0.005447932,0.003740274,0.026565637,0.017707733,inf,inf,inf,inf,1,1,1,1,2,1,2,3,0,0,0
53979470,0,0.0,0.0,0.20214862,0.4980592,-0.049981553,0.20331125,0.49127465,-0.25526088,-0.022377884,-0.006372919,0.0016090007,0.0004318672,0.0021388521,-0.00409127,-0.002900156,-2.6191525,-2.4396703,2.4148762,3.0918274,0.0,0.112808794,-0.0016090007,0.005217765,0.0035923515,0.026023736,0.017422175,inf,inf,inf,inf,1,1,1,1,2,1,2,3,0,0,0
54082671,0,0.0,0.0,0.20218381,0.49769673,-0.05072047,0.20331125,0.49127465,-0.25526088,0.009231125,0.0028342765,-0.012087732,-0.012899934,0.0021388521,-0.00409127,-0.002900156,-1.0676466,1.1483612,0.51021636,3.0878081,0.0,0.11354771,0.012087732,0.005065536,0.0034957828,0.025659474,0.017215006,inf,inf,inf,inf,1,1,1,1,2,1,2,3,0,0,0
54182670,0,0.0,0.0,0.20246118,0.49752763,-0.05187525,0.20331125,0.49127465,-0.25526088,0.009865432,0.002707672,-0.013244674,-0.014019961,0.0021388521,-0.00409127,-0.002900156,0.35840368,-0.5880534,-0.31080887,3.0864542,0.0,0.11470249,0.013244674,0.0051754634,0.003569707,0.025877845,0.017294014,inf,inf,inf,inf,1,1,1,1,2,1,2,3,0,0,0
54286714,0,0.0,0.0,0.20282516,0.49787945,-0.052437857,0.20331125,0.49127465,-0.25526088,-0.003245083,0.0035185828,0.004266469,0.0031609237,0.0021388521,-0.00409127,-0.002900156,1.9014822,0.6654334,-0.32362723,3.083788,0.0,0.1152651,-0.004266469,0.0053059068,0.0036519098,0.026227074,0.017508425,inf,inf,inf,inf,1,1,1,1,2,1,2,3,0,0,0
54382670,0,0.0,0.0,0.20195957,0.49884263,-0.051731125,0.20331125,0.49127465,-0.25526088,-0.0038572652,0.0039468417,0.014076491,0.012828216,0.0021388521,-0.00409127,-0.002900156,3.27367,-1.8538265,-0.8138023,3.079504,0.0,0.11455837,-0.014076491,0.0052705384,0.0036281787,0.026092734,0.017428396,inf,inf,inf,inf,1,1,1,1,2,1,2,3,0,0,0
54486670,0,0.0,0.0,0.20066385,0.49939772,-0.051107097,0.20331125,0.49127465,-0.25526088,0.00061965303,-0.004625793,0.00513043,0.00423181,0.0021388521,-0.00409127,-0.002900156,-0.42547795,-3.3287313,-0.60205007,3.0807946,0.0,0.11393434,-0.00513043,0.005040725,0.0034792058,0.02548975,0.017106598,inf,inf,inf,inf,1,1,1,1,2,1,2,3,0,0,0
54590670,0,0.0,0.0,0.20071445,0.49930903,-0.051972415,0.20331125,0.49127465,-0.25526088,0.0118732825,-0.0011186779,-0.02445328,-0.024891164,0.0021388521,-0.00409127,-0.002900156,-0.5131817,-3.5050263,-2.0241373,3.0815713,0.0,0.11479966,0.02445328,0.005421668,0.0037327656,0.02636575,0.01763497,inf,inf,inf,inf,1,1,1,1,2,1,2,3,0,0,0
54694673,0,0.0,0.0,0.20301013,0.5001855,-0.053550623,0.20331125,0.49127465,-0.25526088,0.027834477,0.018459508,-0.012727644,-0.013292867,0.0021388521,-0.00409127,-0.002900156,-0.11603376,1.4073215,-2.4394083,3.0811024,0.0,0.11637787,0.012727644,0.0054502063,0.0037517047,0.026494505,0.017699666,inf,inf,inf,inf,1,1,1,1,2,1,2,3,0,0,0
54798669,0,0.0,0.0,0.2087679,0.50251955,-0.053523544,0.20331125,0.49127465,-0.25526088,0.060615666,0.023146098,0.008862796,0.007710208,0.0021388521,-0.00409127,-0.002900156,1.6917876,-0.70734185,1.7423894,3.0709734,0.0,0.116350785,-0.008862796,0.005180257,0.0035706882,0.025960388,0.017298697,inf,inf,inf,inf,1,1,1,1,2,1,2,3,0,0,0
54902676,0,0.0,0.0,0.21772952,0.507067,-0.054214824,0.20331125,0.49127465,-0.25526088,0.07937891,0.03651683,-0.0010682134,-0.0023827194,0.0021388521,-0.00409127,-0.002900156,-0.20422433,-1.7300767,0.71796536,3.057339,0.0,0.117042065,0.0010682134,0.0053541344,0.003679549,0.026442803,0.017587855,inf,inf,inf,inf,1,1,1,1,2,1,2,3,0,0,0
54998707,0,0.0,0.0,0.229279,0.5130831,-0.054086942,0.20331125,0.49127465,-0.25526088,0.11837499,0.054339737,0.0068198736,0.00563234,0.0021388521,-0.00409127,-0.002900156,0.26517317,-1.4672472,-0.6442542,3.04318,0.0,0.11691418,-0.0068198736,0.0053191087,0.003654961,0.02629593,0.017462423,inf,inf,inf,inf,1,1,1,1,2,1,2,3,0,0,0
55102670,0,0.0,0.0,0.24552822,0.52117735,-0.05317197,0.20331125,0.49127465,-0.25526088,0.14744885,0.06597564,-0.002991226,-0.003965672,0.0021388521,-0.00409127,-0.002900156,0.754837,0.40288743,-1.6077404,3.0261438,0.0,0.115999214,0.002991226,0.005401263,0.0037059465,0.026462035,0.0175225,inf,inf,inf,inf,1,1,1,1,2,1,2,3,0,0,0
55206695,0,0.0,0.0,0.26332,0.5300814,-0.053472925,0.20331125,0.49127465,-0.25526088,0.14926527,0.06157802,-0.004094877,-0.004772453,0.0021388521,-0.00409127,-0.002900156,1.0664667,2.1635296,-1.0617704,3.0078292,0.0,0.116300166,0.004094877,0.00510404,0.0035104787,0.025715116,0.017046066,inf,inf,inf,inf,1,1,1,1,2,1,2,3,0,0,0
55310670,0,0.0,0.0,0.2836001,0.5382123,-0.0532843,0.20331125,0.49127465,-0.25526088,0.18674122,0.05626309,0.013115942,0.012413174,0.0021388521,-0.00409127,-0.002900156,3.2635639,-1.2646868,1.9515024,2.9909449,0.0,0.11611155,-0.013115942,0.0051868483,0.0035606397,0.026034584,0.017173292,inf,inf,inf,inf,1,1,1,1,2,1,2,3,0,0,0
55414669,0,0.0,0.0,0.30568987,0.5453222,-0.05209899,0.20331125,0.49127465,-0.25526088,0.20461315,0.04601499,0.01227952,0.011372529,0.0021388521,-0.00409127,-0.002900156,-0.26450926,-0.76845,-1.111738,2.9758902,0.0,0.114926234,-0.01227952,0.005279266,0.0036156839,0.02640749,0.017323991,inf,inf,inf,inf,1,1,1,1,2,1,2,3,0,0,0
55510728,0,0.0,0.0,0.32662657,0.54939663,-0.05194176,0.20331125,0.49127465,-0.25526088,0.18441787,0.017480621,-0.003051676,-0.003948557,0.0021388521,-0.00409127,-0.002900156,1.2422125,-2.2035215,1.0587959,2.9621027,0.0,0.114769004,0.003051676,0.0051948125,0.0035564261,0.026263738,0.017144538,inf,inf,inf,inf,1,1,1,1,2,1,2,3,0,0,0
55614670,0,0.0,0.0,0.34459215,0.54829395,-0.054240268,0.20331125,0.49127465,-0.25526088,0.14040841,-0.037602298,-0.02270244,-0.023654232,0.0021388521,-0.00409127,-0.002900156,0.79938406,-3.3601341,2.8502166,2.9418776,0.0,0.117067516,0.02270244,0.005257873,0.0035888432,0.026572173,0.01721251,inf,inf,inf,inf,1,1,1,1,2,1,2,3,0,0,0
55718739,0,0.0,0.0,0.35721013,0.54163265,-0.056990482,0.20331125,0.49127465,-0.25526088,0.119867675,-0.06589484,-0.012757932,-0.014441205,0.0021388521,-0.00409127,-0.002900156,1.5183829,-3.2415202,0.98592806,2.922593,0.0,0.11981773,0.012757932,0.005368903,0.0036480392,0.027139612,0.01746862,inf,inf,inf,inf,1,1,1,1,2,1,2,3,0,0,0
55814682,0,0.0,0.0,0.3654614,0.5311792,-0.058838017,0.20331125,0.49127465,-0.25526088,0.110660106,-0.09536649,0.0005028543,-0.0020655978,0.0021388521,-0.00409127,-0.002900156,3.4639795,0.49556333,1.5763813,2.9208179,0.0,0.12166526,-0.0005028543,0.005329355,0.0036152666,0.027173925,0.017436557,inf,inf,inf,inf,1,1,1,1,2,1,2,3,0,0,0
55917870,0,0.0,0.0,0.3710701,0.5168787,-0.06040613,0.20331125,0.49127465,-0.25526088,0.08604224,-0.11471706,-0.005011625,-0.007924733,0.0021388521,-0.00409127,-0.002900156,3.2137299,0.31628743,1.1207736,2.9342341,0.0,0.12323338,0.005011625,0.005428248,0.0036677434,0.027576594,0.017491017,inf,inf,inf,inf,1,1,1,1,2,1,2,3,0,0,0
56021913,0,0.0,0.0,0.3747916,0.50093967,-0.06190467,0.20331125,0.49127465,-0.25526088,0.05540765,-0.12597337,-0.010958667,-0.013603138,0.0021388521,-0.00409127,-0.002900156,-2.51802,-0.53100187,0.05450775,2.9626908,0.0,0.12473191,0.010958667,0.005487157,0.0036922146,0.027775344,0.017482433,inf,inf,inf,inf,1,1,1,1,2,1,2,3,0,0,0
56125870,0,0.0,0.0,0.37639982,0.48525172,-0.063809775,0.20331125,0.49127465,-0.25526088,0.03213118,-0.118694484,-0.023375295,-0.025699256,0.0021388521,-0.00409127,-0.002900156,-1.8580354,2.218802,-1.5699929,3.0037394,0.0,0.12663701,0.023375295,0.0056078,0.003754953,0.028069016,0.017653529,inf,inf,inf,inf,1,1,1,1,2,1,2,3,0,0,0
56221877,0,0.0,0.0,0.37582552,0.47370964,-0.06547972,0.20331125,0.49127465,-0.25526088,-0.0030144947,-0.100602284,-0.0140558155,-0.016339382,0.0021388521,-0.00409127,-0.002900156,-4.0115995,1.4465686,0.8795687,3.0441,0.0,0.12830696,0.0140558155,0.0054701464,0.003673281,0.02735912,0.017408721,inf,inf,inf,inf,1,1,1,1,2,1,2,3,0,0,0
56325880,0,0.0,0.0,0.3733134,0.4643853,-0.06791123,0.20331125,0.49127465,-0.25526088,-0.013165532,-0.080450125,-0.015250995,-0.017700393,0.0021388521,-0.00409127,-0.002900156,2.381472,-3.105304,-0.10499427,3.0847514,0.0,0.13073847,0.015250995,0.0055399947,0.0037264691,0.02718466,0.017552735,inf,inf,inf,inf,1,1,1,1,2,1,2,3,0,0,0
56429869,0,0.0,0.0,0.36842468,0.45959246,-0.0704862,0.20331125,0.49127465,-0.25526088,-0.055844817,-0.04718987,-0.025327709,-0.027993336,0.0021388521,-0.00409127,-0.002900156,-4.381365,-2.1947682,-1.3197954,3.1161182,0.0,0.13331345,0.025327709,0.0051951017,0.003533363,0.02595943,0.017113341,inf,inf,inf,inf,1,1,1,1,2,1,2,3,0,0,0
56533889,0,0.0,0.0,0.35987136,0.4594468,-0.07233749,0.20331125,0.49127465,-0.25526088,-0.08107533,-1.1451775e-06,-0.0063072373,-0.009105343,0.0021388521,-0.00409127,-0.002900156,-1.3862975,-0.9942177,1.1890086,3.139879,0.0,0.13516474,0.0063072373,0.005251566,0.0035892378,0.025991935,0.017256238,inf,inf,inf,inf,1,1,1,1,2,1,2,3,0,0,0
56629918,0,0.0,0.0,0.3489106,0.46441147,-0.073422156,0.20331125,0.49127465,-0.25526088,-0.10300951,0.035375264,-0.010348671,-0.012960351,0.0021388521,-0.00409127,-0.002900156,1.2542055,-1.4085983,-0.27356827,-3.128909,0.0,0.1362494,0.010348671,0.0051743556,0.0035523144,0.02590729,0.017161103,inf,inf,inf,inf,1,1,1,1,2,1,2,3,0,0,0
56733870,0,0.0,0.0,0.3343232,0.47508064,-0.07439581,0.20331125,0.49127465,-0.25526088,-0.12642841,0.07594286,-0.019605905,-0.021690302,0.0021388521,-0.00409127,-0.002900156,-1.7411534,-3.596255,-2.2806685,-3.1229115,0.0,0.13722306,0.019605905,0.005211515,0.0035800575,0.026174208,0.017188663,inf,inf,inf,inf,1,1,1,1,2,1,2,3,0,0,0
56837869,0,0.0,0.0,0.31710824,0.49135527,-0.07479934,0.20331125,0.49127465,-0.25526088,-0.16050933,0.14283355,0.0037085188,0.0021928418,0.0021388521,-0.00409127,-0.002900156,-1.0800151,2.4822676,2.509981,-3.1209824,0.0,0.13762659,-0.0037085188,0.005323312,0.0036424685,0.02679225,0.017375346,inf,inf,inf,inf,1,1,1,1,2,1,2,3,0,0,0
56933869,0,0.0,0.0,0.29869166,0.5112421,-0.073852904,0.20331125,0.49127465,-0.25526088,-0.17869577,0.16674267,0.008995409,0.007965961,0.0021388521,-0.00409127,-0.002900156,0.3349435,-3.2047832,0.030112388,-3.1248188,0.0,0.13668016,-0.008995409,0.005273436,0.0035976444,0.02682912,0.017279577,inf,inf,inf,inf,1,1,1,1,2,1,2,3,0,0,0
57037893,0,0.0,0.0,0.27642652,0.5368754,-0.07188661,0.20331125,0.49127465,-0.25526088,-0.20604776,0.22201028,0.010825535,0.010500046,0.0021388521,-0.00409127,-0.002900156,-1.9192394,4.101984,-0.8956307,-3.1364286,0.0,0.13471386,-0.010825535,0.0053678122,0.0036439793,0.027116533,0.017367661,inf,inf,inf,inf,1,1,1,1,2,1,2,3,0,0,0
57141870,0,0.0,0.0,0.2518263,0.5655233,-0.07031817,0.20331125,0.49127465,-0.25526088,-0.2242602,0.2299438,0.005663641,0.006083724,0.0021388521,-0.00409127,-0.002900156,0.41714722,-1.1147321,-0.75393647,3.1299052,0.0,0.13314542,-0.005663641,0.005442568,0.0036826301,0.027222889,0.017439391,inf,inf,inf,inf,1,1,1,1,2,1,2,3,0,0,0
57245870,0,0.0,0.0,0.22535688,0.59560025,-0.069807015,0.20331125,0.49127465,-0.25526088,-0.24484752,0.2586567,-0.0035440477,-0.0027370492,0.0021388521,-0.00409127,-0.002900156,0.9642796,1.5166441,-0.17687218,3.11114,0.0,0.13263425,0.0035440477,0.0055108424,0.0037228775,0.027294727,0.017556563,inf,inf,inf,inf,1,1,1,1,2,1,2,3,0,0,0
57341876,0,0.0,0.0,0.19966947,0.6233979,-0.06986591,0.20331125,0.49127465,-0.25526088,-0.25720483,0.2692602,-0.00482708,-0.0041829892,0.0021388521,-0.00409127,-0.002900156,2.3562758,1.1884857,-1.3140609,3.0926216,0.0,0.13269316,0.00482708,0.005428516,0.003675483,0.026931403,0.01746005,inf,inf,inf,inf,1,1,1,1,2,1,2,3,0,0,0
57445908,0,0.0,0.0,0.1711654,0.6510226,-0.07029264,0.20331125,0.49127465,-0.25526088,-0.2646756,0.25868618,0.004023304,0.0041530216,0.0021388521,-0.00409127,-0.002900156,0.7527841,-0.98960346,1.0969325,3.0712082,0.0,0.13311988,-0.004023304,0.005131862,0.003497392,0.025982434,0.017055642,inf,inf,inf,inf,1,1,1,1,2,1,2,3,0,0,0
57549909,0,0.0,0.0,0.14282063,0.67529005,-0.069687866,0.20331125,0.49127465,-0.25526088,-0.26433882,0.23141533,0.011845438,0.0115490975,0.0021388521,-0.00409127,-0.002900156,-1.7036787,0.050697356,-0.45321083,3.0496721,0.0,0.1325151,-0.011845438,0.005209136,0.003556411,0.02604439,0.017192489,inf,inf,inf,inf,1,1,1,1,2,1,2,3,0,0,0
57645876,0,0.0,0.0,0.11739742,0.69331175,-0.06773881,0.20331125,0.49127465,-0.25526088,-0.24300285,0.20192878,0.01921778,0.019013638,0.0021388521,-0.00409127,-0.002900156,2.778466,0.29598463,-1.5910994,3.0322185,0.0,0.13056606,-0.01921778,0.0054907836,0.003746506,0.02664463,0.017618325,inf,inf,inf,inf,1,1,1,1,2,1,2,3,0,0,0
57749878,0,0.0,0.0,0.09311026,0.70720875,-0.06524092,0.20331125,0.49127465,-0.25526088,-0.21125296,0.13313395,0.01846322,0.019004803,0.0021388521,-0.00409127,-0.002900156,2.062337,-2.309451,0.785559,3.01414,0.0,0.12806816,-0.01846322,0.0051417495,0.0035319289,0.02567729,0.017075134,inf,inf,inf,inf,1,1,1,1,2,1,2,3,0,0,0
57853886,0,0.0,0.0,0.07422077,0.7136099,-0.062705845,0.20331125,0.49127465,-0.25526088,-0.16783495,0.08369755,0.011799664,0.013238699,0.0021388521,-0.00409127,-0.002900156,-1.3033185,0.33554417,0.24584071,2.99761,0.0,0.12553309,-0.011799664,0.0052300207,0.0035918981,0.026037382,0.017277453,inf,inf,inf,inf,1,1,1,1,2,1,2,3,0,0,0
57953105,0,0.0,0.0,0.061772455,0.7134129,-0.060171958,0.20331125,0.49127465,-0.25526088,-0.1357367,0.022253921,0.015419355,0.017373739,0.0021388521,-0.00409127,-0.002900156,-1.1481911,2.5005953,-0.849743,2.983543,0.0,0.122999206,-0.015419355,0.0051721525,0.003554582,0.025947249,0.017174762,inf,inf,inf,inf,1,1,1,1,2,1,2,3,0,0,0
58057070,0,0.0,0.0,0.054333065,0.70459837,-0.05738926,0.20331125,0.49127465,-0.25526088,-0.11229413,-0.053056106,0.015929323,0.018052794,0.0021388521,-0.00409127,-0.002900156,-4.7655225,1.5610853,-0.6996899,2.9711645,0.0,0.120216504,-0.015929323,0.005313925,0.0036434033,0.02653489,0.017476784,inf,inf,inf,inf,1,1,1,1,2,1,2,3,0,0,0
58153070,0,0.0,0.0,0.05384055,0.6886979,-0.05723559,0.20331125,0.49127465,-0.25526088,-0.022855332,-0.11149046,-0.027573172,-0.025425969,0.0021388521,-0.00409127,-0.002900156,3.1634307,0.023698369,-0.888215,2.9628258,0.0,0.120062836,0.027573172,0.0052245404,0.0035819118,0.026317634,0.017278546,inf,inf,inf,inf,1,1,1,1,2,1,2,3,0,0,0
58257072,0,0.0,0.0,0.060932353,0.6655621,-0.060866207,0.20331125,0.49127465,-0.25526088,0.018506864,-0.13931331,-0.034201436,-0.032532826,0.0021388521,-0.00409127,-0.002900156,-0.66550994,1.6348376,0.32932594,2.9604428,0.0,0.12369345,0.034201436,0.005318157,0.0036353704,0.02667533,0.017406592,inf,inf,inf,inf,1,1,1,1,2,1,2,3,0,0,0
58361089,0,0.0,0.0,0.0733933,0.63806045,-0.06445317,0.20331125,0.49127465,-0.25526088,0.042911228,-0.19904561,-0.029789686,-0.029532747,0.0021388521,-0.00409127,-0.002900156,-1.98682,-3.084941,0.41968155,2.9687748,0.0,0.12728041,0.029789686,0.0053803786,0.0036669339,0.026901321,0.017445808,inf,inf,inf,inf,1,1,1,1,2,1,2,3,0,0,0
58457071,0,0.0,0.0,0.08779778,0.6098948,-0.06701467,0.20331125,0.49127465,-0.25526088,0.07483433,-0.23218155,-0.0124111865,-0.013329883,0.0021388521,-0.00409127,-0.002900156,-2.4087882,-0.3097589,-1.1736511,2.9810772,0.0,0.12984192,0.0124111865,0.005300688,0.0036102606,0.026650466,0.017304178,inf,inf,inf,inf,1,1,1,1,2,1,2,3,0,0,0
58561070,0,0.0,0.0,0.10542957,0.57861555,-0.06877299,0.20331125,0.49127465,-0.25526088,0.09731101,-0.23816423,-0.005149775,-0.006305369,0.0021388521,-0.00409127,-0.002900156,-2.189921,-2.2286682,1.7605886,3.001588,0.0,0.13160023,0.005149775,0.005395604,0.0036668542,0.02682786,0.017420674,inf,inf,inf,inf,1,1,1,1,2,1,2,3,0,0,0
58665076,0,0.0,0.0,0.12358365,0.5480117,-0.06845441,0.20331125,0.49127465,-0.25526088,0.12694362,-0.24250372,0.0044561815,0.0041434467,0.0021388521,-0.00409127,-0.002900156,2.1209555,-0.00095844775,-1.0786803,3.027166,0.0,0.13128164,-0.0044561815,0.005488068,0.003726397,0.02696605,0.017570047,inf,inf,inf,inf,1,1,1,1,2,1,2,3,0,0,0
58761070,0,0.0,0.0,0.13975078,0.52216566,-0.06608167,0.20331125,0.49127465,-0.25526088,0.12560911,-0.23141311,0.012985794,0.013948518,0.0021388521,-0.00409127,-0.002900156,-1.6520877,0.8930226,0.5129004,3.0504327,0.0,0.12890892,-0.012985794,0.005385603,0.0036675015,0.026541293,0.017419297,inf,inf,inf,inf,1,1,1,1,2,1,2,3,0,0,0
58865072,0,0.0,0.0,0.15623342,0.49879664,-0.065106384,0.20331125,0.49127465,-0.25526088,0.13722675,-0.20295922,-0.026811896,-0.024284612,0.0021388521,-0.00409127,-0.002900156,0.66882366,1.6302568,-0.87102985,3.069333,0.0,0.12793362,0.026811896,0.0054661417,0.0037261145,0.026646791,0.01756366,inf,inf,inf,inf,1,1,1,1,2,1,2,3,0,0,0
58969084,0,0.0,0.0,0.16986053,0.48143288,-0.0675238,0.20331125,0.49127465,-0.25526088,0.12641464,-0.1833121,-0.054884456,-0.051659092,0.0021388521,-0.00409127,-0.002900156,1.9279022,-0.40394548,-1.6284481,3.0885813,0.0,0.13035104,0.054884456,0.0055140117,0.0037658548,0.026697421,0.01764404,inf,inf,inf,inf,1,1,1,1,2,1,2,3,0,0,0
59073073,0,0.0,0.0,0.18022192,0.4691738,-0.075490676,0.20331125,0.49127465,-0.25526088,0.11354259,-0.16080777,-0.10306633,-0.10082993,0.0021388521,-0.00409127,-0.002900156,-2.2264,-0.6291928,-0.93421143,3.1063523,0.0,0.13831791,0.10306633,0.0051989816,0.003568656,0.025948692,0.01719743,inf,inf,inf,inf,1,1,1,1,2,1,2,3,0,0,0
59177069,0,0.0,0.0,0.18776605,0.46252275,-0.0898949,0.20331125,0.49127465,-0.25526088,0.099953204,-0.11550336,-0.14879452,-0.14907551,0.0021388521,-0.00409127,-0.002900156,-4.8150587,0.24187276,-1.1287605,3.1269467,0.0,0.15272215,0.14879452,0.0052896836,0.0036275473,0.02629496,0.017334845,inf,inf,inf,inf,1,1,1,1,2,1,2,3,0,0,0
59273090,0,0.0,0.0,0.19289774,0.46064198,-0.10891188,0.20331125,0.49127465,-0.25526088,0.09851347,-0.08639503,-0.18264851,-0.18607639,0.0021388521,-0.00409127,-0.002900156,0.99099433,0.7181805,-0.944923,-3.1415536,0.0,0.17173913,0.18264851,0.005204801,0.0035697978,0.02614867,0.017168842,inf,inf,inf,inf,1,1,1,1,2,1,2,3,0,0,0
59377083,0,0.0,0.0,0.19711536,0.46199256,-0.13431428,0.20331125,0.49127465,-0.25526088,0.088900656,-0.06219757,-0.22241528,-0.2292997,0.0021388521,-0.00409127,-0.002900156,0.124625534,-3.729901,-1.7009778,-3.1309612,0.0,0.19714153,0.22241528,0.005268676,0.00360519,0.026433839,0.017246153,inf,inf,inf,inf,1,1,1,1,2,1,2,3,0,0,0
59481120,0,0.0,0.0,0.20099749,0.46589175,-0.16297571,0.20331125,0.49127465,-0.25526088,0.08851903,-0.026027827,-0.23621492,-0.24572906,0.0021388521,-0.00409127,-0.002900156,0.5017496,2.2338963,0.87444824,-3.1225061,0.0,0.22580296,0.23621492,0.005358906,0.0036539787,0.026808545,0.017384907,inf,inf,inf,inf,1,1,1,1,2,1,2,3,0,0,0
59576311,0,0.0,0.0,0.2046349,0.47032398,-0.18990554,0.20331125,0.49127465,-0.25526088,0.085514754,-0.020146778,-0.2376513,-0.24834691,0.0021388521,-0.00409127,-0.002900156,4.050953,2.155719,2.2661178,-3.1185076,0.0,0.25273278,0.2376513,0.005286608,0.0036013185,0.026662922,0.017266704,inf,inf,inf,inf,1,1,1,1,2,1,2,3,0,0,0
59680270,0,0.0,0.0,0.20959277,0.47410557,-0.21673287,0.20331125,0.49127465,-0.25526088,0.10037861,-0.015641218,-0.22336552,-0.23364933,0.0021388521,-0.00409127,-0.002900156,0.7418373,0.85953146,-0.18240207,-3.1137745,0.0,0.27956012,0.22336552,0.005379438,0.0036539375,0.026932988,0.017396932,inf,inf,inf,inf,1,1,1,1,2,1,2,3,0,0,0
59783518,0,0.0,0.0,0.21611695,0.4761747,-0.23804429,0.20331125,0.49127465,-0.25526088,0.12267959,-0.023383055,-0.17282717,-0.18076135,0.0021388521,-0.00409127,-0.002900156,3.9899125,0.6682524,0.08528374,-3.1123335,0.0,0.30087155,0.17282717,0.005447439,0.00369283,0.02705915,0.017453581,inf,inf,inf,inf,1,1,1,1,2,1,2,3,0,0,0
59888270,0,0.0,0.0,0.22361898,0.47464728,-0.25137258,0.20331125,0.49127465,-0.25526088,0.13895682,-0.040457893,-0.116369136,-0.12006732,0.0021388521,-0.00409127,-0.002900156,6.3403974,-1.1038721,0.47812828,-3.1129463,0.0,0.3141998,0.116369136,0.0051645674,0.0035150943,0.026278062,0.017048502,inf,inf,inf,inf,1,1,1,1,2,1,2,3,0,0,0
59992287,0,0.0,0.0,0.23299778,0.4702547,-0.25552383,0.20331125,0.49127465,-0.25526088,0.14257117,-0.048120264,-0.06367689,-0.061597127,0.0021388521,-0.00409127,-0.002900156,-0.5163181,0.14698996,-0.43825507,-3.1150138,0.0,0.3183511,0.06367689,0.0052558687,0.003572722,0.026504727,0.017195294,inf,inf,inf,inf,1,1,1,1,2,1,2,3,0,0,0
60088316,0,0.0,0.0,0.24411777,0.4629629,-0.25185308,0.20331125,0.49127465,-0.25526088,0.14158215,-0.058497,-0.012480845,-0.004381483,0.0021388521,-0.00409127,-0.002900156,-4.428643,2.7789679,0.30757037,-3.1185806,0.0,0.31468034,0.012480845,0.005174688,0.0035234445,0.026223518,0.017062593,inf,inf,inf,inf,1,1,1,1,2,1,2,3,0,0,0
60192270,0,0.0,0.0,0.26024333,0.45193213,-0.2412418,0.20331125,0.49127465,-0.25526088,0.18272339,-0.093890734,0.03221326,0.046633787,0.0021388521,-0.00409127,-0.002900156,3.8781173,-3.3275063,-0.37784058,-3.124223,0.0,0.30406904,-0.03221326,0.0052372357,0.0035651764,0.026334453,0.017162016,inf,inf,inf,inf,1,1,1,1,2,1,2,3,0,0,0
60296270,0,0.0,0.0,0.28158414,0.4373604,-0.22585045,0.20331125,0.49127465,-0.25526088,0.21369503,-0.09828074,0.07499791,0.0945185,0.0021388521,-0.00409127,-0.002900156,1.6703627,-0.32497305,0.040635973,-3.1274233,0.0,0.2886777,-0.07499791,0.0053122197,0.0036148846,0.026491866,0.017291566,inf,inf,inf,inf,1,1,1,1,2,1,2,3,0,0,0
60392270,0,0.0,0.0,0.30552888,0.42224517,-0.20899147,0.20331125,0.49127465,-0.25526088,0.22266798,-0.112679265,0.10219084,0.124654114,0.0021388521,-0.00409127,-0.002900156,1.4397765,0.30931363,0.35206878,-3.1284645,0.0,0.2718187,-0.10219084,0.005224344,0.0035630257,0.026181042,0.01715599,inf,inf,inf,inf,1,1,1,1,2,1,2,3,0,0,0
60496270,0,0.0,0.0,0.33430272,0.4054701,-0.18972833,0.20331125,0.49127465,-0.25526088,0.24643265,-0.1243891,0.12993576,0.15354687,0.0021388521,-0.00409127,-0.002900156,5.4903183,-2.7924936,1.8741518,-3.1269472,0.0,0.25255558,-0.12993576,0.0052986424,0.003613812,0.026337879,0.017286262,inf,inf,inf,inf,1,1,1,1,2,1,2,3,0,0,0
60600269,0,0.0,0.0,0.3650846,0.38920662,-0.17143984,0.20331125,0.49127465,-0.25526088,0.26098257,-0.11957291,0.12770493,0.1504837,0.0021388521,-0.00409127,-0.002900156,-0.13602953,-0.81986564,1.2783672,-3.1223712,0.0,0.23426709,-0.12770493,0.0053433613,0.0036471111,0.02637612,0.017343871,inf,inf,inf,inf,1,1,1,1,2,1,2,3,0,0,0
60696270,0,0.0,0.0,0.39417386,0.37582308,-0.15635368,0.20331125,0.49127465,-0.25526088,0.26071554,-0.12904687,0.12457295,0.14503397,0.0021388521,-0.00409127,-0.002900156,-5.7552633,-3.5245852,0.12595773,-3.1186438,0.0,0.21918093,-0.12457295,0.00526325,0.0035984518,0.026196666,0.017250542,inf,inf,inf,inf,1,1,1,1,2,1,2,3,0,0,0
60800296,0,0.0,0.0,0.42601365,0.36304697,-0.14268085,0.20331125,0.49127465,-0.25526088,0.27434465,-0.11387374,0.11981714,0.13667054,0.0021388521,-0.00409127,-0.002900156,-0.9183112,-2.234576,0.12994817,-3.1122663,0.0,0.2055081,-0.11981714,0.005357736,0.0036603361,0.026457319,0.017402228,inf,inf,inf,inf,1,1,1,1,2,1,2,3,0,0,0
60904308,0,0.0,0.0,0.45728335,0.35330278,-0.13432659,0.20331125,0.49127465,-0.25526088,0.2820618,-0.095927596,0.06446234,0.076948434,0.0021388521,-0.00409127,-0.002900156,-3.453656,-0.44146347,-0.5453403,-3.1025329,0.0,0.19715384,-0.06446234,0.005439567,0.0037131952,0.026685253,0.017519947,inf,inf,inf,inf,1,1,1,1,2,1,2,3,0,0,0
61008290,0,0.0,0.0,0.48716652,0.34569648,-0.13381837,0.20331125,0.49127465,-0.25526088,0.29259294,-0.08191369,-0.009120683,-0.0016761387,0.0021388521,-0.00409127,-0.002900156,-0.8459933,-3.1705573,-4.222527,-3.091954,0.0,0.19664562,0.009120683,0.0055180257,0.0037626505,0.02693385,0.017642956,inf,inf,inf,inf,1,1,1,1,2,1,2,3,0,0,0
61104279,0,0.0,0.0,0.51353246,0.34158695,-0.14173232,0.20331125,0.49127465,-0.25526088,0.29138172,-0.05354647,-0.05172592,-0.04979904,0.0021388521,-0.00409127,-0.002900156,3.3364806,-1.7917364,-0.3185894,-3.08335,0.0,0.20455956,0.05172592,0.005432108,0.0037058168,0.026790071,0.017510867,inf,inf,inf,inf,1,1,1,1,2,1,2,3,0,0,0
61208283,0,0.0,0.0,0.54117966,0.33927345,-0.1583582,0.20331125,0.49127465,-0.25526088,0.2894364,-0.02645537,-0.119429454,-0.124163404,0.0021388521,-0.00409127,-0.002900156,1.2822735,2.3442829,0.06582799,-3.076116,0.0,0.22118545,0.119429454,0.005518978,0.0037560337,0.027140422,0.017623195,inf,inf,inf,inf,1,1,1,1,2,1,2,3,0,0,0
61312292,0,0.0,0.0,0.5684665,0.33969876,-0.1829309,0.20331125,0.49127465,-0.25526088,0.3010798,0.0013152373,-0.17724296,-0.18845297,0.0021388521,-0.00409127,-0.002900156,1.6942552,1.571482,-1.2715622,-3.0739658,0.0,0.24575815,0.17724296,0.005266489,0.0035887505,0.026600832,0.017288791,inf,inf,inf,inf,1,1,1,1,2,1,2,3,0,0,0
61408276,0,0.0,0.0,0.59404147,0.34213695,-0.21054526,0.20331125,0.49127465,-0.25526088,0.3025103,0.023593543,-0.20823498,-0.22433874,0.0021388521,-0.00409127,-0.002900156,1.6027238,0.82927465,-1.5220519,-3.0729468,0.0,0.2733725,0.20823498,0.0052688858,0.0035849903,0.026647665,0.017285302,inf,inf,inf,inf,1,1,1,1,2,1,2,3,0,0,0
61512270,0,0.0,0.0,0.6218538,0.3481689,-0.24188519,0.20331125,0.49127465,-0.25526088,0.31897756,0.069274224,-0.22517891,-0.24470901,0.0021388521,-0.00409127,-0.002900156,6.376259,3.826559,-0.25333375,-3.0750751,0.0,0.3047124,0.22517891,0.005377688,0.0036518322,0.026882721,0.01740134,inf,inf,inf,inf,1,1,1,1,2,1,2,3,0,0,0
61616270,0,0.0,0.0,0.6505607,0.3573284,-0.27317333,0.20331125,0.49127465,-0.25526088,0.3074284,0.082371175,-0.24767879,-0.268101,0.0021388521,-0.00409127,-0.002900156,-2.293286,-1.8290124,-1.7952346,-3.0792434,0.0,0.33600056,0.24767879,0.005471286,0.003711866,0.026959974,0.017535117,inf,inf,inf,inf,1,1,1,1,2,1,2,3,0,0,0
61711470,0,0.0,0.0,0.6765533,0.3681916,-0.30077812,0.20331125,0.49127465,-0.25526088,0.28967378,0.11427351,-0.2488748,-0.2679452,0.0021388521,-0.00409127,-0.002900156,-1.7355437,-0.23065439,-0.59512913,-3.0846047,0.0,0.36360538,0.2488748,0.0053694844,0.0036520495,0.026587259,0.017360322,inf,inf,inf,inf,1,1,1,1,2,1,2,3,0,0,0
61815503,0,0.0,0.0,0.7038716,0.38324273,-0.3273415,0.20331125,0.49127465,-0.25526088,0.26775545,0.14769392,-0.23494212,-0.25087392,0.0021388521,-0.00409127,-0.002900156,-1.3206167,1.63277,-0.92990744,-3.0943623,0.0,0.39016873,0.23494212,0.0054657143,0.003717115,0.026845638,0.017554138,inf,inf,inf,inf,1,1,1,1,2,1,2,3,0,0,0
61919476,0,0.0,0.0,0.7297698,0.40082818,-0.35091537,0.20331125,0.49127465,-0.25526088,0.24741419,0.16792738,-0.2289435,-0.24052437,0.0021388521,-0.00409127,-0.002900156,2.6182969,2.2308395,1.7792656,-3.104774,0.0,0.4137426,0.2289435,0.0051578083,0.0035264473,0.025951818,0.017100645,inf,inf,inf,inf,1,1,1,1,2,1,2,3,0,0,0
62023480,0,0.0,0.0,0.7537029,0.42039096,-0.37153223,0.20331125,0.49127465,-0.25526088,0.21541503,0.17285545,-0.21548474,-0.22224689,0.0021388521,-0.00409127,-0.002900156,-0.5349307,-3.424039,0.48260576,-3.1145105,0.0,0.4343595,0.21548474,0.00523521,0.003580042,0.026123248,0.017229065,inf,inf,inf,inf,1,1,1,1,2,1,2,3,0,0,0
62119480,0,0.0,0.0,0.77233475,0.43826318,-0.38686407,0.20331125,0.49127465,-0.25526088,0.17506841,0.17824301,-0.1791515,-0.18174294,0.0021388521,-0.00409127,-0.002900156,3.8451812,3.3878913,0.9986729,-3.1218548,0.0,0.4496913,0.1791515,0.005162704,0.0035372428,0.025862958,0.017102739,inf,inf,inf,inf,1,1,1,1,2,1,2,3,0,0,0
62223476,0,0.0,0.0,0.7868194,0.45530707,-0.39871883,0.20331125,0.49127465,-0.25526088,0.14577672,0.15061039,-0.13439293,-0.13261561,0.0021388521,-0.00409127,-0.002900156,3.9637904,-1.9127537,2.063526,-3.129516,0.0,0.46154606,0.13439293,0.005210351,0.0035718875,0.025909817,0.017168915,inf,inf,inf,inf,1,1,1,1,2,1,2,3,0,0,0
62327474,0,0.0,0.0,0.7946386,0.4687863,-0.40496224,0.20331125,0.49127465,-0.25526088,0.09524875,0.12756832,-0.09831232,-0.09217392,0.0021388521,-0.00409127,-0.002900156,-2.0304568,0.17902708,0.16494392,-3.1332464,0.0,0.46778947,0.09831232,0.00527612,0.0036175454,0.026077589,0.017298127,inf,inf,inf,inf,1,1,1,1,2,1,2,3,0,0,0
62423470,0,0.0,0.0,0.79624337,0.47706226,-0.40639424,0.20331125,0.49127465,-0.25526088,0.04830797,0.089209214,-0.06089736,-0.05086216,0.0021388521,-0.00409127,-0.002900156,1.7721977,1.4079611,2.2569084,-3.1353924,0.0,0.46922147,0.06089736,0.0052179634,0.0035824042,0.025922898,0.017216923,inf,inf,inf,inf,1,1,1,1,2,1,2,3,0,0,0
62527482,0,0.0,0.0,0.79312646,0.4803633,-0.40395135,0.20331125,0.49127465,-0.25526088,0.017730128,0.048117872,-0.026188858,-0.01246347,0.0021388521,-0.00409127,-0.002900156,6.466652,0.9143911,0.35542017,-3.1387398,0.0,0.46677858,0.026188858,0.005298027,0.0036358573,0.026142068,0.01736463,inf,inf,inf,inf,1,1,1,1,2,1,2,3,0,0,0
62631494,0,0.0,0.0,0.7857322,0.47875085,-0.39790264,0.20331125,0.49127465,-0.25526088,-0.028152542,0.026820004,0.013965376,0.030332653,0.0021388521,-0.00409127,-0.002900156,3.9632378,0.9297171,-0.42362952,-3.1412997,0.0,0.4607299,-0.013965376,0.005348489,0.0036702813,0.026232297,0.017424228,inf,inf,inf,inf,1,1,1,1,2,1,2,3,0,0,0
62727469,0,0.0,0.0,0.7758056,0.47302216,-0.39028457,0.20331125,0.49127465,-0.25526088,-0.06286267,-0.005064617,0.025786772,0.043586906,0.0021388521,-0.00409127,-0.002900156,0.82754296,-0.91279745,-1.5354352,3.138268,0.0,0.45311183,-0.025786772,0.005268011,0.0036185805,0.02604142,0.01729889,inf,inf,inf,inf,1,1,1,1,2,1,2,3,0,0,0
62831470,0,0.0,0.0,0.7628703,0.46233493,-0.38145542,0.20331125,0.49127465,-0.25526088,-0.105783224,-0.020632504,0.041480836,0.059716243,0.0021388521,-0.00409127,-0.002900156,-0.647847,-2.7037294,-0.5286248,3.1334693,0.0,0.44428265,-0.041480836,0.0053514987,0.0036728403,0.026275085,0.01744184,inf,inf,inf,inf,1,1,1,1,2,1,2,3,0,0,0
62935470,0,0.0,0.0,0.7481523,0.44958347,-0.3724705,0.20331125,0.49127465,-0.25526088,-0.14187382,-0.010102231,0.07557727,0.09294789,0.0021388521,-0.00409127,-0.002900156,3.928254,1.9438753,1.2633857,3.129741,0.0,0.43529773,-0.07557727,0.0054021385,0.0037059465,0.02635947,0.01747459,inf,inf,inf,inf,1,1,1,1,2,1,2,3,0,0,0
63031480,0,0.0,0.0,0.73249847,0.43860096,-0.3618709,0.20331125,0.49127465,-0.25526088,-0.16967292,-0.010474758,0.0976768,0.1132889,0.0021388521,-0.00409127,-0.002900156,-2.473015,-1.9787586,-2.3431063,3.1256154,0.0,0.42469817,-0.0976768,0.005341879,0.0036651555,0.02627155,0.017407514,inf,inf,inf,inf,1,1,1,1,2,1,2,3,0,0,0
63135485,0,0.0,0.0,0.7140143,0.42924866,-0.3496014,0.20331125,0.49127465,-0.25526088,-0.18003199,-0.008745931,0.11212637,0.12577488,0.0021388521,-0.00409127,-0.002900156,1.0695484,-0.55146575,-0.11528618,3.120802,0.0,0.41242862,-0.11212637,0.005420557,0.0037152641,0.026458705,0.01752691,inf,inf,inf,inf,1,1,1,1,2,1,2,3,0,0,0
63239470,0,0.0,0.0,0.6951302,0.42486033,-0.33694953,0.20331125,0.49127465,-0.25526088,-0.18561238,0.011616791,0.11664486,0.12850925,0.0021388521,-0.00409127,-0.002900156,3.4202266,0.6700875,-0.1177817,3.1162024,0.0,0.39977676,-0.11664486,0.005117827,0.003519521,0.02566744,0.017053083,inf,inf,inf,inf,1,1,1,1,2,1,2,3,0,0,0
63335469,0,0.0,0.0,0.6776903,0.4264741,-0.32463613,0.20331125,0.49127465,-0.25526088,-0.2015553,0.044536326,0.14518015,0.15526801,0.0021388521,-0.00409127,-0.002900156,-2.2217274,2.2286835,-0.10891315,3.1127574,0.0,0.3874634,-0.14518015,0.005417457,0.0037124064,0.02646835,0.017516093,inf,inf,inf,inf,1,1,1,1,2,1,2,3,0,0,0
63439470,0,0.0,0.0,0.65911764,0.43371844,-0.30924863,0.20331125,0.49127465,-0.25526088,-0.19691183,0.05585609,0.1633211,0.1713873,0.0021388521,-0.00409127,-0.002900156,-3.9853559,-0.4518722,0.0757593,3.1099477,0.0,0.37207586,-0.1633211,0.0051324377,0.0035273102,0.025746727,0.017080387,inf,inf,inf,inf,1,1,1,1,2,1,2,3,0,0,0
63543472,0,0.0,0.0,0.6409142,0.4453401,-0.29196167,0.20331125,0.49127465,-0.25526088,-0.19345431,0.07015526,0.17924622,0.18560483,0.0021388521,-0.00409127,-0.002900156,-6.192439,-1.5887282,-0.81039256,3.1072094,0.0,0.3547889,-0.17924622,0.0052106087,0.0035776983,0.025940595,0.0171983,inf,inf,inf,inf,1,1,1,1,2,1,2,3,0,0,0
63645904,0,0.0,0.0,0.62593395,0.459346,-0.2748522,0.20331125,0.49127465,-0.25526088,-0.15638366,0.099843174,0.17543334,0.18038058,0.0021388521,-0.00409127,-0.002900156,-5.554872,-1.0201619,-1.6987478,3.103888,0.0,0.33767945,-0.17543334,0.005262406,0.0036116017,0.026050737,0.017262777,inf,inf,inf,inf,1,1,1,1,2,1,2,3,0,0,0
63743470,0,0.0,0.0,0.61460805,0.47429973,-0.25812462,0.20331125,0.49127465,-0.25526088,-0.14886408,0.105988234,0.18554565,0.18913211,0.0021388521,-0.00409127,-0.002900156,4.3074403,1.6139324,0.83693665,3.0993736,0.0,0.32095188,-0.18554565,0.0051706056,0.0035517244,0.025828911,0.017120648,inf,inf,inf,inf,1,1,1,1,2,1,2,3,0,0,0
63846669,0,0.0,0.0,0.6059367,0.487511,-0.24073116,0.20331125,0.49127465,-0.25526088,-0.13390481,0.060508426,0.18904918,0.19095607,0.0021388521,-0.00409127,-0.002900156,-0.41458252,-1.9211544,0.35435238,3.0932944,0.0,0.3035584,-0.18904918,0.005262184,0.0036091942,0.026129367,0.017297873,inf,inf,inf,inf,1,1,1,1,2,1,2,3,0,0,0
63950684,0,0.0,0.0,0.6011501,0.4962829,-0.22445047,0.20331125,0.49127465,-0.25526088,-0.103819475,0.061213408,0.17021923,0.17039916,0.0021388521,-0.00409127,-0.002900156,-1.202734,2.7458873,0.4322299,3.088602,0.0,0.2872777,-0.17021923,0.005361788,0.0036726112,0.026446404,0.017482156,inf,inf,inf,inf,1,1,1,1,2,1,2,3,0,0,0
64046677,0,0.0,0.0,0.59901464,0.4997107,-0.21041958,0.20331125,0.49127465,-0.25526088,-0.08356477,-0.002940773,0.1616708,0.16010264,0.0021388521,-0.00409127,-0.002900156,-1.281613,-0.81385577,-0.8616004,3.0851228,0.0,0.27324682,-0.1616708,0.0052675037,0.0036122482,0.02615728,0.017292758,inf,inf,inf,inf,1,1,1,1,2,1,2,3,0,0,0
64150696,0,0.0,0.0,0.5988375,0.4966851,-0.19782788,0.20331125,0.49127465,-0.25526088,-0.07184504,-0.06282469,0.13810472,0.13446912,0.0021388521,-0.00409127,-0.002900156,-3.0395954,-0.24358796,1.0548003,3.081634,0.0,0.2606551,-0.13810472,0.0053424155,0.0036590018,0.026370477,0.01740889,inf,inf,inf,inf,1,1,1,1,2,1,2,3,0,0,0
64254670,0,0.0,0.0,0.59992325,0.48686662,-0.18886332,0.20331125,0.49127465,-0.25526088,-0.05535965,-0.103104234,0.100437775,0.094652064,0.0021388521,-0.00409127,-0.002900156,-1.1727872,3.3333664,-1.4327638,3.0813496,0.0,0.25169057,-0.100437775,0.0050662044,0.0034795867,0.025696421,0.016988399,inf,inf,inf,inf,1,1,1,1,2,1,2,3,0,0,0
64350670,0,0.0,0.0,0.601746,0.4704722,-0.18406303,0.20331125,0.49127465,-0.25526088,-0.039892398,-0.16574231,0.07512387,0.06729033,0.0021388521,-0.00409127,-0.002900156,0.27334765,-1.1386195,0.41422862,3.082315,0.0,0.24689028,-0.07512387,0.0053791204,0.0036790539,0.026545512,0.01747006,inf,inf,inf,inf,1,1,1,1,2,1,2,3,0,0,0
64454687,0,0.0,0.0,0.6044178,0.44623315,-0.18301451,0.20331125,0.49127465,-0.25526088,-0.035534166,-0.18277667,0.036165427,0.025998076,0.0021388521,-0.00409127,-0.002900156,-1.9475718,1.3559417,0.1161915,3.0860255,0.0,0.24584176,-0.036165427,0.005450725,0.0037230654,0.026731664,0.01755161,inf,inf,inf,inf,1,1,1,1,2,1,2,3,0,0,0
64558670,0,0.0,0.0,0.606933,0.41607428,-0.18595926,0.20331125,0.49127465,-0.25526088,-0.014680257,-0.22389895,-0.0017768247,-0.014173382,0.0021388521,-0.00409127,-0.002900156,3.762384,-1.0567425,-0.4517936,3.090583,0.0,0.24878651,0.0017768247,0.005158126,0.0035335317,0.025996545,0.017113106,inf,inf,inf,inf,1,1,1,1,2,1,2,3,0,0,0
64662679,0,0.0,0.0,0.6090279,0.38247585,-0.19433095,0.20331125,0.49127465,-0.25526088,0.0032520958,-0.23941645,-0.061805725,-0.07605487,0.0021388521,-0.00409127,-0.002900156,3.6977046,0.3483015,-0.6490641,3.0939474,0.0,0.2571582,0.061805725,0.0052347444,0.0035818152,0.026170181,0.017220609,inf,inf,inf,inf,1,1,1,1,2,1,2,3,0,0,0
64766669,0,0.0,0.0,0.61077183,0.34740078,-0.20903316,0.20331125,0.49127465,-0.25526088,0.019375881,-0.2584812,-0.11777027,-0.13365686,0.0021388521,-0.00409127,-0.002900156,1.2849245,1.5796775,1.058073,3.0947533,0.0,0.27186042,0.11777027,0.005315801,0.003633054,0.026393615,0.01733733,inf,inf,inf,inf,1,1,1,1,2,1,2,3,0,0,0
64862669,0,0.0,0.0,0.61255956,0.3151274,-0.22704503,0.20331125,0.49127465,-0.25526088,0.017280722,-0.27081957,-0.14524779,-0.16268447,0.0021388521,-0.00409127,-0.002900156,1.1422031,-1.1048832,0.6128493,3.093902,0.0,0.2898723,0.14524779,0.005233091,0.0035799972,0.026169868,0.017191377,inf,inf,inf,inf,1,1,1,1,2,1,2,3,0,0,0
64966687,0,0.0,0.0,0.6136886,0.2826427,-0.24423863,0.20331125,0.49127465,-0.25526088,0.014740442,-0.26740685,-0.099421665,-0.118096136,0.0021388521,-0.00409127,-0.002900156,0.58400697,0.68539745,0.075358056,3.0921617,0.0,0.30706587,0.099421665,0.0052623022,0.0035987399,0.026198762,0.017207742,inf,inf,inf,inf,1,1,1,1,2,1,2,3,0,0,0
65070672,0,0.0,0.0,0.6144864,0.25388834,-0.25647572,0.20331125,0.49127465,-0.25526088,0.027235264,-0.2776317,-0.07468312,-0.09245036,0.0021388521,-0.00409127,-0.002900156,1.6886547,-0.6696605,-2.1153355,3.0902245,0.0,0.31930298,0.07468312,0.0053254105,0.0036393094,0.026277868,0.017339535,inf,inf,inf,inf,1,1,1,1,2,1,2,3,0,0,0
65166670,0,0.0,0.0,0.61558986,0.2302096,-0.26351035,0.20331125,0.49127465,-0.25526088,0.027619645,-0.2597164,-0.068588085,-0.08282489,0.0021388521,-0.00409127,-0.002900156,-0.07750394,1.1349602,-1.1194761,3.089813,0.0,0.32633758,0.068588085,0.0052681123,0.0036067893,0.02613497,0.01730688,inf,inf,inf,inf,1,1,1,1,2,1,2,3,0,0,0
65270670,0,0.0,0.0,0.61656106,0.20779556,-0.26384318,0.20331125,0.49127465,-0.25526088,0.013724588,-0.24491428,0.01535238,0.006587934,0.0021388521,-0.00409127,-0.002900156,1.2185222,-0.16348587,1.8843,3.0899844,0.0,0.3266704,-0.01535238,0.005339849,0.0036581215,0.02626681,0.017400455,inf,inf,inf,inf,1,1,1,1,2,1,2,3,0,0,0
65374683,0,0.0,0.0,0.6173192,0.1897939,-0.25575688,0.20331125,0.49127465,-0.25526088,-0.0054989737,-0.20972782,0.059037443,0.056542862,0.0021388521,-0.00409127,-0.002900156,-7.03431,-0.03095784,1.3429903,3.0907578,0.0,0.31858414,-0.059037443,0.0054073897,0.0037039148,0.026420832,0.017498372,inf,inf,inf,inf,1,1,1,1,2,1,2,3,0,0,0
65470670,0,0.0,0.0,0.6176027,0.17624833,-0.24422102,0.20331125,0.49127465,-0.25526088,0.022437133,-0.17418204,0.038605783,0.042201232,0.0021388521,-0.00409127,-0.002900156,1.6563789,0.8532504,-0.7317569,3.093973,0.0,0.30704826,-0.038605783,0.005314327,0.0036460808,0.026163902,0.017357798,inf,inf,inf,inf,1,1,1,1,2,1,2,3,0,0,0
65574670,0,0.0,0.0,0.6172198,0.16584301,-0.23266482,0.20331125,0.49127465,-0.25526088,0.02066228,-0.13711461,0.01782582,0.026881196,0.0021388521,-0.00409127,-0.002900156,2.7894216,0.49366924,-3.3720608,3.0951617,0.0,0.29549205,-0.01782582,0.0054062405,0.0037056792,0.026429916,0.017511813,inf,inf,inf,inf,1,1,1,1,2,1,2,3,0,0,0
65677870,0,0.0,0.0,0.6171441,0.15938924,-0.22585717,0.20331125,0.49127465,-0.25526088,0.026816849,-0.09231839,-0.010094408,0.0014143467,0.0021388521,-0.00409127,-0.002900156,3.9996088,-0.261008,-0.8890526,3.0964983,0.0,0.28868443,0.010094408,0.005436432,0.0037252808,0.026445193,0.017490901,inf,inf,inf,inf,1,1,1,1,2,1,2,3,0,0,0
65781870,0,0.0,0.0,0.6167788,0.15803126,-0.22525778,0.20331125,0.49127465,-0.25526088,0.02342353,-0.056071963,-0.041416258,-0.031068014,0.0021388521,-0.00409127,-0.002900156,3.9647353,-0.47654748,-0.14153814,3.098225,0.0,0.28808504,0.041416258,0.005139692,0.0035321817,0.025819361,0.017100487,inf,inf,inf,inf,1,1,1,1,2,1,2,3,0,0,0
65885870,0,0.0,0.0,0.61580956,0.16106331,-0.23113497,0.20331125,0.49127465,-0.25526088,0.012357427,-0.017956391,-0.06624677,-0.059685618,0.0021388521,-0.00409127,-0.002900156,2.5633848,-1.2277421,0.20755492,3.100469,0.0,0.2939622,0.06624677,0.0052500493,0.0036002218,0.026186347,0.017290113,inf,inf,inf,inf,1,1,1,1,2,1,2,3,0,0,0
65981875,0,0.0,0.0,0.6146776,0.16771686,-0.24154517,0.20331125,0.49127465,-0.25526088,0.009516315,0.030025197,-0.09163322,-0.08940815,0.0021388521,-0.00409127,-0.002900156,2.1902335,2.5305548,-0.19974563,3.1024992,0.0,0.30437243,0.09163322,0.0051697465,0.003547244,0.025918916,0.01711739,inf,inf,inf,inf,1,1,1,1,2,1,2,3,0,0,0
66085870,0,0.0,0.0,0.6131415,0.17803244,-0.25631246,0.20331125,0.49127465,-0.25526088,0.004195512,0.052661937,-0.11138611,-0.11356449,0.0021388521,-0.00409127,-0.002900156,0.9306221,4.046926,-0.40234256,3.1044018,0.0,0.31913972,0.11138611,0.005265286,0.0036065911,0.026189357,0.017277313,inf,inf,inf,inf,1,1,1,1,2,1,2,3,0,0,0
66189920,0,0.0,0.0,0.6115384,0.19033588,-0.27233925,0.20331125,0.49127465,-0.25526088,-0.0010179019,0.08331913,-0.112268336,-0.117588595,0.0021388521,-0.00409127,-0.002900156,-2.0404294,1.853076,-0.44558394,3.1070046,0.0,0.3351665,0.112268336,0.0053284755,0.0036472997,0.02629872,0.01735861,inf,inf,inf,inf,1,1,1,1,2,1,2,3,0,0,0
66285870,0,0.0,0.0,0.60980636,0.20279782,-0.28620163,0.20331125,0.49127465,-0.25526088,-0.0075030047,0.08766704,-0.0994007,-0.10612902,0.0021388521,-0.00409127,-0.002900156,-0.11029518,0.12602596,-0.33627012,3.1081526,0.0,0.3490289,0.0994007,0.005246419,0.0035956495,0.026030762,0.01722313,inf,inf,inf,inf,1,1,1,1,2,1,2,3,0,0,0
66389869,0,0.0,0.0,0.6072962,0.21606669,-0.29753053,0.20331125,0.49127465,-0.25526088,-0.007537927,0.10845741,-0.08344124,-0.0898328,0.0021388521,-0.00409127,-0.002900156,1.0276192,1.2266791,-0.7430175,3.1096475,0.0,0.36035776,0.08344124,0.0052937,0.0036282362,0.026121404,0.01729905,inf,inf,inf,inf,1,1,1,1,2,1,2,3,0,0,0
66493876,0,0.0,0.0,0.6040248,0.22851123,-0.30511218,0.20331125,0.49127465,-0.25526088,-0.023856735,0.09993871,-0.05955508,-0.06387318,0.0021388521,-0.00409127,-0.002900156,0.9385151,-0.6173471,2.186795,3.1118224,0.0,0.3679394,0.05955508,0.0050313445,0.003459494,0.025484942,0.016943237,inf,inf,inf,inf,1,1,1,1,2,1,2,3,0,0,0
66597869,0,0.0,0.0,0.60085374,0.23977837,-0.3099118,0.20331125,0.49127465,-0.25526088,-0.033357903,0.10150124,-0.046372164,-0.047746014,0.0021388521,-0.00409127,-0.002900156,-3.0877912,0.20013893,1.9651078,3.1121726,0.0,0.37273902,0.046372164,0.0054888176,0.0037567464,0.026638262,0.017633634,inf,inf,inf,inf,1,1,1,1,2,1,2,3,0,0,0
66701911,0,0.0,0.0,0.5978366,0.24900506,-0.3111194,0.20331125,0.49127465,-0.25526088,-0.02153675,0.087079935,-0.030156223,-0.028510002,0.0021388521,-0.00409127,-0.002900156,-1.1415731,-1.2754198,0.16606276,3.112519,0.0,0.37394667,0.030156223,0.005160965,0.0035469825,0.025765613,0.017112289,inf,inf,inf,inf,1,1,1,1,2,1,2,3,0,0,0
66805908,0,0.0,0.0,0.5947527,0.2562899,-0.3096612,0.20331125,0.49127465,-0.25526088,-0.00761372,0.0941233,-0.011390732,-0.007129068,0.0021388521,-0.00409127,-0.002900156,1.0622737,0.0017055604,-1.2434106,3.1121624,0.0,0.37248844,0.011390732,0.005239445,0.0035975222,0.026001185,0.017250989,inf,inf,inf,inf,1,1,1,1,2,1,2,3,0,0,0
66901870,0,0.0,0.0,0.5920813,0.26108778,-0.30776718,0.20331125,0.49127465,-0.25526088,-0.022509001,0.07743898,-0.018083178,-0.01194296,0.0021388521,-0.00409127,-0.002900156,-0.10204969,1.3623013,0.7861698,3.1092868,0.0,0.37059444,0.018083178,0.005159166,0.0035458782,0.025769202,0.017117016,inf,inf,inf,inf,1,1,1,1,2,1,2,3,0,0,0
67005870,0,0.0,0.0,0.5891621,0.26459223,-0.30664107,0.20331125,0.49127465,-0.25526088,-0.021472862,0.0648867,-0.025351847,-0.018085893,0.0021388521,-0.00409127,-0.002900156,-1.0424782,0.72389096,0.87213117,3.1030324,0.0,0.36946833,0.025351847,0.0052530863,0.0036061953,0.026049986,0.017277325,inf,inf,inf,inf,1,1,1,1,2,1,2,3,0,0,0
67109870,0,0.0,0.0,0.58724517,0.26645607,-0.30801305,0.20331125,0.49127465,-0.25526088,-0.0087965,0.056159776,-0.0352935,-0.028226685,0.0021388521,-0.00409127,-0.002900156,0.3199143,0.83882165,0.81549025,3.0977464,0.0,0.3708403,0.0352935,0.0053312546,0.0036563578,0.02625163,0.017384214,inf,inf,inf,inf,1,1,1,1,2,1,2,3,0,0,0
67213870,0,0.0,0.0,0.5868701,0.26801008,-0.31235605,0.20331125,0.49127465,-0.25526088,0.008795902,0.0563397,-0.056064278,-0.05044453,0.0021388521,-0.00409127,-0.002900156,2.9943595,1.9994652,-0.08904684,3.0939558,0.0,0.37518328,0.056064278,0.0054003457,0.0037002258,0.026443286,0.017477691,inf,inf,inf,inf,1,1,1,1,2,1,2,3,0,0,0
67309874,0,0.0,0.0,0.58851093,0.2694826,-0.31916484,0.20331125,0.49127465,-0.25526088,0.028342921,0.059051357,-0.07074771,-0.067208104,0.0021388521,-0.00409127,-0.002900156,-2.4242678,0.17354438,-1.6413728,3.091995,0.0,0.3819921,0.07074771,0.0053300723,0.0036536367,0.026280556,0.017376216,inf,inf,inf,inf,1,1,1,1,2,1,2,3,0,0,0
67413892,0,0.0,0.0,0.5923765,0.2722346,-0.3281336,0.20331125,0.49127465,-0.25526088,0.0396012,0.06460129,-0.07829268,-0.07719397,0.0021388521,-0.00409127,-0.002900156,-4.03729,-2.3245933,-1.9883733,3.0925968,0.0,0.39096087,0.07829268,0.005383696,0.0036875443,0.026404787,0.017435106,inf,inf,inf,inf,1,1,1,1,2,1,2,3,0,0,0
67513076,0,0.0,0.0,0.5978569,0.2765506,-0.33717936,0.20331125,0.49127465,-0.25526088,0.061730064,0.07991128,-0.06873815,-0.069549546,0.0021388521,-0.00409127,-0.002900156,1.0652795,1.9225988,0.29037973,3.094572,0.0,0.4000066,0.06873815,0.005321578,0.003646243,0.02627826,0.01736519,inf,inf,inf,inf,1,1,1,1,2,1,2,3,0,0,0
67616299,0,0.0,0.0,0.60512716,0.28235546,-0.34707597,0.20331125,0.49127465,-0.25526088,0.065659255,0.067617185,-0.07711065,-0.079271935,0.0021388521,-0.00409127,-0.002900156,-0.7731258,-1.6302962,-0.47722805,3.0965455,0.0,0.40990323,0.07711065,0.0054154885,0.0037062394,0.026521783,0.017519357,inf,inf,inf,inf,1,1,1,1,2,1,2,3,0,0,0
67721072,0,0.0,0.0,0.612858,0.28988263,-0.35596496,0.20331125,0.49127465,-0.25526088,0.06258321,0.07301437,-0.06889417,-0.07159892,0.0021388521,-0.00409127,-0.002900156,-2.9676719,-2.1315992,-0.6084725,3.0963993,0.0,0.4187922,0.06889417,0.005173786,0.0035519486,0.025986157,0.017233813,inf,inf,inf,inf,1,1,1,1,2,1,2,3,0,0,0
67825074,0,0.0,0.0,0.6210459,0.29916987,-0.36304316,0.20331125,0.49127465,-0.25526088,0.05305523,0.0673304,-0.042039055,-0.044503734,0.0021388521,-0.00409127,-0.002900156,-6.233824,-2.9805791,1.6576144,3.0942256,0.0,0.42587042,0.042039055,0.005234667,0.003592703,0.026055664,0.017287165,inf,inf,inf,inf,1,1,1,1,2,1,2,3,0,0,0
67921099,0,0.0,0.0,0.627619,0.3078148,-0.366374,0.20331125,0.49127465,-0.25526088,0.07057278,0.071808174,-0.026251689,-0.027893106,0.0021388521,-0.00409127,-0.002900156,5.6681166,1.3382922,0.22191322,3.091611,0.0,0.42920125,0.026251689,0.0051561217,0.0035430533,0.02579471,0.01713678,inf,inf,inf,inf,1,1,1,1,2,1,2,3,0,0,0
68025072,0,0.0,0.0,0.63364935,0.3170982,-0.367038,0.20331125,0.49127465,-0.25526088,0.06239489,0.066005886,-0.0037254265,-0.003828355,0.0021388521,-0.00409127,-0.002900156,4.2035174,-0.20919074,-0.016132684,3.0890877,0.0,0.42986524,0.0037254265,0.0052223136,0.0035865768,0.025953462,0.017239835,inf,inf,inf,inf,1,1,1,1,2,1,2,3,0,0,0
68129071,0,0.0,0.0,0.6379477,0.32479098,-0.3657994,0.20331125,0.49127465,-0.25526088,0.047586992,0.05043266,-0.00464691,-0.0029332235,0.0021388521,-0.00409127,-0.002900156,0.56728834,-1.5990192,-1.9923102,3.0886707,0.0,0.42862666,0.00464691,0.0052976105,0.0036357946,0.02613368,0.01734039,inf,inf,inf,inf,1,1,1,1,2,1,2,3,0,0,0
68225070,0,0.0,0.0,0.63998425,0.33049482,-0.36352065,0.20331125,0.49127465,-0.25526088,0.025767816,0.048560858,0.0015489759,0.004695104,0.0021388521,-0.00409127,-0.002900156,-1.4764282,2.4995346,-0.5953815,3.0868442,0.0,0.4263479,-0.0015489759,0.005198166,0.0035720905,0.02585532,0.017160127,inf,inf,inf,inf,1,1,1,1,2,1,2,3,0,0,0
68329070,0,0.0,0.0,0.64065003,0.33501992,-0.36144927,0.20331125,0.49127465,-0.25526088,0.016897954,0.044924382,-0.002695246,0.0012924395,0.0021388521,-0.00409127,-0.002900156,-1.6846771,3.851239,-1.1705694,3.0847745,0.0,0.42427653,0.002695246,0.005283805,0.0036263557,0.026121646,0.01731337,inf,inf,inf,inf,1,1,1,1,2,1,2,3,0,0,0
68433070,0,0.0,0.0,0.640095,0.3373568,-0.36113065,0.20331125,0.49127465,-0.25526088,0.012156697,0.018027041,-0.01255225,-0.008697044,0.0021388521,-0.00409127,-0.002900156,0.6378306,-2.4235716,1.8135288,3.0850866,0.0,0.42395788,0.01255225,0.0053951386,0.0036965485,0.026459059,0.017503211,inf,inf,inf,inf,1,1,1,1,2,1,2,3,0,0,0
68537076,0,0.0,0.0,0.6387597,0.338261,-0.36354822,0.20331125,0.49127465,-0.25526088,0.012879582,0.008669942,-0.030371752,-0.027589658,0.0021388521,-0.00409127,-0.002900156,4.924596,0.7275656,0.7862677,3.0872104,0.0,0.42637545,0.030371752,0.005464213,0.0037408595,0.026598658,0.017569527,inf,inf,inf,inf,1,1,1,1,2,1,2,3,0,0,0
68633072,0,0.0,0.0,0.6367774,0.33723617,-0.36808446,0.20331125,0.49127465,-0.25526088,-0.020970663,-0.0094194375,-0.041165903,-0.040128976,0.0021388521,-0.00409127,-0.002900156,-2.7020855,-1.6606804,0.45476732,3.0882435,0.0,0.43091172,0.041165903,0.005374354,0.0036820567,0.026373021,0.017423114,inf,inf,inf,inf,1,1,1,1,2,1,2,3,0,0,0
68737083,0,0.0,0.0,0.6346723,0.33484414,-0.37478212,0.20331125,0.49127465,-0.25526088,-0.006157713,-0.022422418,-0.044880453,-0.04606442,0.0021388521,-0.00409127,-0.002900156,3.628851,0.8653445,-0.21381247,3.0872626,0.0,0.43760937,0.044880453,0.0054369876,0.0037210379,0.02654831,0.017515907,inf,inf,inf,inf,1,1,1,1,2,1,2,3,0,0,0
68841082,0,0.0,0.0,0.63264775,0.3303487,-0.38217068,0.20331125,0.49127465,-0.25526088,-0.007816851,-0.050117154,-0.045771047,-0.04885936,0.0021388521,-0.00409127,-0.002900156,0.44687298,-1.7136909,-0.7494511,3.0837789,0.0,0.4449979,0.045771047,0.0051418357,0.0035298865,0.025811689,0.017082578,inf,inf,inf,inf,1,1,1,1,2,1,2,3,0,0,0
68945076,0,0.0,0.0,0.6303482,0.32349876,-0.3893568,0.20331125,0.49127465,-0.25526088,-0.020303287,-0.07459753,-0.05337103,-0.05751974,0.0021388521,-0.00409127,-0.002900156,-1.6569719,-0.18823276,-2.815943,3.0792322,0.0,0.45218402,0.05337103,0.005232964,0.0035882026,0.026040891,0.017235894,inf,inf,inf,inf,1,1,1,1,2,1,2,3,0,0,0
69041070,0,0.0,0.0,0.6280988,0.3147659,-0.3956503,0.20331125,0.49127465,-0.25526088,-0.027043905,-0.08946664,-0.054044563,-0.058402155,0.0021388521,-0.00409127,-0.002900156,-1.4452955,1.9442017,-0.75251776,3.0750487,0.0,0.45847756,0.054044563,0.0051568695,0.0035402474,0.025794655,0.017096933,inf,inf,inf,inf,1,1,1,1,2,1,2,3,0,0,0
69145070,0,0.0,0.0,0.62607265,0.30244216,-0.4021303,0.20331125,0.49127465,-0.25526088,-0.015949372,-0.124522746,-0.05006592,-0.054057065,0.0021388521,-0.00409127,-0.002900156,0.07932666,0.8728474,0.7202072,3.0712898,0.0,0.46495754,0.05006592,0.0052209934,0.0035824901,0.025954155,0.017193059,inf,inf,inf,inf,1,1,1,1,2,1,2,3,0,0,0
69249070,0,0.0,0.0,0.624868,0.28787255,-0.4074759,0.20331125,0.49127465,-0.25526088,-0.010004395,-0.13863593,-0.047587156,-0.050966766,0.0021388521,-0.00409127,-0.002900156,1.3703727,1.9673845,-1.6329323,3.0690892,0.0,0.47030312,0.047587156,0.0052764015,0.0036191863,0.026068388,0.017258057,inf,inf,inf,inf,1,1,1,1,2,1,2,3,0,0,0
69344310,0,0.0,0.0,0.62424105,0.27287427,-0.41148013,0.20331125,0.49127465,-0.25526088,-0.013254554,-0.15340947,-0.03622197,-0.038880095,0.0021388521,-0.00409127,-0.002900156,-0.79981685,1.8758879,0.6031991,3.0691495,0.0,0.47430736,0.03622197,0.005204733,0.0035724319,0.02591176,0.017172944,inf,inf,inf,inf,1,1,1,1,2,1,2,3,0,0,0
69453076,0,0.0,0.0,0.6241852,0.25478896,-0.41480744,0.20331125,0.49127465,-0.25526088,-0.0073485775,-0.16235769,-0.034252122,-0.036065463,0.0021388521,-0.00409127,-0.002900156,1.9797919,-1.341541,-0.40894324,3.0707285,0.0,0.47763467,0.034252122,0.00530873,0.003638671,0.026238514,0.017359829,inf,inf,inf,inf,1,1,1,1,2,1,2,3,0,0,0
69555499,0,0.0,0.0,0.6247619,0.23708685,-0.41780415,0.20331125,0.49127465,-0.25526088,-0.011749765,-0.15723163,-0.03436424,-0.03533609,0.0021388521,-0.00409127,-0.002900156,-0.25897723,0.53378004,-0.1644709,3.071985,0.0,0.4806314,0.03436424,0.0051104585,0.0035111108,0.025909446,0.017207542,inf,inf,inf,inf,1,1,1,1,2,1,2,3,0,0,0
69660276,0,0.0,0.0,0.6263757,0.21992746,-0.42082524,0.20331125,0.49127465,-0.25526088,-0.0011618688,-0.16084172,-0.038413167,-0.03881661,0.0021388521,-0.00409127,-0.002900156,0.4380535,-2.053569,0.16133524,3.0729072,0.0,0.48365247,0.038413167,0.005161562,0.0035456044,0.025908686,0.017194688,inf,inf,inf,inf,1,1,1,1,2,1,2,3,0,0,0
69764276,0,0.0,0.0,0.62909484,0.20402712,-0.42475027,0.20331125,0.49127465,-0.25526088,0.008183788,-0.15402322,-0.041927353,-0.042189326,0.0021388521,-0.00409127,-0.002900156,1.6222935,-1.1334726,-0.7408311,3.0758832,0.0,0.4875775,0.041927353,0.0052320478,0.0035913547,0.026061388,0.017277101,inf,inf,inf,inf,1,1,1,1,2,1,2,3,0,0,0
69860284,0,0.0,0.0,0.6317558,0.19163421,-0.42861572,0.20331125,0.49127465,-0.25526088,0.0015157537,-0.14174801,-0.04094037,-0.041476145,0.0021388521,-0.00409127,-0.002900156,-1.708362,0.25354725,-0.74004596,3.0807462,0.0,0.49144298,0.04094037,0.0051604756,0.0035448242,0.025851903,0.017142387,inf,inf,inf,inf,1,1,1,1,2,1,2,3,0,0,0
69964298,0,0.0,0.0,0.63399005,0.18064764,-0.43301675,0.20331125,0.49127465,-0.25526088,-0.0047412883,-0.13064358,-0.036691904,-0.037756007,0.0021388521,-0.00409127,-0.002900156,-1.5431745,0.2450831,-0.5075006,3.0871732,0.0,0.495844,0.036691904,0.0052381223,0.0035946579,0.026019335,0.017234582,inf,inf,inf,inf,1,1,1,1,2,1,2,3,0,0,0
70068282,0,0.0,0.0,0.6356731,0.1719468,-0.4374566,0.20331125,0.49127465,-0.25526088,-0.0040956186,-0.119241536,-0.03861773,-0.04008536,0.0021388521,-0.00409127,-0.002900156,-3.2814534,-0.33767912,-2.2243924,3.0948558,0.0,0.50028384,0.03861773,0.0053061508,0.00363848,0.026173763,0.017328423,inf,inf,inf,inf,1,1,1,1,2,1,2,3,0,0,0
70164304,0,0.0,0.0,0.6364909,0.16629952,-0.44116998,0.20331125,0.49127465,-0.25526088,-0.0023207322,-0.099210694,-0.038971208,-0.040526673,0.0021388521,-0.00409127,-0.002900156,0.16469656,-0.020000322,-0.60665214,3.1033604,0.0,0.5039972,0.038971208,0.005222565,0.0035844431,0.025975216,0.01720959,inf,inf,inf,inf,1,1,1,1,2,1,2,3,0,0,0
70268278,0,0.0,0.0,0.63675326,0.16169226,-0.4450367,0.20331125,0.49127465,-0.25526088,-0.023580207,-0.0907479,-0.030735016,-0.03215678,0.0021388521,-0.00409127,-0.002900156,-3.6887078,-2.0873096,-1.31348,3.1117518,0.0,0.50786394,0.030735016,0.005283427,0.0036238586,0.026116246,0.017296584,inf,inf,inf,inf,1,1,1,1,2,1,2,3,0,0,0
70372269,0,0.0,0.0,0.6354883,0.15877005,-0.4489631,0.20331125,0.49127465,-0.25526088,-0.033228498,-0.06669303,-0.042554844,-0.043735545,0.0021388521,-0.00409127,-0.002900156,-1.8826245,2.0382361,-0.5756008,3.119251,0.0,0.51179034,0.042554844,0.0053562936,0.00367074,0.026302857,0.017400876,inf,inf,inf,inf,1,1,1,1,2,1,2,3,0,0,0
70468311,0,0.0,0.0,0.63279784,0.15642242,-0.45328814,0.20331125,0.49127465,-0.25526088,-0.028445564,-0.06849328,-0.058712896,-0.059724648,0.0021388521,-0.00409127,-0.002900156,-2.9326491,-1.921225,-0.9262263,3.124434,0.0,0.51611537,0.058712896,0.0053087934,0.0036393756,0.026238637,0.017361699,inf,inf,inf,inf,1,1,1,1,2,1,2,3,0,0,0
71899478,0,0.0,0.0,0.70246994,0.18683325,-0.58023685,0.20331125,0.49127465,-0.25526088,0.058911256,-0.0030650983,-0.10577723,-0.10642011,0.0021388521,-0.00409127,-0.002900156,0.46524015,-0.18629573,0.626611,3.0705395,0.0,0.6430641,0.10577723,0.005128917,0.0035209758,0.025796514,0.017081305,inf,inf,inf,inf,1,1,1,1,2,1,2,3,0,0,0
71995496,0,0.0,0.0,0.7059549,0.18341675,-0.5904064,0.20331125,0.49127465,-0.25526088,0.034328956,-0.013753938,-0.106124625,-0.1065011,0.0021388521,-0.00409127,-0.002900156,-2.1766143,2.4454095,0.36763123,3.071845,0.0,0.65323365,0.106124625,0.005084679,0.0034920722,0.025684424,0.017017704,inf,inf,inf,inf,1,1,1,1,2,1,2,3,0,0,0
72099470,0,0.0,0.0,0.70629054,0.17831455,-0.6005248,0.20331125,0.49127465,-0.25526088,0.018051976,-0.025594048,-0.098943755,-0.09885858,0.0021388521,-0.00409127,-0.002900156,0.0035718281,1.9555289,0.06810809,3.0710948,0.0,0.663352,0.098943755,0.005144939,0.0035322292,0.02576973,0.017073093,inf,inf,inf,inf,1,1,1,1,2,1,2,3,0,0,0
72203470,0,0.0,0.0,0.7035077,0.17171618,-0.61031526,0.20331125,0.49127465,-0.25526088,-0.006262036,-0.037412126,-0.10217663,-0.10141394,0.0021388521,-0.00409127,-0.002900156,-3.0821779,0.6826469,-0.65953964,3.0681782,0.0,0.6731425,0.10217663,0.005199346,0.0035682288,0.025878122,0.017145889,inf,inf,inf,inf,1,1,1,1,2,1,2,3,0,0,0
72299479,0,0.0,0.0,0.698636,0.16488284,-0.6191916,0.20331125,0.49127465,-0.25526088,-0.016437499,-0.054611135,-0.101336814,-0.09992693,0.0021388521,-0.00409127,-0.002900156,2.031593,-2.1678104,0.7277682,3.0650296,0.0,0.6820188,0.101336814,0.005123603,0.0035195453,0.025701106,0.01704067,inf,inf,inf,inf,1,1,1,1,2,1,2,3,0,0,0
72403499,0,0.0,0.0,0.69147754,0.15653397,-0.6287857,0.20331125,0.49127465,-0.25526088,-0.030123424,-0.0696617,-0.09945523,-0.09755307,0.0021388521,-0.00409127,-0.002900156,1.0122795,-4.245944,-0.13375536,3.0629077,0.0,0.69161296,0.09945523,0.005188898,0.0035619703,0.025877142,0.017144643,inf,inf,inf,inf,1,1,1,1,2,1,2,3,0,0,0
72507470,0,0.0,0.0,0.6832836,0.14824411,-0.6379275,0.20331125,0.49127465,-0.25526088,-0.048392374,-0.057725333,-0.09395455,-0.09179341,0.0021388521,-0.00409127,-0.002900156,-1.1675075,-1.8564492,0.72518575,3.0598543,0.0,0.7007547,0.09395455,0.0052475245,0.003600169,0.02600501,0.017220447,inf,inf,inf,inf,1,1,1,1,2,1,2,3,0,0,0
72603498,0,0.0,0.0,0.67528623,0.14151204,-0.64616466,0.20331125,0.49127465,-0.25526088,-0.0463019,-0.05477576,-0.096220076,-0.09391375,0.0021388521,-0.00409127,-0.002900156,0.0446895,-0.75258124,0.45756337,3.0582368,0.0,0.7089919,0.096220076,0.0051933248,0.0035643657,0.02591315,0.017168017,inf,inf,inf,inf,1,1,1,1,2,1,2,3,0,0,0
72707476,0,0.0,0.0,0.6668601,0.13516206,-0.6553571,0.20331125,0.49127465,-0.25526088,-0.05326484,-0.042471264,-0.099948645,-0.097533695,0.0021388521,-0.00409127,-0.002900156,-0.01018756,3.93758,0.088938795,3.0562642,0.0,0.71818435,0.099948645,0.005271244,0.0036147167,0.026104687,0.017286247,inf,inf,inf,inf,1,1,1,1,2,1,2,3,0,0,0
72811478,0,0.0,0.0,0.6599289,0.13011868,-0.6660393,0.20331125,0.49127465,-0.25526088,-0.041119542,-0.039460585,-0.10738494,-0.105028406,0.0021388521,-0.00409127,-0.002900156,3.9546034,1.0655893,-0.14201975,3.056457,0.0,0.7288665,0.10738494,0.005325186,0.0036499691,0.026231062,0.017354963,inf,inf,inf,inf,1,1,1,1,2,1,2,3,0,0,0
72915480,0,0.0,0.0,0.6544133,0.12657873,-0.67754424,0.20331125,0.49127465,-0.25526088,-0.053296812,-0.031674113,-0.11431574,-0.112464,0.0021388521,-0.00409127,-0.002900156,-0.86496955,2.1925857,-0.6511934,3.056678,0.0,0.74037147,0.11431574,0.0054145646,0.0037065689,0.026510172,0.017507987,inf,inf,inf,inf,1,1,1,1,2,1,2,3,0,0,0
73011476,0,0.0,0.0,0.65012807,0.12462149,-0.6881872,0.20331125,0.49127465,-0.25526088,-0.05847252,-0.016628187,-0.10273128,-0.101610206,0.0021388521,-0.00409127,-0.002900156,-1.0705589,1.3261162,-0.32835886,3.0566132,0.0,0.7510144,0.10273128,0.0053542973,0.003667112,0.026362663,0.017415496,inf,inf,inf,inf,1,1,1,1,2,1,2,3,0,0,0
73115482,0,0.0,0.0,0.646137,0.124074794,-0.69985515,0.20331125,0.49127465,-0.25526088,-0.05712084,-0.006164863,-0.109629005,-0.109103285,0.0021388521,-0.00409127,-0.002900156,-1.3606708,3.179903,0.75944334,3.0580885,0.0,0.7626824,0.109629005,0.0050702216,0.0034838738,0.025601327,0.016979082,inf,inf,inf,inf,1,1,1,1,2,1,2,3,0,0,0
73219483,0,0.0,0.0,0.64246726,0.12497543,-0.7117367,0.20331125,0.49127465,-0.25526088,-0.055372078,-0.0051187896,-0.11349922,-0.11324979,0.0021388521,-0.00409127,-0.002900156,-1.2194777,1.3719846,-0.6452217,3.0606391,0.0,0.7745639,0.11349922,0.0051496155,0.003535829,0.0257874,0.017089754,inf,inf,inf,inf,1,1,1,1,2,1,2,3,0,0,0
73323498,0,0.0,0.0,0.638328,0.12669021,-0.7222141,0.20331125,0.49127465,-0.25526088,-0.067802705,0.007362573,-0.09528324,-0.095044844,0.0021388521,-0.00409127,-0.002900156,-2.5025165,2.6158612,-1.0958966,3.0631921,0.0,0.78504133,0.09528324,0.0052022412,0.0035707094,0.025887147,0.017155668,inf,inf,inf,inf,1,1,1,1,2,1,2,3,0,0,0
73426670,0,0.0,0.0,0.6332612,0.12898372,-0.73116386,0.20331125,0.49127465,-0.25526088,-0.065870255,0.012072517,-0.08889297,-0.0883358,0.0021388521,-0.00409127,-0.002900156,-1.5012995,0.052891914,-0.6013376,3.0656223,0.0,0.7939911,0.08889297,0.005252386,0.0036039443,0.025997795,0.017231165,inf,inf,inf,inf,1,1,1,1,2,1,2,3,0,0,0
73530676,0,0.0,0.0,0.62807804,0.13302094,-0.73962444,0.20331125,0.49127465,-0.25526088,-0.07293297,0.024527244,-0.08588264,-0.08458096,0.0021388521,-0.00409127,-0.002900156,-3.4414046,-2.116599,0.24093975,3.067036,0.0,0.80245167,0.08588264,0.0052997377,0.0036349948,0.026129184,0.017320348,inf,inf,inf,inf,1,1,1,1,2,1,2,3,0,0,0
73626719,0,0.0,0.0,0.6229723,0.13676287,-0.7464626,0.20331125,0.49127465,-0.25526088,-0.06846163,0.02680805,-0.07933504,-0.077483825,0.0021388521,-0.00409127,-0.002900156,-2.3752766,-0.86730623,-1.9298557,3.068918,0.0,0.8092898,0.07933504,0.005235621,0.0035932322,0.026009848,0.017234197,inf,inf,inf,inf,1,1,1,1,2,1,2,3,0,0,0
73730687,0,0.0,0.0,0.617606,0.14168486,-0.7536496,0.20331125,0.49127465,-0.25526088,-0.07983805,0.03591883,-0.07215912,-0.070045225,0.0021388521,-0.00409127,-0.002900156,-4.549017,-1.6213595,1.9952089,3.069615,0.0,0.8164768,0.07215912,0.005331204,0.0036551005,0.026264833,0.01739999,inf,inf,inf,inf,1,1,1,1,2,1,2,3,0,0,0
73834697,0,0.0,0.0,0.6129969,0.1466195,-0.76203936,0.20331125,0.49127465,-0.25526088,-0.04977526,0.041067034,-0.100773655,-0.098714925,0.0021388521,-0.00409127,-0.002900156,1.9606389,-0.3104757,0.7942868,3.0723426,0.0,0.8248666,0.100773655,0.005433842,0.0037213964,0.02653179,0.017552044,inf,inf,inf,inf,1,1,1,1,2,1,2,3,0,0,0
73930670,0,0.0,0.0,0.6094132,0.15163739,-0.77202487,0.20331125,0.49127465,-0.25526088,-0.059685707,0.04218659,-0.11708794,-0.115506425,0.0021388521,-0.00409127,-0.002900156,-2.2236252,-2.5129285,-1.2245961,3.0738912,0.0,0.8348521,0.11708794,0.005330114,0.003655498,0.026225861,0.017371519,inf,inf,inf,inf,1,1,1,1,2,1,2,3,0,0,0
74034670,0,0.0,0.0,0.60545194,0.15692653,-0.7860407,0.20331125,0.49127465,-0.25526088,-0.06385729,0.041863035,-0.13415551,-0.1339097,0.0021388521,-0.00409127,-0.002900156,-1.3372865,-1.3679721,-0.8259392,3.0770288,0.0,0.84886795,0.13415551,0.005415983,0.0037095407,0.026501847,0.017512962,inf,inf,inf,inf,1,1,1,1,2,1,2,3,0,0,0
74138676,0,0.0,0.0,0.60109663,0.1618997,-0.8029024,0.20331125,0.49127465,-0.25526088,-0.049866036,0.029761499,-0.15788655,-0.15957555,0.0021388521,-0.00409127,-0.002900156,0.2270862,-0.92382187,0.95215636,3.0799553,0.0,0.86572963,0.15788655,0.0051194206,0.003517189,0.025743933,0.017049994,inf,inf,inf,inf,1,1,1,1,2,1,2,3,0,0,0
74234697,0,0.0,0.0,0.5974538,0.16603458,-0.8203217,0.20331125,0.49127465,-0.25526088,-0.051963903,0.03268173,-0.1513881,-0.15501454,0.0021388521,-0.00409127,-0.002900156,-2.6141086,-0.029115558,0.8993787,3.0825036,0.0,0.8831489,0.1513881,0.005422749,0.0037114888,0.026536776,0.017517535,inf,inf,inf,inf,1,1,1,1,2,1,2,3,0,0,0
74338670,0,0.0,0.0,0.5934725,0.17000279,-0.8391801,0.20331125,0.49127465,-0.25526088,-0.05073014,0.03126569,-0.15067858,-0.15605216,0.0021388521,-0.00409127,-0.002900156,-0.13514706,-1.9556692,0.5820632,3.084997,0.0,0.90200734,0.15067858,0.0051074345,0.0035080344,0.02569003,0.017010456,inf,inf,inf,inf,1,1,1,1,2,1,2,3,0,0,0
74442676,0,0.0,0.0,0.5893816,0.17295523,-0.8568338,0.20331125,0.49127465,-0.25526088,-0.052292354,0.024296192,-0.14833336,-0.15442857,0.0021388521,-0.00409127,-0.002900156,-0.60687524,-0.4648213,0.43957734,3.0874982,0.0,0.91966105,0.14833336,0.0051825163,0.003556367,0.025876362,0.017139442,inf,inf,inf,inf,1,1,1,1,2,1,2,3,0,0,0
74538670,0,0.0,0.0,0.5858506,0.17492895,-0.8725899,0.20331125,0.49127465,-0.25526088,-0.051240217,0.037678026,-0.14675722,-0.15253274,0.0021388521,-0.00409127,-0.002900156,-3.5619211,0.78636104,-0.34108508,3.0922248,0.0,0.9354171,0.14675722,0.005135513,0.0035261447,0.02576616,0.01709465,inf,inf,inf,inf,1,1,1,1,2,1,2,3,0,0,0
74642689,0,0.0,0.0,0.582186,0.17752343,-0.88837916,0.20331125,0.49127465,-0.25526088,-0.046469133,0.03833871,-0.14211978,-0.14689015,0.0021388521,-0.00409127,-0.002900156,2.0988557,-0.2157897,2.1086373,3.0985,0.0,0.9512064,0.14211978,0.00518251,0.003558417,0.025835635,0.017132152,inf,inf,inf,inf,1,1,1,1,2,1,2,3,0,0,0
74746695,0,0.0,0.0,0.5786602,0.18024506,-0.9031886,0.20331125,0.49127465,-0.25526088,-0.03191807,0.043014467,-0.14427757,-0.14781724,0.0021388521,-0.00409127,-0.002900156,2.3665535,1.2515494,0.71961266,3.1028082,0.0,0.9660158,0.14427757,0.0052786334,0.0036201037,0.02611889,0.017298311,inf,inf,inf,inf,1,1,1,1,2,1,2,3,0,0,0
74850683,0,0.0,0.0,0.5759011,0.1845022,-0.9176784,0.20331125,0.49127465,-0.25526088,-0.03398595,0.04830798,-0.13329422,-0.1356877,0.0021388521,-0.00409127,-0.002900156,-1.0527828,-3.053132,-0.4340576,3.1061373,0.0,0.98050565,0.13329422,0.0053569176,0.0036709013,0.026303241,0.01740488,inf,inf,inf,inf,1,1,1,1,2,1,2,3,0,0,0
74946682,0,0.0,0.0,0.57384217,0.18963344,-0.9277107,0.20331125,0.49127465,-0.25526088,-0.027241103,0.054867495,-0.09007694,-0.09150969,0.0021388521,-0.00409127,-0.002900156,-2.4381697,2.1858442,0.56095463,3.108365,0.0,0.99053794,0.09007694,0.0052754194,0.0036182161,0.026113622,0.01727707,inf,inf,inf,inf,1,1,1,1,2,1,2,3,0,0,0
75050672,0,0.0,0.0,0.57260686,0.19590685,-0.93267184,0.20331125,0.49127465,-0.25526088,-0.019717716,0.061691124,-0.03893632,-0.038920224,0.0021388521,-0.00409127,-0.002900156,-1.4633223,1.6716027,0.24878609,3.1095378,0.0,0.9954991,0.03893632,0.0053402125,0.0036597464,0.026251461,0.0173721,inf,inf,inf,inf,1,1,1,1,2,1,2,3,0,0,0
75154670,0,0.0,0.0,0.5735004,0.20306648,-0.9317324,0.20331125,0.49127465,-0.25526088,0.012602796,0.061622962,0.011027173,0.013681327,0.0021388521,-0.00409127,-0.002900156,3.1514482,0.020158198,2.3937411,3.1122003,0.0,0.99455965,-0.011027173,0.0054188594,0.0037109402,0.026451755,0.017507033,inf,inf,inf,inf,1,1,1,1,2,1,2,3,0,0,0
75252270,0,0.0,0.0,0.5749863,0.20981781,-0.92529917,0.20331125,0.49127465,-0.25526088,-0.0042529018,0.059251767,0.04413606,0.04996851,0.0021388521,-0.00409127,-0.002900156,-1.3647413,1.8582356,0.98519564,3.1153936,0.0,0.9881264,-0.04413606,0.0053005135,0.0036366158,0.02610152,0.01730489,inf,inf,inf,inf,1,1,1,1,2,1,2,3,0,0,0
75353889,0,0.0,0.0,0.57707995,0.21575451,-0.91398275,0.20331125,0.49127465,-0.25526088,0.017811453,0.037194073,0.072321385,0.08164945,0.0021388521,-0.00409127,-0.002900156,3.9666607,-0.70623326,1.1554242,3.1170669,0.0,0.97681,-0.072321385,0.005392299,0.0036956551,0.026371477,0.017465448,inf,inf,inf,inf,1,1,1,1,2,1,2,3,0,0,0
75457916,0,0.0,0.0,0.5799029,0.21997027,-0.9013942,0.20331125,0.49127465,-0.25526088,0.02709107,0.033019166,0.07156592,0.08339775,0.0021388521,-0.00409127,-0.002900156,0.55467737,1.2409894,-0.92819726,3.117196,0.0,0.9642214,-0.07156592,0.0051067867,0.003511885,0.025685338,0.017077798,inf,inf,inf,inf,1,1,1,1,2,1,2,3,0,0,0
75553920,0,0.0,0.0,0.5831333,0.22204016,-0.89081645,0.20331125,0.49127465,-0.25526088,0.03920636,0.010375879,0.06870688,0.081218325,0.0021388521,-0.00409127,-0.002900156,1.7417098,-0.2754538,-0.3621827,3.1164274,0.0,0.9536437,-0.06870688,0.0053986222,0.003699336,0.026463373,0.017514871,inf,inf,inf,inf,1,1,1,1,2,1,2,3,0,0,0
75657913,0,0.0,0.0,0.5877006,0.2221456,-0.88152486,0.20331125,0.49127465,-0.25526088,0.04713301,-0.00396571,0.05963334,0.07081876,0.0021388521,-0.00409127,-0.002900156,-2.7507496,1.362051,-1.578507,3.1144989,0.0,0.9443521,-0.05963334,0.0051027606,0.003507371,0.025679965,0.017022371,inf,inf,inf,inf,1,1,1,1,2,1,2,3,0,0,0
75761869,0,0.0,0.0,0.59327835,0.22044389,-0.8757114,0.20331125,0.49127465,-0.25526088,0.05282039,-0.016698817,0.054733846,0.06290908,0.0021388521,-0.00409127,-0.002900156,-1.6679816,-2.005046,1.8644788,3.1103878,0.0,0.9385386,-0.054733846,0.005164379,0.0035466682,0.02581706,0.017094536,inf,inf,inf,inf,1,1,1,1,2,1,2,3,0,0,0
75865870,0,0.0,0.0,0.60000503,0.21725683,-0.8729995,0.20331125,0.49127465,-0.25526088,0.08145261,-0.027334584,0.046393346,0.05061412,0.0021388521,-0.00409127,-0.002900156,4.336371,-1.941977,0.47888348,3.1055136,0.0,0.9358267,-0.046393346,0.005239007,0.0035935803,0.026037581,0.017212603,inf,inf,inf,inf,1,1,1,1,2,1,2,3,0,0,0
75969869,0,0.0,0.0,0.607897,0.21327667,-0.87256634,0.20331125,0.49127465,-0.25526088,0.085567035,-0.013870172,0.03206019,0.032319,0.0021388521,-0.00409127,-0.002900156,-0.48150218,1.7562997,-1.3973957,3.1007488,0.0,0.9353936,-0.03206019,0.0052919704,0.0036268693,0.02618012,0.017290378,inf,inf,inf,inf,1,1,1,1,2,1,2,3,0,0,0
76065870,0,0.0,0.0,0.61623514,0.20970915,-0.8735185,0.20331125,0.49127465,-0.25526088,0.090864964,-0.014984166,0.028280104,0.025405817,0.0021388521,-0.00409127,-0.002900156,0.994824,3.4249954,-0.32974362,3.0953012,0.0,0.93634576,-0.028280104,0.005218501,0.0035785602,0.026018493,0.01720423,inf,inf,inf,inf,1,1,1,1,2,1,2,3,0,0,0
76169914,0,0.0,0.0,0.62670815,0.20697077,-0.8748582,0.20331125,0.49127465,-0.25526088,0.10307441,-0.0039374735,0.032918334,0.02752375,0.0021388521,-0.00409127,-0.002900156,1.334927,1.269172,0.4387457,3.0885572,0.0,0.93768543,-0.032918334,0.0053192615,0.0036428522,0.026295764,0.017375123,inf,inf,inf,inf,1,1,1,1,2,1,2,3,0,0,0
76273876,0,0.0,0.0,0.6377199,0.20688218,-0.87499857,0.20331125,0.49127465,-0.25526088,0.095043175,0.0060063642,0.031308684,0.024454623,0.0021388521,-0.00409127,-0.002900156,-4.420358,0.38137537,-0.7241863,3.083832,0.0,0.9378258,-0.031308684,0.005416584,0.003705906,0.02651478,0.017516196,inf,inf,inf,inf,1,1,1,1,2,1,2,3,0,0,0
76369869,0,0.0,0.0,0.64762914,0.20940855,-0.8741255,0.20331125,0.49127465,-0.25526088,0.109904855,0.010576263,0.038315695,0.031150784,0.0021388521,-0.00409127,-0.002900156,4.6357274,-1.6127312,-0.27815375,3.0809448,0.0,0.9369527,-0.038315695,0.0053196745,0.003645721,0.026188338,0.017335268,inf,inf,inf,inf,1,1,1,1,2,1,2,3,0,0,0
76473870,0,0.0,0.0,0.65749663,0.2153588,-0.87300044,0.20331125,0.49127465,-0.25526088,0.09356281,0.053636454,0.017046614,0.010290556,0.0021388521,-0.00409127,-0.002900156,-1.8192999,3.5102494,-1.4486724,3.0796864,0.0,0.9358277,-0.017046614,0.0053716023,0.003680602,0.026300507,0.017403299,inf,inf,inf,inf,1,1,1,1,2,1,2,3,0,0,0
76577876,0,0.0,0.0,0.66572994,0.22464323,-0.87246233,0.20331125,0.49127465,-0.25526088,0.09407951,0.06627744,0.00643204,0.0002394877,0.0021388521,-0.00409127,-0.002900156,2.3224292,0.53918236,-0.97732353,3.0794175,0.0,0.93528956,-0.00643204,0.0050700447,0.0034858712,0.025558513,0.016965246,inf,inf,inf,inf,1,1,1,1,2,1,2,3,0,0,0
76673870,0,0.0,0.0,0.6717609,0.2356323,-0.8724268,0.20331125,0.49127465,-0.25526088,0.076344624,0.0815344,0.012969542,0.0070422413,0.0021388521,-0.00409127,-0.002900156,1.7612473,-0.16304773,0.51081175,3.0780191,0.0,0.93525404,-0.012969542,0.005371306,0.0036796182,0.026375385,0.017433694,inf,inf,inf,inf,1,1,1,1,2,1,2,3,0,0,0
76777871,0,0.0,0.0,0.6762396,0.24907936,-0.8717621,0.20331125,0.49127465,-0.25526088,0.06423119,0.0903771,0.020462511,0.014598534,0.0021388521,-0.00409127,-0.002900156,0.9120606,0.6972846,-0.3384373,3.078184,0.0,0.9345893,-0.020462511,0.005451914,0.003730516,0.02658872,0.01754885,inf,inf,inf,inf,1,1,1,1,2,1,2,3,0,0,0
76881876,0,0.0,0.0,0.67847997,0.2629414,-0.87078965,0.20331125,0.49127465,-0.25526088,0.03266256,0.099119425,0.007758771,0.002134021,0.0021388521,-0.00409127,-0.002900156,-4.9772105,1.2120861,-2.216867,3.0794966,0.0,0.9336169,-0.007758771,0.0051490213,0.0035350947,0.025800424,0.017093997,inf,inf,inf,inf,1,1,1,1,2,1,2,3,0,0,0
76985870,0,0.0,0.0,0.67925864,0.27690694,-0.8700092,0.20331125,0.49127465,-0.25526088,0.021691237,0.10372508,0.012835806,0.007729266,0.0021388521,-0.00409127,-0.002900156,-0.30515638,0.14555958,0.7456065,3.0794108,0.0,0.9328364,-0.012835806,0.0052150018,0.0035784312,0.025933014,0.017177448,inf,inf,inf,inf,1,1,1,1,2,1,2,3,0,0,0
77089870,0,0.0,0.0,0.6789153,0.29072142,-0.8682728,0.20331125,0.49127465,-0.25526088,0.016033994,0.10681069,0.029155418,0.024643509,0.0021388521,-0.00409127,-0.002900156,1.5494777,1.027039,-0.9350589,3.0778742,0.0,0.9311,-0.029155418,0.005297998,0.003631549,0.026193244,0.017324517,inf,inf,inf,inf,1,1,1,1,2,1,2,3,0,0,0
77185889,0,0.0,0.0,0.6774704,0.3018537,-0.8658458,0.20331125,0.49127465,-0.25526088,-0.0037545818,0.09346183,0.024755925,0.020929158,0.0021388521,-0.00409127,-0.002900156,1.6836607,-0.39802232,2.2546957,3.0770786,0.0,0.928673,-0.024755925,0.005234933,0.0035906509,0.02602622,0.017230807,inf,inf,inf,inf,1,1,1,1,2,1,2,3,0,0,0
77289870,0,0.0,0.0,0.67484665,0.31208882,-0.86413634,0.20331125,0.49127465,-0.25526088,-0.0069738636,0.087035626,0.0015297782,-0.0012815316,0.0021388521,-0.00409127,-0.002900156,1.9116569,-1.6365331,-0.5216638,3.077621,0.0,0.92696357,-0.0015297782,0.0053086122,0.0036389004,0.02619504,0.017340021,inf,inf,inf,inf,1,1,1,1,2,1,2,3,0,0,0
77393091,0,0.0,0.0,0.6715133,0.31946924,-0.86424404,0.20331125,0.49127465,-0.25526088,-0.02232943,0.060688134,-0.0062289615,-0.0083128465,0.0021388521,-0.00409127,-0.002900156,0.4157519,0.15534988,0.02565553,3.078981,0.0,0.9270713,0.0062289615,0.005408609,0.0037029232,0.026486896,0.017502826,inf,inf,inf,inf,1,1,1,1,2,1,2,3,0,0,0
77497072,0,0.0,0.0,0.66674393,0.32305437,-0.86448026,0.20331125,0.49127465,-0.25526088,-0.035523076,0.04135796,-0.0041291877,-0.0060855756,0.0021388521,-0.00409127,-0.002900156,2.3885403,0.8001359,0.32224026,3.0790117,0.0,0.9273075,0.0041291877,0.0051026572,0.0035057277,0.02567693,0.01700999,inf,inf,inf,inf,1,1,1,1,2,1,2,3,0,0,0
77601075,0,0.0,0.0,0.6607863,0.32322413,-0.8653464,0.20331125,0.49127465,-0.25526088,-0.043767467,0.013096805,-0.014170569,-0.016123556,0.0021388521,-0.00409127,-0.002900156,-0.029883757,1.6696504,-1.0366155,3.0766003,0.0,0.9281736,0.014170569,0.005140074,0.003529804,0.025719453,0.01704586,inf,inf,inf,inf,1,1,1,1,2,1,2,3,0,0,0
77705098,0,0.0,0.0,0.65436476,0.31813735,-0.8683583,0.20331125,0.49127465,-0.25526088,-0.053367455,-0.03622555,-0.033392023,-0.035229575,0.0021388521,-0.00409127,-0.002900156,-1.204356,0.6758843,0.83663094,3.0708442,0.0,0.93118554,0.033392023,0.005215017,0.0035774887,0.025986712,0.017206244,inf,inf,inf,inf,1,1,1,1,2,1,2,3,0,0,0
77801076,0,0.0,0.0,0.64798546,0.30882335,-0.8728135,0.20331125,0.49127465,-0.25526088,-0.06578522,-0.08009371,-0.046876263,-0.048815064,0.0021388521,-0.00409127,-0.002900156,-0.5766254,-5.5881066,1.2381434,3.0616174,0.0,0.93564075,0.046876263,0.0051529286,0.0035371792,0.02585861,0.017119547,inf,inf,inf,inf,1,1,1,1,2,1,2,3,0,0,0
77905073,0,0.0,0.0,0.64113164,0.29486558,-0.8780501,0.20331125,0.49127465,-0.25526088,-0.07316668,-0.0875871,-0.034159657,-0.03652643,0.0021388521,-0.00409127,-0.002900156,-1.405311,0.38152856,1.386849,3.0523899,0.0,0.9408773,0.034159657,0.00522312,0.0035823688,0.026016917,0.017204762,inf,inf,inf,inf,1,1,1,1,2,1,2,3,0,0,0
78009076,0,0.0,0.0,0.6348521,0.27748796,-0.8820337,0.20331125,0.49127465,-0.25526088,-0.066837505,-0.111739874,-0.023668516,-0.026292695,0.0021388521,-0.00409127,-0.002900156,-0.6577412,0.95167565,0.5234472,3.0427911,0.0,0.94486094,0.023668516,0.005286374,0.0036228274,0.02615322,0.017289415,inf,inf,inf,inf,1,1,1,1,2,1,2,3,0,0,0
78113070,0,0.0,0.0,0.6294023,0.25869352,-0.88319504,0.20331125,0.49127465,-0.25526088,-0.061914787,-0.121424034,0.0010626223,-0.0009788848,0.0021388521,-0.00409127,-0.002900156,-0.31935614,2.6373804,0.43035316,3.0359147,0.0,0.9460223,-0.0010626223,0.005366704,0.003674503,0.02637583,0.017433047,inf,inf,inf,inf,1,1,1,1,2,1,2,3,0,0,0
78209074,0,0.0,0.0,0.6246898,0.24096526,-0.8809484,0.20331125,0.49127465,-0.25526088,-0.056112144,-0.13051504,0.021538857,0.020950057,0.0021388521,-0.00409127,-0.002900156,2.2813396,-0.46162155,-0.6823682,3.0314808,0.0,0.94377565,-0.021538857,0.0052816933,0.0036210066,0.026112175,0.017291607,inf,inf,inf,inf,1,1,1,1,2,1,2,3,0,0,0
78313080,0,0.0,0.0,0.62002546,0.22286753,-0.87487125,0.20331125,0.49127465,-0.25526088,-0.05512801,-0.12795506,0.048494946,0.050282978,0.0021388521,-0.00409127,-0.002900156,0.81616706,-2.1263542,0.19082725,3.0283504,0.0,0.9376985,-0.048494946,0.0053561726,0.003669993,0.02630023,0.01740101,inf,inf,inf,inf,1,1,1,1,2,1,2,3,0,0,0
78417092,0,0.0,0.0,0.61623585,0.20767266,-0.86495095,0.20331125,0.49127465,-0.25526088,-0.057892874,-0.11556735,0.080982015,0.08543041,0.0021388521,-0.00409127,-0.002900156,-2.0806727,-0.8200606,0.49498117,3.0271306,0.0,0.9277782,-0.080982015,0.0050674877,0.003483623,0.025577588,0.016970498,inf,inf,inf,inf,1,1,1,1,2,1,2,3,0,0,0
78521069,0,0.0,0.0,0.61248827,0.19591112,-0.8509015,0.20331125,0.49127465,-0.25526088,-0.053114578,-0.09978859,0.1095022,0.11644233,0.0021388521,-0.00409127,-0.002900156,1.0540289,-0.44247824,-0.79431605,3.0291748,0.0,0.9137287,-0.1095022,0.005147058,0.0035347852,0.025788033,0.017084131,inf,inf,inf,inf,1,1,1,1,2,1,2,3,0,0,0
78617076,0,0.0,0.0,0.609235,0.18826108,-0.8356314,0.20331125,0.49127465,-0.25526088,-0.051996626,-0.0885653,0.12924342,0.13808678,0.0021388521,-0.00409127,-0.002900156,2.3380225,1.6046512,1.1476411,3.0324423,0.0,0.8984586,-0.12924342,0.0054358016,0.0037206872,0.026520826,0.017519202,inf,inf,inf,inf,1,1,1,1,2,1,2,3,0,0,0
78721070,0,0.0,0.0,0.6057882,0.183547,-0.8183798,0.20331125,0.49127465,-0.25526088,-0.056012206,-0.06460875,0.13731574,0.14754973,0.0021388521,-0.00409127,-0.002900156,1.1267834,2.7527785,1.2416942,3.0341234,0.0,0.88120705,-0.13731574,0.0051392238,0.0035292057,0.025760481,0.017071592,inf,inf,inf,inf,1,1,1,1,2,1,2,3,0,0,0
78825080,0,0.0,0.0,0.6020078,0.18183404,-0.79987264,0.20331125,0.49127465,-0.25526088,-0.052381746,-0.042353325,0.15996303,0.1704594,0.0021388521,-0.00409127,-0.002900156,1.8570818,2.4133136,0.08325201,3.0386872,0.0,0.86269987,-0.15996303,0.0051955367,0.0035658153,0.025885196,0.017137388,inf,inf,inf,inf,1,1,1,1,2,1,2,3,0,0,0
78921076,0,0.0,0.0,0.5978333,0.18256234,-0.7817754,0.20331125,0.49127465,-0.25526088,-0.062714875,-0.03149917,0.17057985,0.1804616,0.0021388521,-0.00409127,-0.002900156,0.9686104,-0.08025822,-1.6137985,3.0435402,0.0,0.84460264,-0.17057985,0.005140074,0.0035288867,0.025785102,0.017082864,inf,inf,inf,inf,1,1,1,1,2,1,2,3,0,0,0
79025080,0,0.0,0.0,0.5919649,0.18471426,-0.76270247,0.20331125,0.49127465,-0.25526088,-0.07522451,-0.010784531,0.16210228,0.17106973,0.0021388521,-0.00409127,-0.002900156,-1.5203742,-0.20658736,-0.8108931,3.0506747,0.0,0.8255297,-0.16210228,0.005228284,0.0035860857,0.025990542,0.017211314,inf,inf,inf,inf,1,1,1,1,2,1,2,3,0,0,0
79129070,0,0.0,0.0,0.5840712,0.18753129,-0.7458658,0.20331125,0.49127465,-0.25526088,-0.09035561,-0.010116333,0.15060027,0.15816765,0.0021388521,-0.00409127,-0.002900156,0.6170376,0.12802857,-1.3037667,3.0589516,0.0,0.80869305,-0.15060027,0.0053205756,0.00364594,0.026245264,0.01736102,inf,inf,inf,inf,1,1,1,1,2,1,2,3,0,0,0
79232290,0,0.0,0.0,0.5737486,0.19048779,-0.73229074,0.20331125,0.49127465,-0.25526088,-0.10089663,0.0030067496,0.13310206,0.13855436,0.0021388521,-0.00409127,-0.002900156,2.6572587,0.74604315,1.8796462,3.0677633,0.0,0.795118,-0.13310206,0.005393003,0.003693318,0.026408585,0.017448762,inf,inf,inf,inf,1,1,1,1,2,1,2,3,0,0,0
79328269,0,0.0,0.0,0.5628882,0.19325311,-0.7233854,0.20331125,0.49127465,-0.25526088,-0.101743646,0.015183902,0.08592888,0.088672996,0.0021388521,-0.00409127,-0.002900156,-2.6249797,0.4260505,-2.7458084,3.0745058,0.0,0.7862126,-0.08592888,0.005291544,0.003628349,0.026139915,0.017295701,inf,inf,inf,inf,1,1,1,1,2,1,2,3,0,0,0
79432270,0,0.0,0.0,0.55054986,0.1954919,-0.71873724,0.20331125,0.49127465,-0.25526088,-0.111761495,0.008632552,0.068593875,0.06787587,0.0021388521,-0.00409127,-0.002900156,-0.061954137,2.3419464,0.6305788,3.080413,0.0,0.7815645,-0.068593875,0.0053377305,0.0036571424,0.026277125,0.01735495,inf,inf,inf,inf,1,1,1,1,2,1,2,3,0,0,0
79536285,0,0.0,0.0,0.53829813,0.19613367,-0.7184653,0.20331125,0.49127465,-0.25526088,-0.100735866,0.00868513,0.027770674,0.023328764,0.0021388521,-0.00409127,-0.002900156,1.6065453,1.961487,0.36296797,3.0870192,0.0,0.78129256,-0.027770674,0.0054069543,0.0036993749,0.026514297,0.01745819,inf,inf,inf,inf,1,1,1,1,2,1,2,3,0,0,0
79632270,0,0.0,0.0,0.5276929,0.19626084,-0.72155935,0.20331125,0.49127465,-0.25526088,-0.106036276,0.0016617251,0.0081580905,0.0006205866,0.0021388521,-0.00409127,-0.002900156,0.77528834,1.4391817,0.35724574,3.092454,0.0,0.7843866,-0.0081580905,0.005364237,0.0036700615,0.026491337,0.01745249,inf,inf,inf,inf,1,1,1,1,2,1,2,3,0,0,0
79736319,0,0.0,0.0,0.5170953,0.1942991,-0.7271782,0.20331125,0.49127465,-0.25526088,-0.08926451,-0.011811791,-0.008232464,-0.018308714,0.0021388521,-0.00409127,-0.002900156,3.7572553,2.6072915,0.20926696,3.0978117,0.0,0.79000545,0.008232464,0.0054601296,0.0037299013,0.026745876,0.017582262,inf,inf,inf,inf,1,1,1,1,2,1,2,3,0,0,0
79840278,0,0.0,0.0,0.50803876,0.19151263,-0.7339895,0.20331125,0.49127465,-0.25526088,-0.078709744,-0.020574689,-0.037882578,-0.04931874,0.0021388521,-0.00409127,-0.002900156,-0.83976793,-0.80525535,-0.63758653,3.1024876,0.0,0.7968167,0.037882578,0.005140121,0.0035253207,0.025844289,0.017063491,inf,inf,inf,inf,1,1,1,1,2,1,2,3,0,0,0
79936270,0,0.0,0.0,0.50066996,0.18729585,-0.7411736,0.20331125,0.49127465,-0.25526088,-0.0759453,-0.021074226,-0.044182166,-0.05580994,0.0021388521,-0.00409127,-0.002900156,2.5677638,-0.0659139,-0.018685069,3.1068943,0.0,0.80400085,0.044182166,0.005455959,0.0037273602,0.026665835,0.017557146,inf,inf,inf,inf,1,1,1,1,2,1,2,3,0,0,0
80040309,0,0.0,0.0,0.49391958,0.1829066,-0.74981403,0.20331125,0.49127465,-0.25526088,-0.080815084,-0.02875569,-0.07024926,-0.08118664,0.0021388521,-0.00409127,-0.002900156,-2.9793289,-3.0025492,-0.8310686,3.1089997,0.0,0.81264126,0.07024926,0.0051383264,0.0035243547,0.025814496,0.017053781,inf,inf,inf,inf,1,1,1,1,2,1,2,3,0,0,0
80144306,0,0.0,0.0,0.4884009,0.17752555,-0.75880265,0.20331125,0.49127465,-0.25526088,-0.06542971,-0.026775423,-0.07972971,-0.089425825,0.0021388521,-0.00409127,-0.002900156,-0.28211844,-1.5959309,0.91902107,3.1106048,0.0,0.8216299,0.07972971,0.005216326,0.0035743504,0.026028853,0.017178426,inf,inf,inf,inf,1,1,1,1,2,1,2,3,0,0,0
80240270,0,0.0,0.0,0.4851414,0.17364468,-0.76772594,0.20331125,0.49127465,-0.25526088,-0.043662716,-0.010674876,-0.08578091,-0.09414464,0.0021388521,-0.00409127,-0.002900156,3.5454464,1.2492541,1.5619899,3.1117694,0.0,0.8305532,0.08578091,0.00515505,0.0035343247,0.025887938,0.017095096,inf,inf,inf,inf,1,1,1,1,2,1,2,3,0,0,0
80344317,0,0.0,0.0,0.48366356,0.17028181,-0.7768826,0.20331125,0.49127465,-0.25526088,-0.024592793,-0.006824713,-0.08976953,-0.09659419,0.0021388521,-0.00409127,-0.002900156,0.78209025,-1.3416792,-0.8107148,3.1113188,0.0,0.8397098,0.08976953,0.0052432795,0.003590658,0.026124928,0.017230466,inf,inf,inf,inf,1,1,1,1,2,1,2,3,0,0,0
80448269,0,0.0,0.0,0.48381233,0.16906214,-0.7850636,0.20331125,0.49127465,-0.25526088,-0.01687261,0.011858951,-0.08119858,-0.08627214,0.0021388521,-0.00409127,-0.002900156,-2.2637963,2.0264537,-0.07502697,3.1111367,0.0,0.84789085,0.08119858,0.005299162,0.003627329,0.026206579,0.0172917,inf,inf,inf,inf,1,1,1,1,2,1,2,3,0,0,0
80552277,0,0.0,0.0,0.48478994,0.16991569,-0.79205793,0.20331125,0.49127465,-0.25526088,0.005986257,0.023108322,-0.07809816,-0.08106028,0.0021388521,-0.00409127,-0.002900156,3.0543308,0.45497072,1.8090528,3.1136868,0.0,0.85488516,0.07809816,0.0053544445,0.0036637571,0.026332682,0.017373491,inf,inf,inf,inf,1,1,1,1,2,1,2,3,0,0,0
80648270,0,0.0,0.0,0.4856862,0.17259178,-0.79805195,0.20331125,0.49127465,-0.25526088,0.0024980057,0.023742778,-0.09468078,-0.09549508,0.0021388521,-0.00409127,-0.002900156,-4.081887,-3.134038,0.8702694,3.1173923,0.0,0.8608792,0.09468078,0.005275508,0.003613745,0.026134493,0.017270684,inf,inf,inf,inf,1,1,1,1,2,1,2,3,0,0,0
80752314,0,0.0,0.0,0.48807815,0.1770878,-0.80654967,0.20331125,0.49127465,-0.25526088,0.03888912,0.04465897,-0.110851035,-0.109609574,0.0021388521,-0.00409127,-0.002900156,3.824866,0.90019,0.5580294,3.1207907,0.0,0.8693769,0.110851035,0.0053641684,0.0036707423,0.026398554,0.017429832,inf,inf,inf,inf,1,1,1,1,2,1,2,3,0,0,0
80856270,0,0.0,0.0,0.49165985,0.1833663,-0.8169267,0.20331125,0.49127465,-0.25526088,0.051921617,0.06880152,-0.12322511,-0.12088905,0.0021388521,-0.00409127,-0.002900156,1.1863477,1.932921,-0.9465239,3.1242373,0.0,0.87975395,0.12322511,0.0054368256,0.0037177908,0.026592772,0.017521776,inf,inf,inf,inf,1,1,1,1,2,1,2,3,0,0,0
80952270,0,0.0,0.0,0.49631602,0.1910955,-0.827108,0.20331125,0.49127465,-0.25526088,0.05644159,0.06896503,-0.12363494,-0.121049754,0.0021388521,-0.00409127,-0.002900156,-1.7644895,-1.2842387,0.4218696,3.1279483,0.0,0.88993526,0.12363494,0.0053305337,0.0036498683,0.026276566,0.017333621,inf,inf,inf,inf,1,1,1,1,2,1,2,3,0,0,0
81056307,0,0.0,0.0,0.5017166,0.20046906,-0.8382764,0.20331125,0.49127465,-0.25526088,0.03436534,0.08224147,-0.104647264,-0.102182105,0.0021388521,-0.00409127,-0.002900156,-4.714946,0.66500294,1.3169489,3.135146,0.0,0.9011036,0.104647264,0.0054536965,0.0037265026,0.026671328,0.017564546,inf,inf,inf,inf,1,1,1,1,2,1,2,3,0,0,0
81160286,0,0.0,0.0,0.50643814,0.21022774,-0.8476714,0.20331125,0.49127465,-0.25526088,0.043854583,0.0879298,-0.086936906,-0.08424195,0.0021388521,-0.00409127,-0.002900156,2.0786424,0.81351465,0.59679717,-3.1412501,0.0,0.9104986,0.086936906,0.005137097,0.0035243735,0.025781795,0.017052459,inf,inf,inf,inf,1,1,1,1,2,1,2,3,0,0,0
81254696,0,0.0,0.0,0.51091015,0.21833105,-0.85350007,0.20331125,0.49127465,-0.25526088,0.065878905,0.08383344,-0.062470473,-0.058933403,0.0021388521,-0.00409127,-0.002900156,1.5863163,1.1340206,-0.09157836,-3.1359768,0.0,0.9163273,0.062470473,0.0054669594,0.003736185,0.026656045,0.01758264,inf,inf,inf,inf,1,1,1,1,2,1,2,3,0,0,0
81359489,0,0.0,0.0,0.51575726,0.22597378,-0.8551965,0.20331125,0.49127465,-0.25526088,0.029880404,0.057510816,-0.0056155445,-0.0003494983,0.0021388521,-0.00409127,-0.002900156,-7.2722406,-1.7910552,2.2062042,-3.1317794,0.0,0.9180237,0.0056155445,0.005153778,0.0035367208,0.025795704,0.017082796,inf,inf,inf,inf,1,1,1,1,2,1,2,3,0,0,0
81463470,0,0.0,0.0,0.51926744,0.23189281,-0.848657,0.20331125,0.49127465,-0.25526088,0.03212175,0.04789644,0.056780837,0.06466792,0.0021388521,-0.00409127,-0.002900156,-1.9996599,0.6034402,0.8135536,-3.1305735,0.0,0.91148424,-0.056780837,0.0052071917,0.0035720156,0.025944522,0.017173802,inf,inf,inf,inf,1,1,1,1,2,1,2,3,0,0,0
81567498,0,0.0,0.0,0.5216231,0.23539862,-0.83505666,0.20331125,0.49127465,-0.25526088,0.029959701,0.029356772,0.08995207,0.10152493,0.0021388521,-0.00409127,-0.002900156,-5.673171,-0.29678273,-1.5629997,-3.1320846,0.0,0.8978839,-0.08995207,0.005268422,0.0036116655,0.026110671,0.01726788,inf,inf,inf,inf,1,1,1,1,2,1,2,3,0,0,0
81663489,0,0.0,0.0,0.522864,0.23711206,-0.81847304,0.20331125,0.49127465,-0.25526088,0.043902777,0.026006853,0.12173784,0.13693471,0.0021388521,-0.00409127,-0.002900156,0.53630525,-0.4794326,-0.43310574,-3.134334,0.0,0.8813003,-0.12173784,0.0052049127,0.0035707038,0.02596474,0.017182674,inf,inf,inf,inf,1,1,1,1,2,1,2,3,0,0,0
81767470,0,0.0,0.0,0.52383685,0.23808438,-0.79776776,0.20331125,0.49127465,-0.25526088,0.037248027,0.017935542,0.1479857,0.16603968,0.0021388521,-0.00409127,-0.002900156,-2.0520492,1.1008475,0.89962906,-3.1381426,0.0,0.860595,-0.1479857,0.0052782036,0.003617836,0.026146797,0.017287018,inf,inf,inf,inf,1,1,1,1,2,1,2,3,0,0,0
81871470,0,0.0,0.0,0.5250853,0.237636,-0.7762208,0.20331125,0.49127465,-0.25526088,0.041544784,0.009067755,0.15028036,0.16933797,0.0021388521,-0.00409127,-0.002900156,-1.5440067,-0.29592788,-1.4902223,3.1412666,0.0,0.839048,-0.15028036,0.0053613507,0.0036709497,0.026367033,0.017415103,inf,inf,inf,inf,1,1,1,1,2,1,2,3,0,0,0
81967470,0,0.0,0.0,0.5268168,0.23707095,-0.7580466,0.20331125,0.49127465,-0.25526088,0.061444014,0.014480811,0.14221531,0.16042466,0.0021388521,-0.00409127,-0.002900156,0.7933934,-1.1680212,-1.7001184,3.1390724,0.0,0.82087386,-0.14221531,0.0052799867,0.003618938,0.026141224,0.017286386,inf,inf,inf,inf,1,1,1,1,2,1,2,3,0,0,0
82071498,0,0.0,0.0,0.53043365,0.23585941,-0.7434962,0.20331125,0.49127465,-0.25526088,0.06475845,0.005070771,0.10667337,0.1221337,0.0021388521,-0.00409127,-0.002900156,-0.19524942,1.9549786,0.52003217,3.1364594,0.0,0.8063234,-0.10667337,0.005345015,0.0036610984,0.026307326,0.017382842,inf,inf,inf,inf,1,1,1,1,2,1,2,3,0,0,0
82175470,0,0.0,0.0,0.53669035,0.23516995,-0.73534447,0.20331125,0.49127465,-0.25526088,0.07839883,0.009884651,0.078328304,0.089258716,0.0021388521,-0.00409127,-0.002900156,0.1600006,2.6474588,0.06000066,3.1330006,0.0,0.7981717,-0.078328304,0.005410821,0.0037027695,0.026523218,0.01748606,inf,inf,inf,inf,1,1,1,1,2,1,2,3,0,0,0
82271476,0,0.0,0.0,0.54443085,0.23437023,-0.7327442,0.20331125,0.49127465,-0.25526088,0.084708996,-0.017525116,0.048961207,0.054614082,0.0021388521,-0.00409127,-0.002900156,-0.37727383,-1.0891973,-0.065284446,3.132367,0.0,0.79557145,-0.048961207,0.0053375144,0.0036540201,0.026381359,0.017375583,inf,inf,inf,inf,1,1,1,1,2,1,2,3,0,0,0
82375473,0,0.0,0.0,0.5542336,0.23383631,-0.73431224,0.20331125,0.49127465,-0.25526088,0.093401626,-0.0059752744,0.030690849,0.030520886,0.0021388521,-0.00409127,-0.002900156,-0.848016,3.4610507,0.2614158,3.1316931,0.0,0.79713947,-0.030690849,0.005429081,0.0037104487,0.02664548,0.017523337,inf,inf,inf,inf,1,1,1,1,2,1,2,3,0,0,0
82479470,0,0.0,0.0,0.5648679,0.23338112,-0.7385607,0.20331125,0.49127465,-0.25526088,0.073320135,-0.018139174,0.020557048,0.015463089,0.0021388521,-0.00409127,-0.002900156,-5.229371,0.2725469,0.76525295,3.1336136,0.0,0.8013879,-0.020557048,0.0051134373,0.0035079778,0.025758613,0.017020144,inf,inf,inf,inf,1,1,1,1,2,1,2,3,0,0,0
82575486,0,0.0,0.0,0.5739267,0.23325737,-0.7420427,0.20331125,0.49127465,-0.25526088,0.08600209,-0.0149891395,0.021834621,0.01368464,0.0021388521,-0.00409127,-0.002900156,-0.6842057,-1.6444287,-0.12237318,3.1382983,0.0,0.80486995,-0.021834621,0.0054041385,0.0036946256,0.026514953,0.017471083,inf,inf,inf,inf,1,1,1,1,2,1,2,3,0,0,0
82679471,0,0.0,0.0,0.58349895,0.23337835,-0.74324787,0.20331125,0.49127465,-0.25526088,0.08086772,-0.015425956,0.043290354,0.03386346,0.0021388521,-0.00409127,-0.002900156,-0.6163148,-1.2553221,-1.10438,3.1414468,0.0,0.8060751,-0.043290354,0.0051309294,0.0035198887,0.025776908,0.017075695,inf,inf,inf,inf,1,1,1,1,2,1,2,3,0,0,0
82783470,0,0.0,0.0,0.5920849,0.23352636,-0.7400296,0.20331125,0.49127465,-0.25526088,0.0692483,-0.002133265,0.068261184,0.059666272,0.0021388521,-0.00409127,-0.002900156,-0.8516535,1.0438566,-0.3983761,-3.1413407,0.0,0.8028568,-0.068261184,0.005196166,0.003564414,0.025884844,0.017155312,inf,inf,inf,inf,1,1,1,1,2,1,2,3,0,0,0
82879476,0,0.0,0.0,0.5982012,0.23425022,-0.7323866,0.20331125,0.49127465,-0.25526088,0.064554825,0.014044358,0.0910535,0.08488298,0.0021388521,-0.00409127,-0.002900156,3.478312,2.7211506,0.80889606,-3.1401143,0.0,0.7952138,-0.0910535,0.0051227715,0.003518971,0.025672045,0.017050179,inf,inf,inf,inf,1,1,1,1,2,1,2,3,0,0,0
82983470,0,0.0,0.0,0.6027011,0.23585741,-0.7211443,0.20331125,0.49127465,-0.25526088,0.038289923,0.010540472,0.105402134,0.1027909,0.0021388521,-0.00409127,-0.002900156,1.3892958,2.3133218,1.1400636,-3.1407695,0.0,0.78397155,-0.105402134,0.005187307,0.003562398,0.025827842,0.017147664,inf,inf,inf,inf,1,1,1,1,2,1,2,3,0,0,0
83087520,0,0.0,0.0,0.60442585,0.23909754,-0.70700645,0.20331125,0.49127465,-0.25526088,0.026754094,0.021396536,0.11489316,0.11558848,0.0021388521,-0.00409127,-0.002900156,2.4918096,1.2371818,1.1429083,3.13883,0.0,0.7698337,-0.11489316,0.0052518947,0.0036046812,0.026024591,0.017255142,inf,inf,inf,inf,1,1,1,1,2,1,2,3,0,0,0
83189875,0,0.0,0.0,0.60410345,0.24340178,-0.69198453,0.20331125,0.49127465,-0.25526088,0.013482382,0.030139834,0.111826636,0.11492625,0.0021388521,-0.00409127,-0.002900156,1.2110026,-0.955735,-0.14598416,3.1332264,0.0,0.75481176,-0.111826636,0.005329326,0.003654458,0.026234468,0.017377201,inf,inf,inf,inf,1,1,1,1,2,1,2,3,0,0,0
83290676,0,0.0,0.0,0.60272944,0.24854243,-0.67888266,0.20331125,0.49127465,-0.25526088,-0.0013090072,0.035104297,0.100068666,0.10430316,0.0021388521,-0.00409127,-0.002900156,-1.3152238,0.51641256,0.66768306,3.1254766,0.0,0.7417099,-0.100068666,0.0052462895,0.003600643,0.026017442,0.017237762,inf,inf,inf,inf,1,1,1,1,2,1,2,3,0,0,0
83394670,0,0.0,0.0,0.60081714,0.25430393,-0.6678432,0.20331125,0.49127465,-0.25526088,0.018557044,0.03914729,0.07263801,0.07678761,0.0021388521,-0.00409127,-0.002900156,2.2928405,-0.48765928,-0.37886965,3.1163094,0.0,0.73067045,-0.07263801,0.0053867334,0.0036887233,0.026506748,0.0175125,inf,inf,inf,inf,1,1,1,1,2,1,2,3,0,0,0
83497906,0,0.0,0.0,0.59905064,0.25978786,-0.66053987,0.20331125,0.49127465,-0.25526088,0.010730571,0.03653755,0.059441447,0.0622104,0.0021388521,-0.00409127,-0.002900156,1.3299955,2.3958108,1.5188723,3.1072967,0.0,0.7233671,-0.059441447,0.005515652,0.003772736,0.026906867,0.017754741,inf,inf,inf,inf,1,1,1,1,2,1,2,3,0,0,0
83594676,0,0.0,0.0,0.59808385,0.26433638,-0.6577147,0.20331125,0.49127465,-0.25526088,0.012257452,0.02496439,0.033541813,0.034059923,0.0021388521,-0.00409127,-0.002900156,-1.3713691,-3.6893551,-0.6075436,3.0970836,0.0,0.72054195,-0.033541813,0.0054124515,0.0037056138,0.026612742,0.01756719,inf,inf,inf,inf,1,1,1,1,2,1,2,3,0,0,0
83698669,0,0.0,0.0,0.5983973,0.26849616,-0.6581638,0.20331125,0.49127465,-0.25526088,0.0231806,0.030910647,0.006073288,0.0038356879,0.0021388521,-0.00409127,-0.002900156,-0.12805517,1.2476233,0.2440779,3.0868797,0.0,0.720991,-0.006073288,0.005115859,0.0035130186,0.025827236,0.017080996,inf,inf,inf,inf,1,1,1,1,2,1,2,3,0,0,0
83802672,0,0.0,0.0,0.60059816,0.2716277,-0.6612323,0.20331125,0.49127465,-0.25526088,0.03744574,0.04094322,0.004515775,-0.00023671228,0.0021388521,-0.00409127,-0.002900156,4.1281962,1.1757662,0.8471612,3.081712,0.0,0.7240595,-0.004515775,0.005174679,0.003550632,0.025910852,0.017121982,inf,inf,inf,inf,1,1,1,1,2,1,2,3,0,0,0
83898676,0,0.0,0.0,0.6041957,0.2740015,-0.6649338,0.20331125,0.49127465,-0.25526088,0.030077599,0.026922641,-0.010386607,-0.016790735,0.0021388521,-0.00409127,-0.002900156,-4.619165,-0.305449,0.4871147,3.0791364,0.0,0.72776103,0.010386607,0.005104393,0.003503919,0.025741506,0.017017454,inf,inf,inf,inf,1,1,1,1,2,1,2,3,0,0,0
84002709,0,0.0,0.0,0.6095416,0.2756259,-0.66838735,0.20331125,0.49127465,-0.25526088,0.039517842,0.036847454,-0.0070845434,-0.014183139,0.0021388521,-0.00409127,-0.002900156,-0.23589839,2.887179,0.5738478,3.0790231,0.0,0.7312146,0.0070845434,0.005186822,0.003556474,0.025951685,0.01714893,inf,inf,inf,inf,1,1,1,1,2,1,2,3,0,0,0
84106683,0,0.0,0.0,0.6159656,0.2768639,-0.6703469,0.20331125,0.49127465,-0.25526088,0.05401887,0.03424911,0.001408294,-0.005158582,0.0021388521,-0.00409127,-0.002900156,2.9385314,4.1655474,-0.2937507,3.0829256,0.0,0.73317415,-0.001408294,0.0052522086,0.003599125,0.026080344,0.017226033,inf,inf,inf,inf,1,1,1,1,2,1,2,3,0,0,0
84202679,0,0.0,0.0,0.6224934,0.27681267,-0.6710372,0.20331125,0.49127465,-0.25526088,0.06225168,0.014547612,-0.008959994,-0.014137032,0.0021388521,-0.00409127,-0.002900156,-0.6527415,-0.95631534,-1.0986934,3.087897,0.0,0.7338644,0.008959994,0.0051672193,0.0035447276,0.025850482,0.01710081,inf,inf,inf,inf,1,1,1,1,2,1,2,3,0,0,0
84306705,0,0.0,0.0,0.62962437,0.27641484,-0.67059666,0.20331125,0.49127465,-0.25526088,0.043905977,0.0034045563,-0.0016301357,-0.0048224432,0.0021388521,-0.00409127,-0.002900156,-4.3082786,-3.7665753,0.40407503,3.0917103,0.0,0.7334239,0.0016301357,0.005246754,0.003595898,0.026084045,0.017245999,inf,inf,inf,inf,1,1,1,1,2,1,2,3,0,0,0
84410669,0,0.0,0.0,0.6367103,0.27537647,-0.669085,0.20331125,0.49127465,-0.25526088,0.046769664,0.0032263596,0.0012941211,8.705392e-06,0.0021388521,-0.00409127,-0.002900156,-2.158436,2.093842,-1.461361,3.096105,0.0,0.73191226,-0.0012941211,0.0053166104,0.003641237,0.026251098,0.017342582,inf,inf,inf,inf,1,1,1,1,2,1,2,3,0,0,0
84514678,0,0.0,0.0,0.64319396,0.27327678,-0.6668361,0.20331125,0.49127465,-0.25526088,0.037903756,-0.0031105382,0.005194917,0.005574303,0.0021388521,-0.00409127,-0.002900156,-2.454156,1.27031,0.15150675,3.101883,0.0,0.7296633,-0.005194917,0.0053960527,0.0036926216,0.026455035,0.017464248,inf,inf,inf,inf,1,1,1,1,2,1,2,3,0,0,0
84610683,0,0.0,0.0,0.6484052,0.27104887,-0.66422737,0.20331125,0.49127465,-0.25526088,0.034320448,-0.0170871,0.010066854,0.011721782,0.0021388521,-0.00409127,-0.002900156,-3.6199164,1.1413212,0.34191218,3.104159,0.0,0.7270546,-0.010066854,0.0053287083,0.0036498886,0.02627255,0.017367695,inf,inf,inf,inf,1,1,1,1,2,1,2,3,0,0,0
84714696,0,0.0,0.0,0.6523856,0.26860046,-0.6603836,0.20331125,0.49127465,-0.25526088,0.02361362,-0.014616871,0.018094994,0.020877786,0.0021388521,-0.00409127,-0.002900156,-4.176957,-1.3779016,0.15308481,3.1044633,0.0,0.7232108,-0.018094994,0.0054341736,0.0037178907,0.026541308,0.017531808,inf,inf,inf,inf,1,1,1,1,2,1,2,3,0,0,0
84818670,0,0.0,0.0,0.6545983,0.2659915,-0.65568227,0.20331125,0.49127465,-0.25526088,0.010386568,-0.013574474,0.030772837,0.034456465,0.0021388521,-0.00409127,-0.002900156,-4.201411,1.4725083,1.6232717,3.1025586,0.0,0.7185095,-0.030772837,0.005130043,0.0035229898,0.025729463,0.017063323,inf,inf,inf,inf,1,1,1,1,2,1,2,3,0,0,0
84922670,0,0.0,0.0,0.6558435,0.26364782,-0.6506629,0.20331125,0.49127465,-0.25526088,0.018485328,-0.007831626,0.029219223,0.03365983,0.0021388521,-0.00409127,-0.002900156,1.0021108,1.1604918,-0.7364498,3.098526,0.0,0.7134901,-0.029219223,0.0051928074,0.0035646106,0.025864195,0.017143343,inf,inf,inf,inf,1,1,1,1,2,1,2,3,0,0,0
85018680,0,0.0,0.0,0.65657747,0.26168966,-0.6463481,0.20331125,0.49127465,-0.25526088,0.021292992,-0.00799681,0.024087695,0.028971707,0.0021388521,-0.00409127,-0.002900156,-2.9164445,0.31519407,-0.24326533,3.095182,0.0,0.70917535,-0.024087695,0.0051045883,0.00350826,0.02561253,0.016999405,inf,inf,inf,inf,1,1,1,1,2,1,2,3,0,0,0
85122670,0,0.0,0.0,0.6570812,0.25999922,-0.64254093,0.20331125,0.49127465,-0.25526088,0.017780706,-0.012254783,0.022022648,0.026935399,0.0021388521,-0.00409127,-0.002900156,-3.7560947,-0.4983727,-0.41281357,3.0922823,0.0,0.70536816,-0.022022648,0.005178527,0.003555719,0.025839627,0.017128732,inf,inf,inf,inf,1,1,1,1,2,1,2,3,0,0,0
85225870,0,0.0,0.0,0.65763676,0.2596735,-0.6395816,0.20331125,0.49127465,-0.25526088,0.01706792,0.006266051,0.019185059,0.023603698,0.0021388521,-0.00409127,-0.002900156,-3.2927523,1.1694385,0.54322386,3.087715,0.0,0.70240885,-0.019185059,0.0052464725,0.0035992304,0.026033768,0.017234018,inf,inf,inf,inf,1,1,1,1,2,1,2,3,0,0,0
85329893,0,0.0,0.0,0.6589193,0.26019558,-0.63802934,0.20331125,0.49127465,-0.25526088,0.0307008,0.0022888843,0.004479776,0.008087209,0.0021388521,-0.00409127,-0.002900156,1.2547023,-0.48086888,-0.6456729,3.0829766,0.0,0.70085657,-0.004479776,0.0053221057,0.0036477917,0.026215583,0.017340364,inf,inf,inf,inf,1,1,1,1,2,1,2,3,0,0,0
85425870,0,0.0,0.0,0.66152966,0.26169527,-0.6383257,0.20331125,0.49127465,-0.25526088,0.024514535,0.009003948,0.0024340134,0.00500042,0.0021388521,-0.00409127,-0.002900156,-1.4751773,1.5479378,1.8327168,3.077856,0.0,0.7011529,-0.0024340134,0.005212405,0.0035772552,0.025893498,0.017143484,inf,inf,inf,inf,1,1,1,1,2,1,2,3,0,0,0
85530712,0,0.0,0.0,0.66535276,0.26304144,-0.639961,0.20331125,0.49127465,-0.25526088,0.035721984,0.0049250326,-0.004616691,-0.0034063035,0.0021388521,-0.00409127,-0.002900156,4.2118773,-0.4449188,0.1977773,3.0726554,0.0,0.70278823,0.004616691,0.005295093,0.0036290481,0.026196137,0.017309,inf,inf,inf,inf,1,1,1,1,2,1,2,3,0,0,0
85633876,0,0.0,0.0,0.67027694,0.26369885,-0.6424798,0.20331125,0.49127465,-0.25526088,0.047495704,0.0039193104,-0.011071543,-0.011191667,0.0021388521,-0.00409127,-0.002900156,2.12146,0.8884689,0.8587186,3.068917,0.0,0.705307,0.011071543,0.005387502,0.0036873575,0.026476251,0.017471334,inf,inf,inf,inf,1,1,1,1,2,1,2,3,0,0,0
85729869,0,0.0,0.0,0.6756618,0.26301005,-0.64517057,0.20331125,0.49127465,-0.25526088,0.029323643,-0.013872968,-0.0063540335,-0.00741395,0.0021388521,-0.00409127,-0.002900156,0.3325323,-3.0323675,2.6006901,3.0663705,0.0,0.7079978,0.0063540335,0.0053192773,0.0036438438,0.026283458,0.017365873,inf,inf,inf,inf,1,1,1,1,2,1,2,3,0,0,0
85833869,0,0.0,0.0,0.6809911,0.2607833,-0.6474985,0.20331125,0.49127465,-0.25526088,0.03425299,-0.020413017,-0.0042345338,-0.0058326726,0.0021388521,-0.00409127,-0.002900156,4.72805,0.33871004,1.4214274,3.0663598,0.0,0.7103257,0.0042345338,0.0053726765,0.0036782112,0.026393685,0.017425131,inf,inf,inf,inf,1,1,1,1,2,1,2,3,0,0,0
85937894,0,0.0,0.0,0.6847176,0.25736213,-0.64857453,0.20331125,0.49127465,-0.25526088,0.029225428,-0.015999451,-0.00015101742,-0.0017588168,0.0021388521,-0.00409127,-0.002900156,1.8108212,2.33142,-1.9747945,3.0687609,0.0,0.71140176,0.00015101742,0.0051037846,0.0035044446,0.025721407,0.017033929,inf,inf,inf,inf,1,1,1,1,2,1,2,3,0,0,0
86041874,0,0.0,0.0,0.686887,0.25239745,-0.6478572,0.20331125,0.49127465,-0.25526088,0.0052331286,-0.0288369,0.0097219525,0.00860715,0.0021388521,-0.00409127,-0.002900156,-2.9563742,-0.8970765,-1.2485298,3.072843,0.0,0.7106844,-0.0097219525,0.0051846653,0.0035569984,0.025895497,0.017147528,inf,inf,inf,inf,1,1,1,1,2,1,2,3,0,0,0
86137870,0,0.0,0.0,0.6874335,0.24769399,-0.64655143,0.20331125,0.49127465,-0.25526088,-0.00410923,-0.02556223,0.008660094,0.008388014,0.0021388521,-0.00409127,-0.002900156,1.2133807,-2.10961,1.1914558,3.0757608,0.0,0.70937866,-0.008660094,0.0050910595,0.0034976471,0.025609542,0.016980566,inf,inf,inf,inf,1,1,1,1,2,1,2,3,0,0,0
86241876,0,0.0,0.0,0.68650556,0.24269322,-0.64530313,0.20331125,0.49127465,-0.25526088,-0.010656594,-0.027154047,-0.0030892175,-0.0023540612,0.0021388521,-0.00409127,-0.002900156,2.9865828,-1.3963093,-0.2630984,3.079743,0.0,0.70813036,0.0030892175,0.005159593,0.0035420577,0.025805373,0.017098159,inf,inf,inf,inf,1,1,1,1,2,1,2,3,0,0,0
86345871,0,0.0,0.0,0.6834721,0.23918544,-0.64489543,0.20331125,0.49127465,-0.25526088,-0.031365957,-0.009886932,-0.00709655,-0.0058376067,0.0021388521,-0.00409127,-0.002900156,1.3351206,1.0085615,-1.3674406,3.083262,0.0,0.70772266,0.00709655,0.0052223187,0.0035827216,0.025959596,0.017187396,inf,inf,inf,inf,1,1,1,1,2,1,2,3,0,0,0
86449870,0,0.0,0.0,0.6777034,0.23678891,-0.64567316,0.20331125,0.49127465,-0.25526088,-0.0562263,-0.013985931,-0.011446106,-0.010329919,0.0021388521,-0.00409127,-0.002900156,-4.1396995,-1.4508038,-0.043413892,3.0860724,0.0,0.7085004,0.011446106,0.0052982485,0.0036312116,0.026181737,0.01730825,inf,inf,inf,inf,1,1,1,1,2,1,2,3,0,0,0
86545906,0,0.0,0.0,0.6698443,0.23565863,-0.6470668,0.20331125,0.49127465,-0.25526088,-0.05170229,0.0017918829,-0.012746845,-0.012133613,0.0021388521,-0.00409127,-0.002900156,6.7632155,-1.0939533,0.62203187,3.087175,0.0,0.709894,0.012746845,0.005214904,0.0035778033,0.025947357,0.01717073,inf,inf,inf,inf,1,1,1,1,2,1,2,3,0,0,0
86649870,0,0.0,0.0,0.65985596,0.23576914,-0.6490894,0.20331125,0.49127465,-0.25526088,-0.07918126,-0.0058680573,-0.01684721,-0.016898261,0.0021388521,-0.00409127,-0.002900156,-3.4285998,-0.5107882,-0.53778464,3.0876749,0.0,0.7119166,0.01684721,0.005297799,0.0036304763,0.026193228,0.017325468,inf,inf,inf,inf,1,1,1,1,2,1,2,3,0,0,0
86753870,0,0.0,0.0,0.64887947,0.23599704,-0.651497,0.20331125,0.49127465,-0.25526088,-0.08976427,0.002591453,-0.018412193,-0.01899267,0.0021388521,-0.00409127,-0.002900156,-1.5173464,2.3652277,-0.63619953,3.0873592,0.0,0.71432424,0.018412193,0.0054238294,0.00371043,0.026560823,0.017541084,inf,inf,inf,inf,1,1,1,1,2,1,2,3,0,0,0
