timestamp,x,y,z,yaw,yawspeed,vx,vy,vz,acc_x,acc_y,acc_z,jerk_x,jerk_y,jerk_z,thrust[0],thrust[1],thrust[2]
65542232,0.61625695,0.21945854,nan,3.0897868,0.0,-0.00110327,0.047555022,-0.7108435,0.0,0.0,0.0,0.0,0.0,0.0,0.00021877122,0.016179334,-0.65910757
65562313,0.61625695,0.21945854,nan,3.0897868,0.0,-0.0009609163,0.049635615,-0.7108435,0.0,0.0,0.0,0.0,0.0,0.0,-0.0033504558,0.01496379,-0.6585151
65662715,0.61625695,0.21945854,nan,3.0897868,0.0,-0.0008806228,0.0560546,-0.7108435,0.0,0.0,0.0,0.0,0.0,0.0,-0.00066421786,0.00975733,-0.65381825
65763023,0.61625695,0.21945854,nan,3.0897868,0.0,-0.0005943864,0.058413263,-0.7108435,0.0,0.0,0.0,0.0,0.0,0.0,0.00047795428,0.0062756557,-0.6481929
65863201,0.61625695,0.21945854,nan,3.0897868,0.0,5.826652e-05,0.056825373,-0.7108435,0.0,0.0,0.0,0.0,0.0,0.0,-0.0007360697,0.0068797776,-0.64485306
65962890,0.61625695,0.21945854,nan,3.0897868,0.0,0.0011946618,0.051042773,-0.7108435,0.0,0.0,0.0,0.0,0.0,0.0,0.0005738422,0.0036653995,-0.63899803
66062976,0.61625695,0.21945854,nan,3.0897868,0.0,0.0025225042,0.042526774,-0.7108435,0.0,0.0,0.0,0.0,0.0,0.0,0.00073414034,-0.00083465595,-0.63674045
66163109,0.61625695,0.21945854,nan,3.0897868,0.0,0.003994003,0.031604435,-0.7108435,0.0,0.0,0.0,0.0,0.0,0.0,0.0007754484,-0.0032274025,-0.63568556
66264739,0.61625695,0.21945854,nan,3.0897868,0.0,0.005675691,0.018679246,-0.7108435,0.0,0.0,0.0,0.0,0.0,0.0,-0.0024994242,-0.00213735,-0.63602316
66363214,0.61625695,0.21945854,nan,3.0897868,0.0,0.0077569215,0.0071831746,-0.7108435,0.0,0.0,0.0,0.0,0.0,0.0,0.002509445,-0.009666515,-0.6431453
66465278,0.61625695,0.21945854,nan,3.0897868,0.0,0.010557112,-0.0051528215,-0.7108435,0.0,0.0,0.0,0.0,0.0,0.0,0.005507534,-0.006866091,-0.6480859
66563713,0.61625695,0.21945854,nan,3.0897868,0.0,0.01348131,-0.015328624,-0.7108435,0.0,0.0,0.0,0.0,0.0,0.0,-0.0011936729,-0.010017582,-0.6509958
66665133,0.61625695,0.21945854,nan,3.0897868,0.0,0.01644826,-0.025044935,-0.7108435,0.0,0.0,0.0,0.0,0.0,0.0,0.0019668986,-0.010767947,-0.6579598
66783941,0.61625695,0.21945854,nan,3.0897868,0.0,0.019736495,-0.03349143,-0.7108435,0.0,0.0,0.0,0.0,0.0,0.0,0.0062096245,-0.012469147,-0.6646467
66883747,0.61625695,0.21945854,nan,3.0897868,0.0,0.022374457,-0.038633745,-0.7108435,0.0,0.0,0.0,0.0,0.0,0.0,-0.0018304371,-0.0073765847,-0.66592824
66983959,0.61625695,0.21945854,nan,3.0897868,0.0,0.025170797,-0.042266626,-0.7108435,0.0,0.0,0.0,0.0,0.0,0.0,-0.0022918873,-0.009858654,-0.66734934
67083776,0.61625695,0.21945854,nan,3.0897868,0.0,0.027095687,-0.04421003,-0.7108435,0.0,0.0,0.0,0.0,0.0,0.0,0.0043438985,-0.0066426313,-0.66530585
67184049,0.61625695,0.21945854,nan,3.0897868,0.0,0.02796493,-0.04571174,-0.7108435,0.0,0.0,0.0,0.0,0.0,0.0,0.007619396,-0.0068613947,-0.6637029
67283992,0.61625695,0.21945854,nan,3.0897868,0.0,0.02706964,-0.046975993,-0.7108435,0.0,0.0,0.0,0.0,0.0,0.0,-0.0061528706,-0.0096919555,-0.6614064
67384059,0.61625695,0.21945854,nan,3.0897868,0.0,0.024096802,-0.04918273,-0.7108435,0.0,0.0,0.0,0.0,0.0,0.0,-0.0061753727,-0.012073014,-0.66115123
67484407,0.61625695,0.21945854,nan,3.0897868,0.0,0.01948463,-0.052533086,-0.7108435,0.0,0.0,0.0,0.0,0.0,0.0,-0.0033474485,-0.011526453,-0.6617595
67584728,0.61625695,0.21945854,nan,3.0897868,0.0,0.013384425,-0.057480164,-0.7108435,0.0,0.0,0.0,0.0,0.0,0.0,-0.0036063732,-0.012997367,-0.6614883
67684513,0.61625695,0.21945854,nan,3.0897868,0.0,0.0060594915,-0.063951515,-0.7108435,0.0,0.0,0.0,0.0,0.0,0.0,0.00049410306,-0.013347743,-0.66527617
67784600,0.61625695,0.21945854,nan,3.0897868,0.0,-0.0010221839,-0.07156543,-0.7108435,0.0,0.0,0.0,0.0,0.0,0.0,-0.011130999,-0.01555845,-0.66615963
67904614,0.61625695,0.21945854,nan,3.0897868,0.0,-0.009276947,-0.081899755,-0.7108435,0.0,0.0,0.0,0.0,0.0,0.0,-0.0057448517,-0.013808439,-0.6735519
68004744,0.61625695,0.21945854,nan,3.0897868,0.0,-0.01534363,-0.090799354,-0.7108435,0.0,0.0,0.0,0.0,0.0,0.0,-0.0034236307,-0.013180528,-0.6808824
68104774,0.61625695,0.21945854,nan,3.0897868,0.0,-0.019577267,-0.09795017,-0.7108435,0.0,0.0,0.0,0.0,0.0,0.0,-0.008069823,-0.01560909,-0.68419397
68204871,0.61625695,0.21945854,nan,3.0897868,0.0,-0.022164041,-0.10426297,-0.7108435,0.0,0.0,0.0,0.0,0.0,0.0,-0.0077055837,-0.014963969,-0.68655515
68305386,0.61625695,0.21945854,nan,3.0897868,0.0,-0.023167143,-0.108637854,-0.7108435,0.0,0.0,0.0,0.0,0.0,0.0,-0.0019340825,-0.015143726,-0.6882161
68405542,0.61625695,0.21945854,nan,3.0897868,0.0,-0.022868391,-0.11150676,-0.7108435,0.0,0.0,0.0,0.0,0.0,0.0,-0.0018526905,-0.015986724,-0.68618655
68505531,0.61625695,0.21945854,nan,3.0897868,0.0,-0.021961212,-0.112719655,-0.7108435,0.0,0.0,0.0,0.0,0.0,0.0,-0.0055159363,-0.013037115,-0.6856968
68605575,0.61625695,0.21945854,nan,3.0897868,0.0,-0.020217633,-0.11235024,-0.7108435,0.0,0.0,0.0,0.0,0.0,0.0,7.9832214e-05,-0.011882717,-0.68319917
68705588,0.61625695,0.21945854,nan,3.0897868,0.0,-0.018276662,-0.11067531,-0.7108435,0.0,0.0,0.0,0.0,0.0,0.0,-0.0051452583,-0.010649416,-0.6839067
68805556,0.61625695,0.21945854,nan,3.0897868,0.0,-0.016292542,-0.10723357,-0.7108435,0.0,0.0,0.0,0.0,0.0,0.0,-0.0011864845,-0.008790823,-0.68246996
68905628,0.61625695,0.21945854,nan,3.0897868,0.0,-0.01446346,-0.10216232,-0.7108435,0.0,0.0,0.0,0.0,0.0,0.0,-0.00072020304,-0.005445397,-0.6855724
69025811,0.61625695,0.21945854,nan,3.0897868,0.0,-0.011749792,-0.092834264,-0.7108435,0.0,0.0,0.0,0.0,0.0,0.0,-0.0016303847,-0.0014272549,-0.6863536
69126021,0.61625695,0.21945854,nan,3.0897868,0.0,-0.009709954,-0.08178495,-0.7108435,0.0,0.0,0.0,0.0,0.0,0.0,-0.0012223548,0.004621731,-0.68690324
69227241,0.61625695,0.21945854,nan,3.0897868,0.0,-0.008387321,-0.06833104,-0.7108435,0.0,0.0,0.0,0.0,0.0,0.0,0.0011801939,0.0036461847,-0.6897386
69326148,0.61625695,0.21945854,nan,3.0897868,0.0,-0.007712188,-0.05432768,-0.7108435,0.0,0.0,0.0,0.0,0.0,0.0,-0.00096228224,0.0065589487,-0.6924471
69426157,0.61625695,0.21945854,nan,3.0897868,0.0,-0.0074696657,-0.038798355,-0.7108435,0.0,0.0,0.0,0.0,0.0,0.0,0.00018546189,0.006543204,-0.69555676
69526352,0.61625695,0.21945854,nan,3.0897868,0.0,-0.00784418,-0.021848189,-0.7108435,0.0,0.0,0.0,0.0,0.0,0.0,-0.0014505683,0.010446057,-0.695871
69626347,0.61625695,0.21945854,nan,3.0897868,0.0,-0.008894506,-0.0065916195,-0.7108435,0.0,0.0,0.0,0.0,0.0,0.0,-0.0029600626,0.009896273,-0.69784606
69726410,0.61625695,0.21945854,nan,3.0897868,0.0,-0.011085588,0.009109806,-0.7108435,0.0,0.0,0.0,0.0,0.0,0.0,-0.005044816,0.012221137,-0.69745445
69826905,0.61625695,0.21945854,nan,3.0897868,0.0,-0.01371681,0.021807576,-0.7108435,0.0,0.0,0.0,0.0,0.0,0.0,-0.0002050444,0.00952219,-0.6998819
69926767,0.61625695,0.21945854,nan,3.0897868,0.0,-0.016161287,0.033077035,-0.7108435,0.0,0.0,0.0,0.0,0.0,0.0,0.00088253076,0.012200288,-0.7012373
70046944,0.61625695,0.21945854,nan,3.0897868,0.0,-0.018096821,0.04345629,-0.7108435,0.0,0.0,0.0,0.0,0.0,0.0,-0.0006798354,0.01192245,-0.70254165
70146984,0.61625695,0.21945854,nan,3.0897868,0.0,-0.019010117,0.049319454,-0.7108435,0.0,0.0,0.0,0.0,0.0,0.0,-0.0010710763,0.011627469,-0.70374596
70246964,0.61625695,0.21945854,nan,3.0897868,0.0,-0.01957574,0.05401332,-0.7108435,0.0,0.0,0.0,0.0,0.0,0.0,0.0037741521,0.010044854,-0.7068629
70347012,0.61625695,0.21945854,nan,3.0897868,0.0,-0.018755477,0.0568629,-0.7108435,0.0,0.0,0.0,0.0,0.0,0.0,-0.0015714786,0.01203358,-0.70620644
70447130,0.61625695,0.21945854,nan,3.0897868,0.0,-0.016412133,0.05935324,-0.7108435,0.0,0.0,0.0,0.0,0.0,0.0,0.0014688435,0.00773588,-0.70571095
70547417,0.61625695,0.21945854,nan,3.0897868,0.0,-0.013261664,0.06148467,-0.7108435,0.0,0.0,0.0,0.0,0.0,0.0,-0.0016750826,0.009474201,-0.7040876
71868754,0.61625695,0.21945854,nan,3.0897868,0.0,-0.08016788,0.030372245,-0.7108435,0.0,0.0,0.0,0.0,0.0,0.0,-0.011764882,0.006216563,-0.7116936
71969202,0.61625695,0.21945854,nan,3.0897868,0.0,-0.08444155,0.032985374,-0.7108435,0.0,0.0,0.0,0.0,0.0,0.0,-0.014015622,0.0075619635,-0.71300197
72069228,0.61625695,0.21945854,nan,3.0897868,0.0,-0.08575105,0.03748904,-0.7108435,0.0,0.0,0.0,0.0,0.0,0.0,-0.012517226,0.0070221024,-0.716122
72168835,0.61625695,0.21945854,nan,3.0897868,0.0,-0.08424914,0.042759005,-0.7108435,0.0,0.0,0.0,0.0,0.0,0.0,-0.008707106,0.012443252,-0.71736735
72269306,0.61625695,0.21945854,nan,3.0897868,0.0,-0.07997824,0.04963516,-0.7108435,0.0,0.0,0.0,0.0,0.0,0.0,-0.0071696136,0.011960784,-0.7186254
72369232,0.61625695,0.21945854,nan,3.0897868,0.0,-0.07421875,0.056682326,-0.7108435,0.0,0.0,0.0,0.0,0.0,0.0,-0.0076606404,0.012296213,-0.7192533
72469311,0.61625695,0.21945854,nan,3.0897868,0.0,-0.06676092,0.06476686,-0.7108435,0.0,0.0,0.0,0.0,0.0,0.0,-0.003965642,0.012738742,-0.7229786
72589396,0.61625695,0.21945854,nan,3.0897868,0.0,-0.057317723,0.07305039,-0.7108435,0.0,0.0,0.0,0.0,0.0,0.0,-0.0043313666,0.012331756,-0.7238139
72689392,0.61625695,0.21945854,nan,3.0897868,0.0,-0.049888372,0.0787314,-0.7108435,0.0,0.0,0.0,0.0,0.0,0.0,-0.002807397,0.012876902,-0.72446334
72789473,0.61625695,0.21945854,nan,3.0897868,0.0,-0.04290052,0.08393498,-0.7108435,0.0,0.0,0.0,0.0,0.0,0.0,-0.0033552428,0.010712433,-0.7240466
72889619,0.61625695,0.21945854,nan,3.0897868,0.0,-0.037727315,0.0872694,-0.7108435,0.0,0.0,0.0,0.0,0.0,0.0,-0.000766471,0.015372423,-0.7244715
72989657,0.61625695,0.21945854,nan,3.0897868,0.0,-0.033142664,0.08979351,-0.7108435,0.0,0.0,0.0,0.0,0.0,0.0,-0.0015917362,0.013990912,-0.7276745
73089910,0.61625695,0.21945854,nan,3.0897868,0.0,-0.02947867,0.090607606,-0.7108435,0.0,0.0,0.0,0.0,0.0,0.0,-0.0027657321,0.011926165,-0.726295
73190140,0.61625695,0.21945854,nan,3.0897868,0.0,-0.025981432,0.09011379,-0.7108435,0.0,0.0,0.0,0.0,0.0,0.0,-0.0028052302,0.009389103,-0.7268051
73290172,0.61625695,0.21945854,nan,3.0897868,0.0,-0.022585383,0.08885102,-0.70220524,0.0,0.0,0.0,0.0,0.0,0.0,0.0031901288,0.013628123,-0.7300192
73390198,0.61625695,0.21945854,nan,3.0897868,0.0,-0.018098747,0.08689227,-0.70281875,0.0,0.0,0.0,0.0,0.0,0.0,0.002750987,0.013409196,-0.7336934
73490275,0.61625695,0.21945854,nan,3.0897868,0.0,-0.013502941,0.08408231,-0.7028116,0.0,0.0,0.0,0.0,0.0,0.0,0.00030638138,0.0056684725,-0.73465943
73590324,0.61625695,0.21945854,nan,3.0897868,0.0,-0.008435339,0.07998967,-0.7028112,0.0,0.0,0.0,0.0,0.0,0.0,0.0031576422,0.0100139715,-0.73697114
73690375,0.61625695,0.21945854,nan,3.0897868,0.0,-0.0035902143,0.07615348,-0.6946231,0.0,0.0,0.0,0.0,0.0,0.0,0.0013553617,0.0058639487,-0.73749834
73790580,0.61625695,0.21945854,nan,3.0897868,0.0,0.0012816936,0.071369745,-0.6947717,0.0,0.0,0.0,0.0,0.0,0.0,0.003092427,0.007993154,-0.73654187
73890623,0.61625695,0.21945854,nan,3.0897868,0.0,0.0047422945,0.06684312,-0.6947793,0.0,0.0,0.0,0.0,0.0,0.0,0.0015518619,0.004129334,-0.7354448
74011132,0.61625695,0.21945854,nan,3.0897868,0.0,0.009018853,0.060944896,-0.6947793,0.0,0.0,0.0,0.0,0.0,0.0,0.0037123673,0.0054291845,-0.73062754
74111195,0.61625695,0.21945854,nan,3.0897868,0.0,0.0132343145,0.056041054,-0.68640083,0.0,0.0,0.0,0.0,0.0,0.0,0.0043346006,0.008504944,-0.72452277
74211131,0.61625695,0.21945854,nan,3.0897868,0.0,0.016667113,0.052043766,-0.6868002,0.0,0.0,0.0,0.0,0.0,0.0,0.0015234123,0.0065055266,-0.72536457
74311145,0.61625695,0.21945854,nan,3.0897868,0.0,0.020458456,0.048043903,-0.6867477,0.0,0.0,0.0,0.0,0.0,0.0,0.0021657774,0.003492888,-0.72692376
74411174,0.61625695,0.21945854,nan,3.0897868,0.0,0.024054559,0.045085177,-0.68674695,0.0,0.0,0.0,0.0,0.0,0.0,0.003968574,0.0049892208,-0.7287632
74511240,0.61625695,0.21945854,nan,3.0897868,0.0,0.027794149,0.04296394,-0.67810947,0.0,0.0,0.0,0.0,0.0,0.0,0.0030421186,0.004718929,-0.72691715
74611894,0.61625695,0.21945854,nan,3.0897868,0.0,0.031319924,0.04060807,-0.678723,0.0,0.0,0.0,0.0,0.0,0.0,0.00832437,0.004249152,-0.7288682
74711618,0.61625695,0.21945854,nan,3.0897868,0.0,0.034477584,0.038324293,-0.677056,0.0,0.0,0.0,0.0,0.0,0.0,0.002974479,0.0040301094,-0.7306808
74812192,0.61625695,0.21945854,nan,3.0897868,0.0,0.037416846,0.035022438,-0.40769106,0.0,0.0,0.0,0.0,0.0,0.0,0.0032993294,0.00161269,-0.6775149
74911709,0.61625695,0.21945854,nan,3.0897868,0.0,0.039576046,0.03039805,-0.4131,0.0,0.0,0.0,0.0,0.0,0.0,0.007095041,0.0023970928,-0.68685484
75011940,0.61625695,0.21945854,nan,3.0897868,0.0,0.041214246,0.02478633,-0.41368133,0.0,0.0,0.0,0.0,0.0,0.0,0.004197781,0.0019170644,-0.69989145
75111782,0.61625695,0.21945854,nan,3.0897868,0.0,0.041166514,0.018755293,-0.41365516,0.0,0.0,0.0,0.0,0.0,0.0,0.0013891351,-0.0006316933,-0.70650953
75211955,0.61625695,0.21945854,nan,3.0897868,0.0,0.039849598,0.011856274,-0.41365474,0.0,0.0,0.0,0.0,0.0,0.0,0.0036347471,0.00078800623,-0.7178099
75332351,0.61625695,0.21945854,nan,3.0897868,0.0,0.037743796,0.0046504214,-0.41365474,0.0,0.0,0.0,0.0,0.0,0.0,-0.0026773054,0.002316924,-0.72713095
75432198,0.61625695,0.21945854,nan,3.0897868,0.0,0.03536104,0.0005692169,-0.41365474,0.0,0.0,0.0,0.0,0.0,0.0,-0.0030078108,0.0018771309,-0.7294526
75532564,0.61625695,0.21945854,nan,3.0897868,0.0,0.032345675,-0.00213198,-0.41365474,0.0,0.0,0.0,0.0,0.0,0.0,-0.0042020627,0.0050339783,-0.7295798
75632511,0.61625695,0.21945854,nan,3.0897868,0.0,0.02859193,-0.0027730532,-0.41365474,0.0,0.0,0.0,0.0,0.0,0.0,-0.004758934,0.0053785425,-0.7303418
75732583,0.61625695,0.21945854,nan,3.0897868,0.0,0.023532765,-0.0015623949,-0.41365474,0.0,0.0,0.0,0.0,0.0,0.0,-0.003639854,0.0053065936,-0.72797626
75832671,0.61625695,0.21945854,nan,3.0897868,0.0,0.018017491,0.00072630716,-0.41365474,0.0,0.0,0.0,0.0,0.0,0.0,-0.009714495,0.006086781,-0.7277671
75932690,0.61625695,0.21945854,nan,3.0897868,0.0,0.010943347,0.004480916,-0.41365474,0.0,0.0,0.0,0.0,0.0,0.0,-0.006038172,0.006670217,-0.72519743
76032783,0.61625695,0.21945854,nan,3.0897868,0.0,0.0034508049,0.00777725,-0.41365474,0.0,0.0,0.0,0.0,0.0,0.0,-0.009445767,0.005860685,-0.7255558
76132851,0.61625695,0.21945854,nan,3.0897868,0.0,-0.005974215,0.0111435,-0.41365474,0.0,0.0,0.0,0.0,0.0,0.0,-0.013603387,0.00723641,-0.72488415
76233185,0.61625695,0.21945854,nan,3.0897868,0.0,-0.015486097,0.01224786,-0.41365474,0.0,0.0,0.0,0.0,0.0,0.0,-0.01264743,0.0044819517,-0.7272901
76333290,0.61625695,0.21945854,nan,3.0897868,0.0,-0.025984094,0.010808085,-0.41365474,0.0,0.0,0.0,0.0,0.0,0.0,-0.015083609,0.0011911753,-0.72838485
76433323,0.61625695,0.21945854,nan,3.0897868,0.0,-0.03497639,0.0069777695,-0.41365474,0.0,0.0,0.0,0.0,0.0,0.0,-0.015204672,0.0015749747,-0.7280411
76533405,0.61625695,0.21945854,nan,3.0897868,0.0,-0.043543153,-0.00052359176,-0.41365474,0.0,0.0,0.0,0.0,0.0,0.0,-0.016635964,-0.0044365944,-0.7256207
76653358,0.61625695,0.21945854,nan,3.0897868,0.0,-0.051458795,-0.012588187,-0.41365474,0.0,0.0,0.0,0.0,0.0,0.0,-0.015378342,-0.0077863047,-0.7259467
76753433,0.61625695,0.21945854,nan,3.0897868,0.0,-0.055905905,-0.02412132,-0.41365474,0.0,0.0,0.0,0.0,0.0,0.0,-0.011328967,-0.005945701,-0.729611
76853556,0.61625695,0.21945854,nan,3.0897868,0.0,-0.058625802,-0.037266295,-0.41365474,0.0,0.0,0.0,0.0,0.0,0.0,-0.013333384,-0.007150657,-0.7299198
76953620,0.61625695,0.21945854,nan,3.0897868,0.0,-0.059678562,-0.049390063,-0.41365474,0.0,0.0,0.0,0.0,0.0,0.0,-0.011483932,-0.010629399,-0.72964835
77054341,0.61625695,0.21945854,nan,3.0897868,0.0,-0.05982607,-0.0628169,-0.41365474,0.0,0.0,0.0,0.0,0.0,0.0,-0.0117843095,-0.0152391475,-0.73153293
77154389,0.61625695,0.21945854,nan,3.0897868,0.0,-0.058865774,-0.07405591,-0.41365474,0.0,0.0,0.0,0.0,0.0,0.0,-0.009030629,-0.014058373,-0.7336304
77254595,0.61625695,0.21945854,nan,3.0897868,0.0,-0.05668721,-0.08444117,-0.41365474,0.0,0.0,0.0,0.0,0.0,0.0,-0.009047779,-0.014573604,-0.7313361
77354604,0.61625695,0.21945854,nan,3.0897868,0.0,-0.053863745,-0.092707284,-0.41365474,0.0,0.0,0.0,0.0,0.0,0.0,-0.00545593,-0.01304137,-0.7285172
77454390,0.61625695,0.21945854,nan,3.0897868,0.0,-0.050179478,-0.09726099,-0.41365474,0.0,0.0,0.0,0.0,0.0,0.0,-0.004824708,-0.0074395994,-0.731084
77554744,0.61625695,0.21945854,nan,3.0897868,0.0,-0.045035545,-0.0989717,-0.41033638,0.0,0.0,0.0,0.0,0.0,0.0,-0.003397715,-0.007138573,-0.7303015
77654632,0.61625695,0.21945854,nan,3.0897868,0.0,-0.03951195,-0.0971369,-0.38088608,0.0,0.0,0.0,0.0,0.0,0.0,-0.0030003432,-0.00013786461,-0.71966743
77754552,0.61625695,0.21945854,nan,3.0897868,0.0,-0.033135474,-0.08978909,-0.3815179,0.0,0.0,0.0,0.0,0.0,0.0,0.001982863,0.0008399759,-0.7176344
77854578,0.61625695,0.21945854,nan,3.0897868,0.0,-0.02717213,-0.07925188,-0.38152623,0.0,0.0,0.0,0.0,0.0,0.0,-9.433227e-05,0.0050471015,-0.71906567
77954816,0.61625695,0.21945854,nan,3.0897868,0.0,-0.020782234,-0.06430822,-0.38152623,0.0,0.0,0.0,0.0,0.0,0.0,0.00089844875,0.007568236,-0.7218025
78074962,0.61625695,0.21945854,nan,3.0897868,0.0,-0.014385206,-0.044283643,-0.38152623,0.0,0.0,0.0,0.0,0.0,0.0,0.0005639405,0.0074563585,-0.72790265
78174938,0.61625695,0.21945854,nan,3.0897868,0.0,-0.009845853,-0.027472934,-0.38152623,0.0,0.0,0.0,0.0,0.0,0.0,0.00090402854,0.013178018,-0.7334058
78275043,0.61625695,0.21945854,nan,3.0897868,0.0,-0.0052286414,-0.00955435,-0.38152623,0.0,0.0,0.0,0.0,0.0,0.0,5.24146e-05,0.009931646,-0.73883796
78375067,0.61625695,0.21945854,nan,3.0897868,0.0,-0.0016037166,0.004876933,-0.38152623,0.0,0.0,0.0,0.0,0.0,0.0,0.0014683786,0.01186523,-0.7453224
78475228,0.61625695,0.21945854,nan,3.0897868,0.0,0.0019857616,0.017729089,-0.38152623,0.0,0.0,0.0,0.0,0.0,0.0,0.0020517614,0.010593638,-0.7524679
78575575,0.61625695,0.21945854,nan,3.0897868,0.0,0.0051375893,0.026379233,-0.38152623,0.0,0.0,0.0,0.0,0.0,0.0,0.0008070683,0.011472406,-0.758212
78675566,0.61625695,0.21945854,nan,3.0897868,0.0,0.008469936,0.03244737,-0.38152623,0.0,0.0,0.0,0.0,0.0,0.0,0.0030487748,0.010820447,-0.7613163
78775682,0.61625695,0.21945854,nan,3.0897868,0.0,0.011566555,0.035260856,-0.38152623,0.0,0.0,0.0,0.0,0.0,0.0,0.0024845088,0.0108381305,-0.7664863
78875749,0.61625695,0.21945854,nan,3.0897868,0.0,0.015329021,0.035500787,-0.38152623,0.0,0.0,0.0,0.0,0.0,0.0,0.0037980203,0.007199007,-0.7714412
78975800,0.61625695,0.21945854,nan,3.0897868,0.0,0.019903934,0.03438976,-0.38152623,0.0,0.0,0.0,0.0,0.0,0.0,0.004250385,0.0056614103,-0.77359235
79075854,0.61625695,0.21945854,nan,3.0897868,0.0,0.026193377,0.031689923,-0.38152623,0.0,0.0,0.0,0.0,0.0,0.0,0.007516567,0.0067703407,-0.77218795
79175947,0.61625695,0.21945854,nan,3.0897868,0.0,0.03418761,0.029382125,-0.38152623,0.0,0.0,0.0,0.0,0.0,0.0,0.0123349335,0.0029517782,-0.7684573
79276001,0.61625695,0.21945854,nan,3.0897868,0.0,0.044575814,0.02634905,-0.38152623,0.0,0.0,0.0,0.0,0.0,0.0,0.013073185,0.0049547544,-0.7652161
79376210,0.61625695,0.21945854,nan,3.0897868,0.0,0.05505535,0.02392595,-0.38484466,0.0,0.0,0.0,0.0,0.0,0.0,0.01234253,0.0031092346,-0.75858223
79476415,0.61625695,0.21945854,nan,3.0897868,0.0,0.06712088,0.022378534,-0.406106,0.0,0.0,0.0,0.0,0.0,0.0,0.014074447,0.006971718,-0.7575313
79597104,0.61625695,0.21945854,nan,3.0897868,0.0,0.079947665,0.021937301,-0.40563035,0.0,0.0,0.0,0.0,0.0,0.0,0.015138818,0.002277529,-0.751534
79697009,0.61625695,0.21945854,nan,3.0897868,0.0,0.08970688,0.022798955,-0.405622,0.0,0.0,0.0,0.0,0.0,0.0,0.01847476,0.010263352,-0.747048
79797024,0.61625695,0.21945854,nan,3.0897868,0.0,0.099115826,0.025262896,-0.40562242,0.0,0.0,0.0,0.0,0.0,0.0,0.014699179,0.00536629,-0.74522054
79896969,0.61625695,0.21945854,nan,3.0897868,0.0,0.10634925,0.02844741,-0.40562242,0.0,0.0,0.0,0.0,0.0,0.0,0.019372823,0.010922927,-0.74194354
79997220,0.61625695,0.21945854,nan,3.0897868,0.0,0.11341969,0.03278065,-0.40562242,0.0,0.0,0.0,0.0,0.0,0.0,0.016331052,0.0047978386,-0.7382874
80097106,0.61625695,0.21945854,nan,3.0897868,0.0,0.11881175,0.036945887,-0.40562242,0.0,0.0,0.0,0.0,0.0,0.0,0.0156102,0.011863207,-0.73719376
80197210,0.61625695,0.21945854,nan,3.0897868,0.0,0.123242944,0.041834272,-0.40562242,0.0,0.0,0.0,0.0,0.0,0.0,0.015645979,0.008971408,-0.73387766
80297313,0.61625695,0.21945854,nan,3.0897868,0.0,0.12539221,0.04511049,-0.40562242,0.0,0.0,0.0,0.0,0.0,0.0,0.014390333,0.009234063,-0.7350457
80397382,0.61625695,0.21945854,nan,3.0897868,0.0,0.12604664,0.047502305,-0.40562242,0.0,0.0,0.0,0.0,0.0,0.0,0.012414014,0.0061212187,-0.737375
80498127,0.61625695,0.21945854,nan,3.0897868,0.0,0.12543198,0.047791243,-0.39392638,0.0,0.0,0.0,0.0,0.0,0.0,0.012868749,0.006749509,-0.7360675
80597559,0.61625695,0.21945854,nan,3.0897868,0.0,0.124601394,0.0461702,-0.38126716,0.0,0.0,0.0,0.0,0.0,0.0,0.014994786,0.005857624,-0.73471236
80698203,0.61625695,0.21945854,nan,3.0897868,0.0,0.1231002,0.04275818,-0.38151872,0.0,0.0,0.0,0.0,0.0,0.0,0.0064751646,0.0047792015,-0.7307469
80797549,0.61625695,0.21945854,nan,3.0897868,0.0,0.120706655,0.03821307,-0.38152623,0.0,0.0,0.0,0.0,0.0,0.0,0.010492954,0.0028188503,-0.7289551
80917603,0.61625695,0.21945854,nan,3.0897868,0.0,0.115952834,0.030137565,-0.35584497,0.0,0.0,0.0,0.0,0.0,0.0,0.0072467085,-0.0023252298,-0.7228716
81018343,0.61625695,0.21945854,nan,3.0897868,0.0,0.1106849,0.021606857,-0.30314812,0.0,0.0,0.0,0.0,0.0,0.0,0.009784418,-0.0025332216,-0.71529114
81117939,0.61625695,0.21945854,nan,3.0897868,0.0,0.10637564,0.012980934,-0.13392098,0.0,0.0,0.0,0.0,0.0,0.0,0.012231912,-0.0018249317,-0.6837882
81218557,0.61625695,0.21945854,nan,3.0897868,0.0,0.101885095,0.004142472,-0.14086294,0.0,0.0,0.0,0.0,0.0,0.0,0.010529976,-0.0031304057,-0.6894854
81318093,0.61625695,0.21945854,nan,3.0897868,0.0,0.09737717,-0.0031290792,-0.1405685,0.0,0.0,0.0,0.0,0.0,0.0,0.004262887,-0.0010397783,-0.69753283
81418152,0.61625695,0.21945854,nan,3.0897868,0.0,0.09353883,-0.009478997,-0.14056173,0.0,0.0,0.0,0.0,0.0,0.0,0.007375364,0.0007682869,-0.71149206
81518194,0.61625695,0.21945854,nan,3.0897868,0.0,0.090995766,-0.013643638,-0.14056213,0.0,0.0,0.0,0.0,0.0,0.0,0.0071688574,0.0008564382,-0.721282
81618405,0.61625695,0.21945854,nan,3.0897868,0.0,0.08921176,-0.016009958,-0.14056213,0.0,0.0,0.0,0.0,0.0,0.0,0.008017914,0.0008652641,-0.7294739
81718414,0.61625695,0.21945854,nan,3.0897868,0.0,0.08831189,-0.017353429,-0.14056213,0.0,0.0,0.0,0.0,0.0,0.0,0.011114475,-0.0008008685,-0.7344138
81818750,0.61625695,0.21945854,nan,3.0897868,0.0,0.08732186,-0.017649716,-0.14056213,0.0,0.0,0.0,0.0,0.0,0.0,0.008327113,0.000296748,-0.7386386
81918738,0.61625695,0.21945854,nan,3.0897868,0.0,0.086001724,-0.01698585,-0.14056213,0.0,0.0,0.0,0.0,0.0,0.0,0.0070205797,0.0006549582,-0.73936003
82018804,0.61625695,0.21945854,nan,3.0897868,0.0,0.08366489,-0.016357504,-0.14056213,0.0,0.0,0.0,0.0,0.0,0.0,0.007050373,0.0018783993,-0.7345221
82118890,0.61625695,0.21945854,nan,3.0897868,0.0,0.079610355,-0.015215305,-0.14056213,0.0,0.0,0.0,0.0,0.0,0.0,0.0024896618,0.00082225143,-0.72973734
82238932,0.61625695,0.21945854,nan,3.0897868,0.0,0.07149087,-0.01450573,-0.14056213,0.0,0.0,0.0,0.0,0.0,0.0,0.0043765362,0.0032407863,-0.7233021
82339201,0.61625695,0.21945854,nan,3.0897868,0.0,0.06258459,-0.013780697,-0.14056213,0.0,0.0,0.0,0.0,0.0,0.0,0.0020778533,0.00085992715,-0.7171036
82439129,0.61625695,0.21945854,nan,3.0897868,0.0,0.053442854,-0.013454555,-0.14056213,0.0,0.0,0.0,0.0,0.0,0.0,-0.0014072615,0.0031870229,-0.7160318
82539255,0.61625695,0.21945854,nan,3.0897868,0.0,0.04373828,-0.013005623,-0.14056213,0.0,0.0,0.0,0.0,0.0,0.0,0.002757986,0.004339698,-0.7156662
82639371,0.61625695,0.21945854,nan,3.0897868,0.0,0.035204414,-0.013277872,-0.14056213,0.0,0.0,0.0,0.0,0.0,0.0,-0.002209247,0.0035551703,-0.7182088
82739794,0.61625695,0.21945854,nan,3.0897868,0.0,0.026570098,-0.013274461,-0.14056213,0.0,0.0,0.0,0.0,0.0,0.0,-0.004886607,0.001749432,-0.72251934
82839899,0.61625695,0.21945854,nan,3.0897868,0.0,0.019861748,-0.0135313235,-0.14056213,0.0,0.0,0.0,0.0,0.0,0.0,0.0044589387,0.0025930968,-0.72812235
82939916,0.61625695,0.21945854,nan,3.0897868,0.0,0.014443585,-0.01484157,-0.14056213,0.0,0.0,0.0,0.0,0.0,0.0,0.0023872543,0.0025091083,-0.73030263
83039961,0.61625695,0.21945854,nan,3.0897868,0.0,0.011849677,-0.016728535,-0.14056213,0.0,0.0,0.0,0.0,0.0,0.0,0.0040462455,-0.0011129705,-0.7347397
83139958,0.61625695,0.21945854,nan,3.0897868,0.0,0.011125848,-0.020402044,-0.14056213,0.0,0.0,0.0,0.0,0.0,0.0,0.002614152,2.0921463e-05,-0.73665065
83239938,0.61625695,0.21945854,nan,3.0897868,0.0,0.01198937,-0.024738498,-0.14056213,0.0,0.0,0.0,0.0,0.0,0.0,0.0038830014,-0.0032049182,-0.7347089
83340005,0.61625695,0.21945854,nan,3.0897868,0.0,0.013635215,-0.029715827,-0.14056213,0.0,0.0,0.0,0.0,0.0,0.0,0.0062883906,-0.0053451234,-0.73318046
83460405,0.61625695,0.21945854,nan,3.0897868,0.0,0.015688077,-0.036398128,-0.14056213,0.0,0.0,0.0,0.0,0.0,0.0,0.0073619643,-0.005525526,-0.7297218
83560396,0.61625695,0.21945854,nan,3.0897868,0.0,0.016960258,-0.040875535,-0.14056213,0.0,0.0,0.0,0.0,0.0,0.0,0.0027609954,-0.0050032255,-0.7239744
83660975,0.61625695,0.21945854,nan,3.0897868,0.0,0.017330071,-0.045262795,-0.14056213,0.0,0.0,0.0,0.0,0.0,0.0,0.0032713553,-0.007624598,-0.7186207
83760663,0.61625695,0.21945854,nan,3.0897868,0.0,0.016012931,-0.048156556,-0.14056213,0.0,0.0,0.0,0.0,0.0,0.0,0.002063029,-0.004411603,-0.71773356
83860719,0.61625695,0.21945854,nan,3.0897868,0.0,0.013087261,-0.051055923,-0.14056213,0.0,0.0,0.0,0.0,0.0,0.0,0.0022946522,-0.005947495,-0.71436
83960710,0.61625695,0.21945854,nan,3.0897868,0.0,0.008894166,-0.052708622,-0.14056213,0.0,0.0,0.0,0.0,0.0,0.0,0.0009361126,-0.0042683263,-0.7152314
84061154,0.61625695,0.21945854,nan,3.0897868,0.0,0.0031355203,-0.05413904,-0.14056213,0.0,0.0,0.0,0.0,0.0,0.0,0.0010594132,-0.0038685706,-0.7162432
84160981,0.61625695,0.21945854,nan,3.0897868,0.0,-0.0027295798,-0.054618817,-0.14056213,0.0,0.0,0.0,0.0,0.0,0.0,-0.0031051466,-0.00436358,-0.71676445
84261117,0.61625695,0.21945854,nan,3.0897868,0.0,-0.009555822,-0.054311544,-0.14056213,0.0,0.0,0.0,0.0,0.0,0.0,-0.0050805374,-0.0074075875,-0.7170844
84361260,0.61625695,0.21945854,nan,3.0897868,0.0,-0.015833715,-0.053767923,-0.14056213,0.0,0.0,0.0,0.0,0.0,0.0,-0.003301742,-0.0060100053,-0.7180637
84461309,0.61625695,0.21945854,nan,3.0897868,0.0,-0.022362452,-0.052220464,-0.14056213,0.0,0.0,0.0,0.0,0.0,0.0,-0.0029348827,-0.002871816,-0.71947277
84581443,0.61625695,0.21945854,nan,3.0897868,0.0,-0.028998664,-0.0498148,-0.14056213,0.0,0.0,0.0,0.0,0.0,0.0,-0.0064276354,-0.0016111777,-0.71934503
84681476,0.61625695,0.21945854,nan,3.0897868,0.0,-0.033034343,-0.04754773,-0.14056213,0.0,0.0,0.0,0.0,0.0,0.0,-0.0014694182,-0.004005861,-0.72237957
84781431,0.61625695,0.21945854,nan,3.0897868,0.0,-0.03574218,-0.045186095,-0.14056213,0.0,0.0,0.0,0.0,0.0,0.0,-0.00011238991,-0.0026210304,-0.72569233
84881573,0.61625695,0.21945854,nan,3.0897868,0.0,-0.037155636,-0.043072052,-0.14056213,0.0,0.0,0.0,0.0,0.0,0.0,-0.0025816387,-0.00039883802,-0.72539407
84981814,0.61625695,0.21945854,nan,3.0897868,0.0,-0.03805619,-0.040808886,-0.14056213,0.0,0.0,0.0,0.0,0.0,0.0,-0.0010736629,-0.004806116,-0.7247596
85081937,0.61625695,0.21945854,nan,3.0897868,0.0,-0.038567226,-0.039201688,-0.14056213,0.0,0.0,0.0,0.0,0.0,0.0,-0.0067038485,-0.0016924806,-0.725031
85182090,0.61625695,0.21945854,nan,3.0897868,0.0,-0.03905595,-0.038073532,-0.14056213,0.0,0.0,0.0,0.0,0.0,0.0,-0.0063849203,-0.0023745694,-0.72421914
85283021,0.61625695,0.21945854,nan,3.0897868,0.0,-0.039806735,-0.038409203,-0.14056213,0.0,0.0,0.0,0.0,0.0,0.0,-0.0028321303,1.9898318e-05,-0.7234592
85382616,0.61625695,0.21945854,nan,3.0897868,0.0,-0.041662488,-0.03936652,-0.14056213,0.0,0.0,0.0,0.0,0.0,0.0,-0.007856344,-0.0029317169,-0.7205805
85482357,0.61625695,0.21945854,nan,3.0897868,0.0,-0.0445492,-0.04083196,-0.14056213,0.0,0.0,0.0,0.0,0.0,0.0,-0.0078095216,-0.0047025136,-0.72093254
85602589,0.61625695,0.21945854,nan,3.0897868,0.0,-0.04939438,-0.041927107,-0.14056213,0.0,0.0,0.0,0.0,0.0,0.0,-0.00619767,-0.0020439217,-0.7197242
85702729,0.61625695,0.21945854,nan,3.0897868,0.0,-0.05473123,-0.041726004,-0.14056213,0.0,0.0,0.0,0.0,0.0,0.0,-0.0051307594,-0.001653294,-0.7183106
85802571,0.61625695,0.21945854,nan,3.0897868,0.0,-0.059726525,-0.04022158,-0.14056213,0.0,0.0,0.0,0.0,0.0,0.0,-0.00909275,-0.0003441364,-0.71994686
85902708,0.61625695,0.21945854,nan,3.0897868,0.0,-0.06384187,-0.03741915,-0.14056213,0.0,0.0,0.0,0.0,0.0,0.0,-0.0052199247,-0.0023787098,-0.72174454
86004330,0.61625695,0.21945854,nan,3.0897868,0.0,-0.06651392,-0.03320556,-0.14056213,0.0,0.0,0.0,0.0,0.0,0.0,-0.0019057813,0.0023718574,-0.72441554
86102938,0.61625695,0.21945854,nan,3.0897868,0.0,-0.067547314,-0.028702645,-0.14056213,0.0,0.0,0.0,0.0,0.0,0.0,-0.006897832,-0.00083477655,-0.7243369
86204660,0.61625695,0.21945854,nan,3.0897868,0.0,-0.06726153,-0.023824664,-0.14056213,0.0,0.0,0.0,0.0,0.0,0.0,-0.003177063,0.0011170126,-0.7236603
86302989,0.61625695,0.21945854,nan,3.0897868,0.0,-0.06553177,-0.020068314,-0.14056213,0.0,0.0,0.0,0.0,0.0,0.0,0.0007046997,-0.00068178936,-0.72311723
86404695,0.61625695,0.21945854,nan,3.0897868,0.0,-0.06122962,-0.017471675,-0.14056213,0.0,0.0,0.0,0.0,0.0,0.0,-0.0047683697,-0.0015325085,-0.72198266
86503181,0.61625695,0.21945854,nan,3.0897868,0.0,-0.054810733,-0.015751382,-0.14056213,0.0,0.0,0.0,0.0,0.0,0.0,0.0047318237,-0.0022559252,-0.72124195
86603884,0.61625695,0.21945854,nan,3.0897868,0.0,-0.045956034,-0.015412656,-0.14056213,0.0,0.0,0.0,0.0,0.0,0.0,0.002083624,-0.0030218589,-0.7220032
86703537,0.61625695,0.21945854,nan,3.0897868,0.0,-0.036594093,-0.015578508,-0.14056213,0.0,0.0,0.0,0.0,0.0,0.0,0.0049043307,-0.0022291786,-0.72064924
86823628,0.61625695,0.21945854,nan,3.0897868,0.0,-0.024778616,-0.016049836,-0.14056213,0.0,0.0,0.0,0.0,0.0,0.0,0.0056478363,-0.0014777652,-0.7230315
86923983,0.61625695,0.21945854,nan,3.0897868,0.0,-0.015122116,-0.016279036,-0.14056213,0.0,0.0,0.0,0.0,0.0,0.0,0.008785451,-0.0017290633,-0.7244468
87023754,0.61625695,0.21945854,nan,3.0897868,0.0,-0.0066851345,-0.01727482,-0.14056213,0.0,0.0,0.0,0.0,0.0,0.0,0.0100639975,-0.0032569545,-0.7230905
87123866,0.61625695,0.21945854,nan,3.0897868,0.0,0.002002692,-0.018381331,-0.14056213,0.0,0.0,0.0,0.0,0.0,0.0,0.008712656,-0.0017532352,-0.7244891
87223999,0.61625695,0.21945854,nan,3.0897868,0.0,0.009893417,-0.018804967,-0.14056213,0.0,0.0,0.0,0.0,0.0,0.0,0.010146894,-0.0036558418,-0.7232934
87324027,0.61625695,0.21945854,nan,3.0897868,0.0,0.018107468,-0.019572949,-0.14056213,0.0,0.0,0.0,0.0,0.0,0.0,0.011810053,-0.004197604,-0.7223973
87424151,0.61625695,0.21945854,nan,3.0897868,0.0,0.025389085,-0.01947288,-0.14056213,0.0,0.0,0.0,0.0,0.0,0.0,0.011022202,-0.0038004564,-0.72722846
87524475,0.61625695,0.21945854,nan,3.0897868,0.0,0.033642374,-0.018567512,-0.14056213,0.0,0.0,0.0,0.0,0.0,0.0,0.013109179,0.0025684994,-0.7290475
87624418,0.61625695,0.21945854,nan,3.0897868,0.0,0.041245166,-0.016711067,-0.14056213,0.0,0.0,0.0,0.0,0.0,0.0,0.015531623,0.00039449072,-0.7305796
87724541,0.61625695,0.21945854,nan,3.0897868,0.0,0.050152864,-0.012951277,-0.14056213,0.0,0.0,0.0,0.0,0.0,0.0,0.016845945,0.0041423575,-0.7273055
87824625,0.61625695,0.21945854,nan,3.0897868,0.0,0.057810355,-0.0077287653,-0.14056213,0.0,0.0,0.0,0.0,0.0,0.0,0.010988145,0.0030956645,-0.7283784
87924678,0.61625695,0.21945854,nan,3.0897868,0.0,0.0654021,-1.7029792e-05,-0.14056213,0.0,0.0,0.0,0.0,0.0,0.0,0.012444063,0.007062724,-0.7265079
88024694,0.61625695,0.21945854,nan,3.0897868,0.0,0.071027964,0.007929074,-0.14056213,0.0,0.0,0.0,0.0,0.0,0.0,0.011787763,0.0076246876,-0.731392
88124782,0.61625695,0.21945854,nan,3.0897868,0.0,0.07481693,0.016986346,-0.14056213,0.0,0.0,0.0,0.0,0.0,0.0,0.0112192,0.008299131,-0.7327921
88245014,0.61625695,0.21945854,nan,3.0897868,0.0,0.07566182,0.027216155,-0.14056213,0.0,0.0,0.0,0.0,0.0,0.0,0.010905162,0.007067521,-0.7366767
88345430,0.61625695,0.21945854,nan,3.0897868,0.0,0.07387979,0.034223214,-0.14056213,0.0,0.0,0.0,0.0,0.0,0.0,0.009481872,0.006435986,-0.7419379
88445556,0.61625695,0.21945854,nan,3.0897868,0.0,0.07000635,0.039076876,-0.14056213,0.0,0.0,0.0,0.0,0.0,0.0,0.007473398,0.0035483076,-0.7464628
88545569,0.61625695,0.21945854,nan,3.0897868,0.0,0.065211505,0.04054012,-0.14056213,0.0,0.0,0.0,0.0,0.0,0.0,0.0037442101,0.002596438,-0.7487442
88645543,0.61625695,0.21945854,nan,3.0897868,0.0,0.058882084,0.038497154,-0.14056213,0.0,0.0,0.0,0.0,0.0,0.0,0.00560259,0.004923978,-0.74968535
88745578,0.61625695,0.21945854,nan,3.0897868,0.0,0.053073946,0.03407541,-0.14056213,0.0,0.0,0.0,0.0,0.0,0.0,0.002814724,-0.0035227626,-0.7466491
88845585,0.61625695,0.21945854,nan,3.0897868,0.0,0.046739772,0.02736144,-0.14056213,0.0,0.0,0.0,0.0,0.0,0.0,0.0021556802,-0.0023395396,-0.7392212
88945616,0.61625695,0.21945854,nan,3.0897868,0.0,0.041913163,0.019920453,-0.14056213,0.0,0.0,0.0,0.0,0.0,0.0,0.0073554637,-0.001961968,-0.7323296
89045962,0.61625695,0.21945854,nan,3.0897868,0.0,0.037801664,0.011871761,-0.14056213,0.0,0.0,0.0,0.0,0.0,0.0,0.005340439,-0.00267856,-0.7256804
89146259,0.61625695,0.21945854,nan,3.0897868,0.0,0.03536274,0.00484528,-0.14056213,0.0,0.0,0.0,0.0,0.0,0.0,0.0090681175,0.0018020615,-0.72062045
89246032,0.61625695,0.21945854,nan,3.0897868,0.0,0.034811217,0.0006089248,-0.14056213,0.0,0.0,0.0,0.0,0.0,0.0,0.005194884,0.000301908,-0.7155576
89346376,0.61625695,0.21945854,nan,3.0897868,0.0,0.03598385,-0.00081448554,-0.14056213,0.0,0.0,0.0,0.0,0.0,0.0,0.006511297,0.003159884,-0.7123511
89467151,0.61625695,0.21945854,nan,3.0897868,0.0,0.038861845,0.002412285,-0.14056213,0.0,0.0,0.0,0.0,0.0,0.0,0.0077175144,0.005305543,-0.7104046
89566239,0.61625695,0.21945854,nan,3.0897868,0.0,0.041375004,0.009503799,-0.14056213,0.0,0.0,0.0,0.0,0.0,0.0,0.006470777,0.008844443,-0.71052694
89667160,0.61625695,0.21945854,nan,3.0897868,0.0,0.044257585,0.019911125,-0.14056213,0.0,0.0,0.0,0.0,0.0,0.0,0.007545512,0.008133534,-0.710431
89766776,0.61625695,0.21945854,nan,3.0897868,0.0,0.046543624,0.031279877,-0.14056213,0.0,0.0,0.0,0.0,0.0,0.0,0.0056388006,0.011385373,-0.7133249
89866759,0.61625695,0.21945854,nan,3.0897868,0.0,0.048060026,0.04397142,-0.14056213,0.0,0.0,0.0,0.0,0.0,0.0,0.0042615416,0.012071501,-0.7149695
89966873,0.61625695,0.21945854,nan,3.0897868,0.0,0.04822548,0.054949913,-0.14056213,0.0,0.0,0.0,0.0,0.0,0.0,0.009545057,0.013032225,-0.71548975
90067384,0.61625695,0.21945854,nan,3.0897868,0.0,0.046251047,0.06477231,-0.14056213,0.0,0.0,0.0,0.0,0.0,0.0,0.01098956,0.012500558,-0.71847343
90167024,0.61625695,0.21945854,nan,3.0897868,0.0,0.04294497,0.07092184,-0.14056213,0.0,0.0,0.0,0.0,0.0,0.0,0.0034794402,0.012200707,-0.71814686
90266937,0.61625695,0.21945854,nan,3.0897868,0.0,0.03831491,0.07505151,-0.14056213,0.0,0.0,0.0,0.0,0.0,0.0,0.0013976705,0.012924198,-0.7210349
90367121,0.61625695,0.21945854,nan,3.0897868,0.0,0.033066787,0.07643162,-0.14056213,0.0,0.0,0.0,0.0,0.0,0.0,0.006752602,0.011837348,-0.7215405
90467198,0.61625695,0.21945854,nan,3.0897868,0.0,0.027715327,0.07613105,-0.14056213,0.0,0.0,0.0,0.0,0.0,0.0,0.0077091334,0.010674944,-0.72298586
90567503,0.61625695,0.21945854,nan,3.0897868,0.0,0.02323662,0.074738376,-0.14056213,0.0,0.0,0.0,0.0,0.0,0.0,0.0031363554,0.010450719,-0.72534823
90667564,0.61625695,0.21945854,nan,3.0897868,0.0,0.018847605,0.07238519,-0.14056213,0.0,0.0,0.0,0.0,0.0,0.0,0.004735957,0.01057362,-0.7254879
90767637,0.61625695,0.21945854,nan,3.0897868,0.0,0.01601412,0.07072321,-0.14056213,0.0,0.0,0.0,0.0,0.0,0.0,0.0017943436,0.009315044,-0.72903717
90887701,0.61625695,0.21945854,nan,3.0897868,0.0,0.0143094985,0.068422474,-0.14056213,0.0,0.0,0.0,0.0,0.0,0.0,0.0058796527,0.0103022605,-0.73429394
90987809,0.61625695,0.21945854,nan,3.0897868,0.0,0.014126545,0.06748336,-0.14056213,0.0,0.0,0.0,0.0,0.0,0.0,0.0022612063,0.012476226,-0.73535615
91087777,0.61625695,0.21945854,nan,3.0897868,0.0,0.014119184,0.06717173,-0.14056213,0.0,0.0,0.0,0.0,0.0,0.0,0.0025251466,0.007868005,-0.74011767
91187956,0.61625695,0.21945854,nan,3.0897868,0.0,0.013362115,0.06611737,-0.14056213,0.0,0.0,0.0,0.0,0.0,0.0,0.003366586,0.011395983,-0.7457525
91287942,0.61625695,0.21945854,nan,3.0897868,0.0,0.012041521,0.06501464,-0.14056213,0.0,0.0,0.0,0.0,0.0,0.0,0.0006085576,0.006747475,-0.74729514
91388061,0.61625695,0.21945854,nan,3.0897868,0.0,0.009589061,0.0622036,-0.14056213,0.0,0.0,0.0,0.0,0.0,0.0,0.0006776897,0.0057381727,-0.748196
91488700,0.61625695,0.21945854,nan,3.0897868,0.0,0.0046893507,0.05885666,-0.14056213,0.0,0.0,0.0,0.0,0.0,0.0,-0.00387565,0.0056731403,-0.74909353
91588486,0.61625695,0.21945854,nan,3.0897868,0.0,-0.00268445,0.054499354,-0.14056213,0.0,0.0,0.0,0.0,0.0,0.0,-0.0054702656,0.0073489845,-0.7469932
91688718,0.61625695,0.21945854,nan,3.0897868,0.0,-0.013654128,0.04941236,-0.14056213,0.0,0.0,0.0,0.0,0.0,0.0,-0.0074754953,0.0046869433,-0.7461907
91808719,0.61625695,0.21945854,nan,3.0897868,0.0,-0.029353585,0.043132823,-0.14056213,0.0,0.0,0.0,0.0,0.0,0.0,-0.010721423,0.00081312866,-0.74371624
91908607,0.61625695,0.21945854,nan,3.0897868,0.0,-0.04265245,0.0378524,-0.14056213,0.0,0.0,0.0,0.0,0.0,0.0,-0.010675255,0.0024977708,-0.73956704
92008871,0.61625695,0.21945854,nan,3.0897868,0.0,-0.056739528,0.032114223,-0.14056213,0.0,0.0,0.0,0.0,0.0,0.0,-0.010946389,0.0015526987,-0.7348004
92108809,0.61625695,0.21945854,nan,3.0897868,0.0,-0.06838655,0.027095262,-0.14056213,0.0,0.0,0.0,0.0,0.0,0.0,-0.013778685,-0.0009219423,-0.7292868
92208860,0.61625695,0.21945854,nan,3.0897868,0.0,-0.07836224,0.021293595,-0.14056213,0.0,0.0,0.0,0.0,0.0,0.0,-0.012300458,-0.00260671,-0.72405845
92309133,0.61625695,0.21945854,nan,3.0897868,0.0,-0.08456323,0.01590366,-0.14894016,0.0,0.0,0.0,0.0,0.0,0.0,-0.010289007,-0.0014420259,-0.71998996
92409256,0.61625695,0.21945854,nan,3.0897868,0.0,-0.087210424,0.009727748,-0.14854121,0.0,0.0,0.0,0.0,0.0,0.0,-0.009767449,-0.002744273,-0.71588165
92509297,0.61625695,0.21945854,nan,3.0897868,0.0,-0.086544976,0.0032917187,-0.14859366,0.0,0.0,0.0,0.0,0.0,0.0,-0.0064849583,-0.0036393793,-0.7115787
92609326,0.61625695,0.21945854,nan,3.0897868,0.0,-0.08348935,-0.004219538,-0.14859445,0.0,0.0,0.0,0.0,0.0,0.0,-0.0016815098,-0.0073582055,-0.70876294
92709406,0.61625695,0.21945854,nan,3.0897868,0.0,-0.07903601,-0.012533163,-0.14859445,0.0,0.0,0.0,0.0,0.0,0.0,-0.004634701,-0.0074290526,-0.71039045
92809461,0.61625695,0.21945854,nan,3.0897868,0.0,-0.07341519,-0.02200334,-0.14859445,0.0,0.0,0.0,0.0,0.0,0.0,0.0023952292,-0.00934138,-0.7131524
92929665,0.61625695,0.21945854,nan,3.0897868,0.0,-0.06728045,-0.03335675,-0.14859445,0.0,0.0,0.0,0.0,0.0,0.0,-0.00571218,-0.010470658,-0.7153975
93029961,0.61625695,0.21945854,nan,3.0897868,0.0,-0.06335541,-0.042227414,-0.14859445,0.0,0.0,0.0,0.0,0.0,0.0,-0.0032363422,-0.010465777,-0.71586704
93129990,0.61625695,0.21945854,nan,3.0897868,0.0,-0.061593715,-0.05076581,-0.14859445,0.0,0.0,0.0,0.0,0.0,0.0,-0.009828889,-0.0105461,-0.71652806
93230162,0.61625695,0.21945854,nan,3.0897868,0.0,-0.062101237,-0.05792322,-0.14859445,0.0,0.0,0.0,0.0,0.0,0.0,-0.0066526327,-0.008238917,-0.7178602
93330221,0.61625695,0.21945854,nan,3.0897868,0.0,-0.06528919,-0.06364115,-0.14300354,0.0,0.0,0.0,0.0,0.0,0.0,-0.012305496,-0.008992761,-0.7178374
93430255,0.61625695,0.21945854,nan,3.0897868,0.0,-0.07062865,-0.067649625,-0.14062293,0.0,0.0,0.0,0.0,0.0,0.0,-0.008783029,-0.009783227,-0.71875346
93530206,0.61625695,0.21945854,nan,3.0897868,0.0,-0.07882713,-0.06999243,-0.14055777,0.0,0.0,0.0,0.0,0.0,0.0,-0.009516065,-0.007642284,-0.72103894
93630370,0.61625695,0.21945854,nan,3.0897868,0.0,-0.0876726,-0.07109069,-0.1321845,0.0,0.0,0.0,0.0,0.0,0.0,-0.015468886,-0.005180088,-0.71880245
93730554,0.61625695,0.21945854,nan,3.0897868,0.0,-0.09784024,-0.07043407,-0.13258345,0.0,0.0,0.0,0.0,0.0,0.0,-0.015281188,-0.0065468703,-0.7190455
93830617,0.61625695,0.21945854,nan,3.0897868,0.0,-0.1075831,-0.06887416,-0.13253021,0.0,0.0,0.0,0.0,0.0,0.0,-0.019421924,-0.0034325588,-0.72117555
93931239,0.61625695,0.21945854,nan,3.0897868,0.0,-0.11723484,-0.066041745,-0.13253021,0.0,0.0,0.0,0.0,0.0,0.0,-0.022197992,-0.0015334479,-0.720345
94031568,0.61625695,0.21945854,nan,3.0897868,0.0,-0.124130055,-0.06270402,-0.13253021,0.0,0.0,0.0,0.0,0.0,0.0,-0.01408875,-0.0027060206,-0.72208214
94131622,0.61625695,0.21945854,nan,3.0897868,0.0,-0.12854177,-0.059262417,-0.13087082,0.0,0.0,0.0,0.0,0.0,0.0,-0.016379949,-0.004586649,-0.7231889
94251149,0.61625695,0.21945854,nan,3.0897868,0.0,-0.12967925,-0.055295337,-0.12289969,0.0,0.0,0.0,0.0,0.0,0.0,-0.017347286,-0.0003188929,-0.72018373
94351170,0.61625695,0.21945854,nan,3.0897868,0.0,-0.12827739,-0.05186735,-0.11652676,0.0,0.0,0.0,0.0,0.0,0.0,-0.010691589,-0.0035446489,-0.7220371
94451194,0.61625695,0.21945854,nan,3.0897868,0.0,-0.12422671,-0.04792165,-0.0037666908,0.0,0.0,0.0,0.0,0.0,0.0,-0.0060477024,-0.0007265552,-0.7038122
94551215,0.61625695,0.21945854,-0.94248813,3.0897868,0.0,-0.11849151,-0.043325275,0.0023348331,0.0,0.0,0.0,0.0,0.0,0.0,-0.011367562,0.0033411193,-0.7060495
94651387,0.61625695,0.21945854,-0.94248813,3.0897868,0.0,-0.11064529,-0.03745981,0.002379179,0.0,0.0,0.0,0.0,0.0,0.0,-0.011267709,0.004182672,-0.7121596
94751948,0.61625695,0.21945854,-0.94248813,3.0897868,0.0,-0.10223357,-0.030804742,-0.0012598634,0.0,0.0,0.0,0.0,0.0,0.0,-0.009312965,0.0044559212,-0.7187171
94851712,0.61625695,0.21945854,-0.94248813,3.0897868,0.0,-0.0949327,-0.02482662,-0.0076001287,0.0,0.0,0.0,0.0,0.0,0.0,-0.008033305,0.0013067452,-0.7255579
94951873,0.61625695,0.21945854,-0.94248813,3.0897868,0.0,-0.088204525,-0.018931678,-0.017907858,0.0,0.0,0.0,0.0,0.0,0.0,-0.009172553,0.0009546955,-0.7333226
95051751,0.61625695,0.21945854,-0.94248813,3.0897868,0.0,-0.08373629,-0.013577217,-0.029195845,0.0,0.0,0.0,0.0,0.0,0.0,-0.01075933,0.004758446,-0.7379683
95171851,0.61625695,0.21945854,-0.94248813,3.0897868,0.0,-0.081029475,-0.0076572625,-0.043503106,0.0,0.0,0.0,0.0,0.0,0.0,-0.0093479445,0.001866138,-0.740499
95272064,0.61625695,0.21945854,-0.94248813,3.0897868,0.0,-0.08158123,-0.0035500817,-0.054929376,0.0,0.0,0.0,0.0,0.0,0.0,-0.012054466,0.005766167,-0.74293804
95372206,0.61625695,0.21945854,-0.94248813,3.0897868,0.0,-0.084700264,-0.00031157583,-0.063581765,0.0,0.0,0.0,0.0,0.0,0.0,-0.016881995,0.0035548457,-0.74397314
95472199,0.61625695,0.21945854,-0.94248813,3.0897868,0.0,-0.09031611,0.0029440306,-0.071097314,0.0,0.0,0.0,0.0,0.0,0.0,-0.021197334,0.008286025,-0.74382114
95572445,0.61625695,0.21945854,-0.94248813,3.0897868,0.0,-0.09741811,0.007169429,-0.07604849,0.0,0.0,0.0,0.0,0.0,0.0,-0.019083153,0.011910529,-0.7421328
95672585,0.61625695,0.21945854,-0.94248813,3.0897868,0.0,-0.10644778,0.013956261,-0.07872957,0.0,0.0,0.0,0.0,0.0,0.0,-0.02401184,0.011839625,-0.73958546
95772576,0.61625695,0.21945854,-0.94248813,3.0897868,0.0,-0.11661186,0.023386873,-0.079393685,0.0,0.0,0.0,0.0,0.0,0.0,-0.022300571,0.015006283,-0.73743975
95872563,0.61625695,0.21945854,-0.94248813,3.0897868,0.0,-0.124804504,0.033638183,-0.07907736,0.0,0.0,0.0,0.0,0.0,0.0,-0.01965065,0.017445898,-0.73775285
95972627,0.61625695,0.21945854,-0.94248813,3.0897868,0.0,-0.13129933,0.046645578,-0.07842094,0.0,0.0,0.0,0.0,0.0,0.0,-0.02092273,0.016995382,-0.7371841
96072808,0.61625695,0.21945854,-0.94248813,3.0897868,0.0,-0.13469674,0.058123585,-0.078457534,0.0,0.0,0.0,0.0,0.0,0.0,-0.018323092,0.013629686,-0.7372372
96172820,0.61625695,0.21945854,-0.94248813,3.0897868,0.0,-0.13548687,0.06832685,-0.079089046,0.0,0.0,0.0,0.0,0.0,0.0,-0.017778434,0.011062931,-0.7375681
96272982,0.61625695,0.21945854,-0.94248813,3.0897868,0.0,-0.13347806,0.074315906,-0.08080745,0.0,0.0,0.0,0.0,0.0,0.0,-0.018298928,0.0088292025,-0.73856187
96373150,0.61625695,0.21945854,-0.94248813,3.0897868,0.0,-0.12850423,0.07569924,-0.0840016,0.0,0.0,0.0,0.0,0.0,0.0,-0.015710998,0.0059392415,-0.74155426
96473280,0.61625695,0.21945854,-0.94248813,3.0897868,0.0,-0.12150891,0.07210966,-0.08773887,0.0,0.0,0.0,0.0,0.0,0.0,-0.008448408,0.0029566213,-0.7424365
96573426,0.61625695,0.21945854,-0.94248813,3.0897868,0.0,-0.111257285,0.06254039,-0.09235692,0.0,0.0,0.0,0.0,0.0,0.0,-0.010753587,-0.0013423122,-0.74199444
96693357,0.61625695,0.21945854,-0.94248813,3.0897868,0.0,-0.09709676,0.04590074,-0.09649396,0.0,0.0,0.0,0.0,0.0,0.0,-0.0024845186,-0.0060169064,-0.7402372
96793432,0.61625695,0.21945854,-0.94248813,3.0897868,0.0,-0.08487671,0.030039081,-0.09821993,0.0,0.0,0.0,0.0,0.0,0.0,-0.004154307,-0.007365587,-0.7373519
96893584,0.61625695,0.21945854,-0.94248813,3.0897868,0.0,-0.07132954,0.01308702,-0.09814805,0.0,0.0,0.0,0.0,0.0,0.0,-0.0025274944,-0.0074103875,-0.7368554
96994790,0.61625695,0.21945854,-0.94248813,3.0897868,0.0,-0.05908395,-0.0009094305,-0.09629178,0.0,0.0,0.0,0.0,0.0,0.0,-0.001994567,-0.0062886104,-0.7339116
97094614,0.61625695,0.21945854,-0.94248813,3.0897868,0.0,-0.046352178,-0.012994935,-0.093117,0.0,0.0,0.0,0.0,0.0,0.0,-0.00021007005,-0.004583802,-0.7322941
97194430,0.61625695,0.21945854,-0.94248813,3.0897868,0.0,-0.034915406,-0.02081662,-0.08998495,0.0,0.0,0.0,0.0,0.0,0.0,-0.0010100016,-0.0053559896,-0.73184764
97294392,0.61625695,0.21945854,-0.94248813,3.0897868,0.0,-0.023123031,-0.025019906,-0.087189436,0.0,0.0,0.0,0.0,0.0,0.0,0.00549482,-0.0010896502,-0.7330282
97394432,0.61625695,0.21945854,-0.94248813,3.0897868,0.0,-0.012868464,-0.024717618,-0.084980845,0.0,0.0,0.0,0.0,0.0,0.0,0.0019598822,-0.0028555626,-0.7316528
97494433,0.61625695,0.21945854,-0.94248813,3.0897868,0.0,-0.002988863,-0.021869041,-0.08285856,0.0,0.0,0.0,0.0,0.0,0.0,0.0019244468,-0.0017905108,-0.7305893
97594615,0.61625695,0.21945854,-0.94248813,3.0897868,0.0,0.004838386,-0.016903194,-0.080776334,0.0,0.0,0.0,0.0,0.0,0.0,0.0054616807,-0.0005021497,-0.72961295
97694547,0.61625695,0.21945854,-0.94248813,3.0897868,0.0,0.01203314,-0.011177758,-0.07812238,0.0,0.0,0.0,0.0,0.0,0.0,0.0005683778,-0.0019739405,-0.72688353
97814722,0.61625695,0.21945854,-0.94248813,3.0897868,0.0,0.019794704,-0.006207055,-0.07491654,0.0,0.0,0.0,0.0,0.0,0.0,0.006254625,-0.0016757684,-0.7269515
97914770,0.61625695,0.21945854,-0.94248813,3.0897868,0.0,0.026218405,-0.0036578237,-0.07222295,0.0,0.0,0.0,0.0,0.0,0.0,0.006422675,-0.0012393218,-0.7271914
98014820,0.61625695,0.21945854,-0.94248813,3.0897868,0.0,0.032976527,-0.002965392,-0.06972128,0.0,0.0,0.0,0.0,0.0,0.0,0.002569864,-0.004015061,-0.72943187
98114976,0.61625695,0.21945854,-0.94248813,3.0897868,0.0,0.03879735,-0.005468531,-0.06844127,0.0,0.0,0.0,0.0,0.0,0.0,0.0031984593,-0.003947323,-0.7285435
98214943,0.61625695,0.21945854,-0.94248813,3.0897868,0.0,0.04349168,-0.011192848,-0.06755853,0.0,0.0,0.0,0.0,0.0,0.0,-0.00047608372,-0.007725022,-0.73014915
98315041,0.61625695,0.21945854,-0.94248813,3.0897868,0.0,0.046575844,-0.019177753,-0.06743729,0.0,0.0,0.0,0.0,0.0,0.0,0.0036626812,-0.010734812,-0.73162174
98415107,0.61625695,0.21945854,-0.94248813,3.0897868,0.0,0.04885979,-0.029997362,-0.067979515,0.0,0.0,0.0,0.0,0.0,0.0,-0.0019806281,-0.012304429,-0.7308978
98515214,0.61625695,0.21945854,-0.94248813,3.0897868,0.0,0.050043296,-0.040758833,-0.06813693,0.0,0.0,0.0,0.0,0.0,0.0,0.0029507014,-0.011211791,-0.7317365
98615350,0.61625695,0.21945854,-0.94248813,3.0897868,0.0,0.050376814,-0.052873086,-0.067441344,0.0,0.0,0.0,0.0,0.0,0.0,-0.0010310581,-0.014262718,-0.7300291
98715692,0.61625695,0.21945854,-0.94248813,3.0897868,0.0,0.049786504,-0.06359815,-0.06655276,0.0,0.0,0.0,0.0,0.0,0.0,0.002544052,-0.008688343,-0.73028183
98815634,0.61625695,0.21945854,-0.94248813,3.0897868,0.0,0.04838154,-0.07289701,-0.06461817,0.0,0.0,0.0,0.0,0.0,0.0,-0.0023418912,-0.0102631645,-0.7308053
98915730,0.61625695,0.21945854,-0.94248813,3.0897868,0.0,0.04690421,-0.07905251,-0.0626874,0.0,0.0,0.0,0.0,0.0,0.0,0.00022734376,-0.01035556,-0.7280526
99035829,0.61625695,0.21945854,-0.94248813,3.0897868,0.0,0.045617815,-0.08210708,-0.060162544,0.0,0.0,0.0,0.0,0.0,0.0,0.0023360292,-0.006708857,-0.728984
99135908,0.61625695,0.21945854,-0.94248813,3.0897868,0.0,0.044809613,-0.08045302,-0.057579696,0.0,0.0,0.0,0.0,0.0,0.0,-0.00028605084,-0.005632694,-0.72788477
99235957,0.61625695,0.21945854,-0.94248813,3.0897868,0.0,0.044958252,-0.07560592,-0.055372655,0.0,0.0,0.0,0.0,0.0,0.0,0.00064416183,-0.0033977428,-0.7249728
99336025,0.61625695,0.21945854,-0.94248813,3.0897868,0.0,0.045868266,-0.06740008,-0.052457273,0.0,0.0,0.0,0.0,0.0,0.0,0.0007054,0.0006642438,-0.72649413
99436290,0.61625695,0.21945854,-0.94248813,3.0897868,0.0,0.04787192,-0.057458647,-0.050120592,0.0,0.0,0.0,0.0,0.0,0.0,0.003988877,0.003590255,-0.72631574
99536322,0.61625695,0.21945854,-0.94248813,3.0897868,0.0,0.051464796,-0.04531854,-0.048423946,0.0,0.0,0.0,0.0,0.0,0.0,0.0029460303,0.0071091275,-0.7270656
99636564,0.61625695,0.21945854,-0.94248813,3.0897868,0.0,0.055983026,-0.032776065,-0.04715097,0.0,0.0,0.0,0.0,0.0,0.0,0.0043146275,0.008343135,-0.7263043
99736576,0.61625695,0.21945854,-0.94248813,3.0897868,0.0,0.061832327,-0.019170845,-0.046385944,0.0,0.0,0.0,0.0,0.0,0.0,0.009142021,0.009722549,-0.72625947
99836703,0.61625695,0.21945854,-0.94248813,3.0897868,0.0,0.067600034,-0.006639764,-0.045708776,0.0,0.0,0.0,0.0,0.0,0.0,0.010797696,0.009582694,-0.7272725
99936760,0.61625695,0.21945854,-0.94248813,3.0897868,0.0,0.07413863,0.0058708754,-0.04509759,0.0,0.0,0.0,0.0,0.0,0.0,0.010785174,0.0124326665,-0.7280988
100037116,0.61625695,0.21945854,-0.94248813,3.0897868,0.0,0.08028702,0.017517116,-0.044440508,0.0,0.0,0.0,0.0,0.0,0.0,0.005578257,0.01219246,-0.7266538
100137396,0.61625695,0.21945854,-0.94248813,3.0897868,0.0,0.08516085,0.026925856,-0.04370445,0.0,0.0,0.0,0.0,0.0,0.0,0.010275329,0.014093848,-0.7280874
100257191,0.61625695,0.21945854,-0.94248813,3.0897868,0.0,0.08941736,0.03634108,-0.043712437,0.0,0.0,0.0,0.0,0.0,0.0,0.0037436117,0.009982483,-0.7298771
100357390,0.61625695,0.21945854,-0.94248813,3.0897868,0.0,0.090257615,0.041554406,-0.044719517,0.0,0.0,0.0,0.0,0.0,0.0,0.0012948366,0.00855704,-0.7319265
100458563,0.61625695,0.21945854,-0.94248813,3.0897868,0.0,0.087692864,0.043646194,-0.04645312,0.0,0.0,0.0,0.0,0.0,0.0,0.00044904288,0.0037689933,-0.7318512
100557448,0.61625695,0.21945854,-0.94248813,3.0897868,0.0,0.08239497,0.04204929,-0.049017012,0.0,0.0,0.0,0.0,0.0,0.0,0.0018294657,0.0020971387,-0.73468566
100658094,0.61625695,0.21945854,-0.94248813,3.0897868,0.0,0.073883586,0.037256215,-0.052913606,0.0,0.0,0.0,0.0,0.0,0.0,-0.0032587377,0.0005143999,-0.73871845
100757642,0.61625695,0.21945854,-0.94248813,3.0897868,0.0,0.06410019,0.029789226,-0.05728692,0.0,0.0,0.0,0.0,0.0,0.0,-0.005827811,-0.00270181,-0.7387534
100857538,0.61625695,0.21945854,-0.94248813,3.0897868,0.0,0.05180641,0.01892334,-0.06187743,0.0,0.0,0.0,0.0,0.0,0.0,-0.0045090145,-0.0070559303,-0.7401044
100957640,0.61625695,0.21945854,-0.94248813,3.0897868,0.0,0.03959009,0.0061812624,-0.06659269,0.0,0.0,0.0,0.0,0.0,0.0,-0.010256958,-0.008648455,-0.7436508
101058277,0.61625695,0.21945854,-0.94248813,3.0897868,0.0,0.0267308,-0.008504732,-0.07255161,0.0,0.0,0.0,0.0,0.0,0.0,-0.005435514,-0.010884671,-0.74574894
101157957,0.61625695,0.21945854,-0.94248813,3.0897868,0.0,0.016092092,-0.022038037,-0.077584445,0.0,0.0,0.0,0.0,0.0,0.0,-0.008210188,-0.0114340475,-0.7467687
101258091,0.61625695,0.21945854,-0.94248813,3.0897868,0.0,0.006288028,-0.034759194,-0.08253205,0.0,0.0,0.0,0.0,0.0,0.0,-0.0099857915,-0.010670556,-0.7471161
101378994,0.61625695,0.21945854,-0.94248813,3.0897868,0.0,-0.002467522,-0.046704847,-0.08766329,0.0,0.0,0.0,0.0,0.0,0.0,-0.0070288545,-0.008544137,-0.7479365
101478243,0.61625695,0.21945854,-0.94248813,3.0897868,0.0,-0.0071129887,-0.05195478,-0.09179908,0.0,0.0,0.0,0.0,0.0,0.0,-0.004089884,-0.007245584,-0.75229645
101578368,0.61625695,0.21945854,-0.94248813,3.0897868,0.0,-0.009467659,-0.05294769,-0.096422434,0.0,0.0,0.0,0.0,0.0,0.0,-0.00800807,-0.004838897,-0.75095665
101678441,0.61625695,0.21945854,-0.94248813,3.0897868,0.0,-0.009658879,-0.04975702,-0.10065329,0.0,0.0,0.0,0.0,0.0,0.0,-0.006705243,-8.485606e-05,-0.7517972
101778530,0.61625695,0.21945854,-0.94248813,3.0897868,0.0,-0.008810079,-0.041532688,-0.1046983,0.0,0.0,0.0,0.0,0.0,0.0,-0.0031413143,0.0036894144,-0.7530465
101878758,0.61625695,0.21945854,-0.94248813,3.0897868,0.0,-0.0078018247,-0.03018813,-0.10862982,0.0,0.0,0.0,0.0,0.0,0.0,-0.0052946014,0.007389822,-0.75455153
101978899,0.61625695,0.21945854,-0.94248813,3.0897868,0.0,-0.0070014386,-0.015282688,-0.11300939,0.0,0.0,0.0,0.0,0.0,0.0,-0.0064551756,0.009367605,-0.7571459
102079377,0.61625695,0.21945854,-0.94248813,3.0897868,0.0,-0.007009819,9.331703e-05,-0.116719484,0.0,0.0,0.0,0.0,0.0,0.0,-0.0052444264,0.012935894,-0.75544107
102178898,0.61625695,0.21945854,-0.94248813,3.0897868,0.0,-0.007995197,0.016785627,-0.12029481,0.0,0.0,0.0,0.0,0.0,0.0,-0.007983884,0.015682854,-0.7550647
102279063,0.61625695,0.21945854,-0.94248813,3.0897868,0.0,-0.01048786,0.031695656,-0.12267864,0.0,0.0,0.0,0.0,0.0,0.0,-0.007703957,0.014644307,-0.75614417
102379095,0.61625695,0.21945854,-0.94248813,3.0897868,0.0,-0.013903841,0.046363473,-0.12482488,0.0,0.0,0.0,0.0,0.0,0.0,-0.007852033,0.016114973,-0.7553729
102479128,0.61625695,0.21945854,-0.94248813,3.0897868,0.0,-0.017088454,0.05722647,-0.12607807,0.0,0.0,0.0,0.0,0.0,0.0,-0.008670871,0.014623567,-0.7539996
102599916,0.61625695,0.21945854,-0.94248813,3.0897868,0.0,-0.021228775,0.066248976,-0.12570006,0.0,0.0,0.0,0.0,0.0,0.0,-0.0044738147,0.01183523,-0.75179774
102699718,0.61625695,0.21945854,-0.94248813,3.0897868,0.0,-0.025149392,0.069370724,-0.12462026,0.0,0.0,0.0,0.0,0.0,0.0,-0.007056561,0.008959451,-0.751835
102800169,0.61625695,0.21945854,-0.94248813,3.0897868,0.0,-0.028854102,0.06838734,-0.12342548,0.0,0.0,0.0,0.0,0.0,0.0,-0.00808957,0.0058367355,-0.7509717
102899934,0.61625695,0.21945854,-0.94248813,3.0897868,0.0,-0.03230043,0.063755,-0.12165612,0.0,0.0,0.0,0.0,0.0,0.0,-0.0043181316,0.004483398,-0.74951607
103000214,0.61625695,0.21945854,-0.94248813,3.0897868,0.0,-0.034506917,0.056583557,-0.119417965,0.0,0.0,0.0,0.0,0.0,0.0,-0.011352228,0.0008084907,-0.745436
103100322,0.61625695,0.21945854,-0.94248813,3.0897868,0.0,-0.036058087,0.045900937,-0.11575568,0.0,0.0,0.0,0.0,0.0,0.0,-0.011458071,-0.0010713544,-0.74326515
103200456,0.61625695,0.21945854,-0.94248813,3.0897868,0.0,-0.03674862,0.033511106,-0.11177379,0.0,0.0,0.0,0.0,0.0,0.0,-0.0041663167,-0.0062298095,-0.7425803
103300057,0.61625695,0.21945854,-0.94248813,3.0897868,0.0,-0.037039388,0.018306488,-0.10704434,0.0,0.0,0.0,0.0,0.0,0.0,-0.006404078,-0.009087355,-0.7404592
103400347,0.61625695,0.21945854,-0.94248813,3.0897868,0.0,-0.03695247,0.0036182858,-0.10170019,0.0,0.0,0.0,0.0,0.0,0.0,-0.0074301925,-0.009045606,-0.7368245
103500384,0.61625695,0.21945854,-0.94248813,3.0897868,0.0,-0.036411818,-0.012804563,-0.09498918,0.0,0.0,0.0,0.0,0.0,0.0,-0.008633874,-0.0114114,-0.73373646
103600358,0.61625695,0.21945854,-0.94248813,3.0897868,0.0,-0.03559637,-0.026720112,-0.08841133,0.0,0.0,0.0,0.0,0.0,0.0,-0.0077144303,-0.01074669,-0.7319742
103700531,0.61625695,0.21945854,-0.94248813,3.0897868,0.0,-0.034479,-0.039760318,-0.08068675,0.0,0.0,0.0,0.0,0.0,0.0,-0.0072224517,-0.011148142,-0.7296219
103820551,0.61625695,0.21945854,-0.94248813,3.0897868,0.0,-0.03286945,-0.04993224,-0.07146549,0.0,0.0,0.0,0.0,0.0,0.0,-0.0057740128,-0.0062374454,-0.72652256
103921616,0.61625695,0.21945854,-0.94248813,3.0897868,0.0,-0.030825878,-0.05417672,-0.06332177,0.0,0.0,0.0,0.0,0.0,0.0,-0.0045807227,-0.0059419754,-0.7232719
104020671,0.61625695,0.21945854,-0.94248813,3.0897868,0.0,-0.028919673,-0.054639824,-0.05607307,0.0,0.0,0.0,0.0,0.0,0.0,-0.006082261,-0.005428206,-0.7248169
104121777,0.61625695,0.21945854,-0.94248813,3.0897868,0.0,-0.028292047,-0.051015805,-0.049333572,0.0,0.0,0.0,0.0,0.0,0.0,-0.009818881,0.0006970282,-0.72550595
104220954,0.61625695,0.21945854,-0.94248813,3.0897868,0.0,-0.029322838,-0.043709274,-0.044729948,0.0,0.0,0.0,0.0,0.0,0.0,-0.009398639,0.0014401976,-0.727025
104321144,0.61625695,0.21945854,-0.94248813,3.0897868,0.0,-0.0323241,-0.032804176,-0.04070908,0.0,0.0,0.0,0.0,0.0,0.0,-0.015625102,0.0076464885,-0.72847915
104421209,0.61625695,0.21945854,-0.94248813,3.0897868,0.0,-0.036520425,-0.02023377,-0.038544595,0.0,0.0,0.0,0.0,0.0,0.0,-0.012002715,0.010366057,-0.7300043
104521328,0.61625695,0.21945854,-0.94248813,3.0897868,0.0,-0.042714003,-0.0050630574,-0.03820938,0.0,0.0,0.0,0.0,0.0,0.0,-0.015564622,0.008122737,-0.73541045
104621342,0.61625695,0.21945854,-0.94248813,3.0897868,0.0,-0.05038055,0.008454676,-0.03966111,0.0,0.0,0.0,0.0,0.0,0.0,-0.015163122,0.010001955,-0.737751
104721418,0.61625695,0.21945854,-0.94248813,3.0897868,0.0,-0.0602204,0.021998385,-0.043606937,0.0,0.0,0.0,0.0,0.0,0.0,-0.015500449,0.01026145,-0.74229693
104821458,0.61625695,0.21945854,-0.94248813,3.0897868,0.0,-0.07043086,0.03203192,-0.04818821,0.0,0.0,0.0,0.0,0.0,0.0,-0.024484402,0.010594517,-0.7448558
104921560,0.61625695,0.21945854,-0.94248813,3.0897868,0.0,-0.08207329,0.03945885,-0.052788675,0.0,0.0,0.0,0.0,0.0,0.0,-0.02221677,0.0050878176,-0.74414104
105021770,0.61625695,0.21945854,-0.94248813,3.0897868,0.0,-0.092741385,0.042211857,-0.0558396,0.0,0.0,0.0,0.0,0.0,0.0,-0.023902794,0.0071216114,-0.7434802
105141911,0.61625695,0.21945854,-0.94248813,3.0897868,0.0,-0.10568233,0.04061158,-0.055997968,0.0,0.0,0.0,0.0,0.0,0.0,-0.025094718,0.0031461085,-0.7365333
105242004,0.61625695,0.21945854,-0.94248813,3.0897868,0.0,-0.1161224,0.03509724,-0.052260637,0.0,0.0,0.0,0.0,0.0,0.0,-0.022587016,0.0014099346,-0.7339754
105342127,0.61625695,0.21945854,-0.94248813,3.0897868,0.0,-0.12520444,0.028457107,-0.046387315,0.0,0.0,0.0,0.0,0.0,0.0,-0.024949096,0.002770549,-0.73072845
105442180,0.61625695,0.21945854,-0.94248813,3.0897868,0.0,-0.13399912,0.021223905,-0.038125098,0.0,0.0,0.0,0.0,0.0,0.0,-0.026821336,0.004869667,-0.72651386
105542205,0.61625695,0.21945854,-0.94248813,3.0897868,0.0,-0.14041942,0.016147414,-0.029551923,0.0,0.0,0.0,0.0,0.0,0.0,-0.025876392,0.005816193,-0.72327644
105642309,0.61625695,0.21945854,-0.94248813,3.0897868,0.0,-0.1455936,0.013719571,-0.019689202,0.0,0.0,0.0,0.0,0.0,0.0,-0.02916602,0.0057919347,-0.7183246
105742384,0.61625695,0.21945854,-0.94248813,3.0897868,0.0,-0.14870697,0.014879876,-0.010401428,0.0,0.0,0.0,0.0,0.0,0.0,-0.022540756,0.00684832,-0.71624744
105842575,0.61625695,0.21945854,-0.94248813,3.0897868,0.0,-0.150636,0.019534798,-0.0008702874,0.0,0.0,0.0,0.0,0.0,0.0,-0.022597432,0.0052305865,-0.715067
105942962,0.61625695,0.21945854,-0.94248813,3.0897868,0.0,-0.15064953,0.026325637,0.007345915,0.0,0.0,0.0,0.0,0.0,0.0,-0.023762394,0.011533062,-0.70997316
106043110,0.61625695,0.21945854,-0.94248813,3.0897868,0.0,-0.14871767,0.0365902,0.01598978,0.0,0.0,0.0,0.0,0.0,0.0,-0.020005021,0.017694145,-0.7092594
106143185,0.61625695,0.21945854,-0.94248813,3.0897868,0.0,-0.14541171,0.048058793,0.02290821,0.0,0.0,0.0,0.0,0.0,0.0,-0.020907737,0.017689927,-0.710943
106243012,0.61625695,0.21945854,-0.94248813,3.0897868,0.0,-0.13976468,0.06141856,0.027154088,0.0,0.0,0.0,0.0,0.0,0.0,-0.016205058,0.020258611,-0.7147645
106343889,0.61625695,0.21945854,-0.94248813,3.0897868,0.0,-0.13201347,0.07543125,0.029535294,0.0,0.0,0.0,0.0,0.0,0.0,-0.014134791,0.021784954,-0.71414554
106465214,0.61625695,0.21945854,-0.94248813,3.0897868,0.0,-0.12141769,0.09177364,0.031223953,0.0,0.0,0.0,0.0,0.0,0.0,-0.012839346,0.019855738,-0.7172853
106563514,0.61625695,0.21945854,-0.94248813,3.0897868,0.0,-0.11181085,0.103413984,0.031272948,0.0,0.0,0.0,0.0,0.0,0.0,-0.010183219,0.025761524,-0.71766686
106665082,0.61625695,0.21945854,-0.94248813,3.0897868,0.0,-0.100306354,0.114240184,0.030713141,0.0,0.0,0.0,0.0,0.0,0.0,-0.007411001,0.018789997,-0.7197461
106763761,0.61625695,0.21945854,-0.94248813,3.0897868,0.0,-0.08871811,0.12120549,0.0295344,0.0,0.0,0.0,0.0,0.0,0.0,-0.005544137,0.020667661,-0.7214961
106864859,0.61625695,0.21945854,-0.94248813,3.0897868,0.0,-0.075438894,0.124950856,0.028077185,0.0,0.0,0.0,0.0,0.0,0.0,-0.0045491634,0.01764853,-0.72330177
106963881,0.61625695,0.21945854,-0.94248813,3.0897868,0.0,-0.06275055,0.124467194,0.026616752,0.0,0.0,0.0,0.0,0.0,0.0,-0.0016445126,0.013327418,-0.72360796
107065140,0.61625695,0.21945854,-0.94248813,3.0897868,0.0,-0.049038213,0.11934075,0.02471912,0.0,0.0,0.0,0.0,0.0,0.0,-0.000289673,0.008338139,-0.72527254
107164459,0.61625695,0.21945854,-0.94248813,3.0897868,0.0,-0.036224447,0.11109341,0.02263552,0.0,0.0,0.0,0.0,0.0,0.0,0.0011272496,0.009918556,-0.72640276
107263891,0.61625695,0.21945854,-0.94248813,3.0897868,0.0,-0.022303224,0.098475,0.020131528,0.0,0.0,0.0,0.0,0.0,0.0,0.0007671127,0.0056038303,-0.72866225
107384046,0.61625695,0.21945854,-0.94248813,3.0897868,0.0,-0.0063946513,0.08125235,0.015579522,0.0,0.0,0.0,0.0,0.0,0.0,0.0028053233,0.004290756,-0.73360896
107484401,0.61625695,0.21945854,-0.94248813,3.0897868,0.0,0.0062422752,0.06690997,0.010170162,0.0,0.0,0.0,0.0,0.0,0.0,0.004552924,0.0014281743,-0.73825246
107584592,0.61625695,0.21945854,-0.94248813,3.0897868,0.0,0.019867355,0.05182047,0.0024578571,0.0,0.0,0.0,0.0,0.0,0.0,0.0069640977,-0.0019015591,-0.7424264
107684636,0.61625695,0.21945854,-0.94248813,3.0897868,0.0,0.03239341,0.038446657,-0.006689787,0.0,0.0,0.0,0.0,0.0,0.0,0.008363654,-0.001574493,-0.7478059
107784646,0.61625695,0.21945854,-0.94248813,3.0897868,0.0,0.044835832,0.025418034,-0.01772666,0.0,0.0,0.0,0.0,0.0,0.0,0.0058577145,-0.0023719538,-0.75135994
107884646,0.61625695,0.21945854,-0.94248813,3.0897868,0.0,0.05491277,0.01419053,-0.02947098,0.0,0.0,0.0,0.0,0.0,0.0,0.005536738,-0.0054942383,-0.75793254
107984702,0.61625695,0.21945854,-0.94248813,3.0897868,0.0,0.06390948,0.0032710365,-0.044332087,0.0,0.0,0.0,0.0,0.0,0.0,0.0076300446,-0.004449514,-0.7662639
108084754,0.61625695,0.21945854,-0.94248813,3.0897868,0.0,0.07058493,-0.00582283,-0.05944985,0.0,0.0,0.0,0.0,0.0,0.0,0.0040546493,-0.0061897147,-0.7699447
108184813,0.61625695,0.21945854,-0.94248813,3.0897868,0.0,0.07624251,-0.015462046,-0.07664895,0.0,0.0,0.0,0.0,0.0,0.0,0.0015148213,-0.008854604,-0.77383626
108285126,0.61625695,0.21945854,-0.94248813,3.0897868,0.0,0.07942157,-0.023944879,-0.09139824,0.0,0.0,0.0,0.0,0.0,0.0,0.0055264747,-0.0049228533,-0.7774998
108385203,0.61625695,0.21945854,-0.94248813,3.0897868,0.0,0.080803886,-0.03299676,-0.10549563,0.0,0.0,0.0,0.0,0.0,0.0,0.0045319386,-0.01014938,-0.7773982
108485218,0.61625695,0.21945854,-0.94248813,3.0897868,0.0,0.08148304,-0.041279465,-0.117031276,0.0,0.0,0.0,0.0,0.0,0.0,0.0056226826,-0.005324321,-0.7766682
108586425,0.61625695,0.21945854,-0.94248813,3.0897868,0.0,0.08193377,-0.048153754,-0.12517446,0.0,0.0,0.0,0.0,0.0,0.0,0.003896648,-0.0074199904,-0.7728126
108705584,0.61625695,0.21945854,-0.94248813,3.0897868,0.0,0.08336603,-0.054262113,-0.12849015,0.0,0.0,0.0,0.0,0.0,0.0,0.0051351786,-0.004898123,-0.76568824
108805434,0.61625695,0.21945854,-0.94248813,3.0897868,0.0,0.08608773,-0.057533417,-0.12721711,0.0,0.0,0.0,0.0,0.0,0.0,0.0067214943,-0.0014420613,-0.75946844
108905653,0.61625695,0.21945854,-0.94248813,3.0897868,0.0,0.08988293,-0.058601636,-0.12286675,0.0,0.0,0.0,0.0,0.0,0.0,0.0071978355,-0.0011998105,-0.75415504
109005649,0.61625695,0.21945854,-0.94248813,3.0897868,0.0,0.09447958,-0.057134755,-0.11511111,0.0,0.0,0.0,0.0,0.0,0.0,0.0074572805,0.0024282162,-0.747247
109106329,0.61625695,0.21945854,-0.94248813,3.0897868,0.0,0.09926774,-0.053019065,-0.10627103,0.0,0.0,0.0,0.0,0.0,0.0,0.0023700683,-5.407096e-05,-0.7420643
109206030,0.61625695,0.21945854,-0.94248813,3.0897868,0.0,0.1030284,-0.047170557,-0.097209215,0.0,0.0,0.0,0.0,0.0,0.0,0.007998582,0.007134675,-0.7378286
109307249,0.61625695,0.21945854,-0.94248813,3.0897868,0.0,0.106315956,-0.038704358,-0.087670445,0.0,0.0,0.0,0.0,0.0,0.0,0.0063219243,0.005060644,-0.7342105
109406147,0.61625695,0.21945854,-0.94248813,3.0897868,0.0,0.10880143,-0.030144615,-0.08008474,0.0,0.0,0.0,0.0,0.0,0.0,0.006036737,0.0072038765,-0.7333472
109507145,0.61625695,0.21945854,-0.94248813,3.0897868,0.0,0.11025362,-0.020932956,-0.07297444,0.0,0.0,0.0,0.0,0.0,0.0,0.007140931,0.007042786,-0.7333074
109606239,0.61625695,0.21945854,-0.94248813,3.0897868,0.0,0.11081958,-0.013249249,-0.06834108,0.0,0.0,0.0,0.0,0.0,0.0,0.0054304167,0.005095507,-0.73318803
109707233,0.61625695,0.21945854,-0.94248813,3.0897868,0.0,0.11090483,-0.0065563708,-0.06471974,0.0,0.0,0.0,0.0,0.0,0.0,0.00498789,0.0023803317,-0.7342596
109827256,0.61625695,0.21945854,-0.94248813,3.0897868,0.0,0.11010883,-0.0023328974,-0.061152816,0.0,0.0,0.0,0.0,0.0,0.0,0.004560572,0.0046262215,-0.7320547
109926630,0.61625695,0.21945854,-0.94248813,3.0897868,0.0,0.10920046,-0.0016822546,-0.057845652,0.0,0.0,0.0,0.0,0.0,0.0,0.0015696001,0.0051765647,-0.7300022
110027385,0.61625695,0.21945854,-0.94248813,3.0897868,0.0,0.108592935,-0.003169792,-0.053405404,0.0,0.0,0.0,0.0,0.0,0.0,0.0033490902,0.00092457165,-0.72961414
110127006,0.61625695,0.21945854,-0.94248813,3.0897868,0.0,0.10800897,-0.0057430603,-0.04750532,0.0,0.0,0.0,0.0,0.0,0.0,0.0031926744,0.001144629,-0.7235881
110227121,0.61625695,0.21945854,-0.94248813,3.0897868,0.0,0.10694545,-0.009105531,-0.038463235,0.0,0.0,0.0,0.0,0.0,0.0,0.0006222171,-0.0003790704,-0.7187883
110327070,0.61625695,0.21945854,-0.94248813,3.0897868,0.0,0.10549671,-0.012274474,-0.02831775,0.0,0.0,0.0,0.0,0.0,0.0,0.0026910454,0.0025117893,-0.7181064
110427099,0.61625695,0.21945854,-0.94248813,3.0897868,0.0,0.1036246,-0.015603607,-0.017763615,0.0,0.0,0.0,0.0,0.0,0.0,0.0046370924,0.00034155045,-0.7169224
110527264,0.61625695,0.21945854,-0.94248813,3.0897868,0.0,0.10201228,-0.017959876,-0.009459317,0.0,0.0,0.0,0.0,0.0,0.0,0.0032386663,-0.0017260883,-0.7185937
110627666,0.61625695,0.21945854,-0.94248813,3.0897868,0.0,0.10129428,-0.020102289,-0.0030944943,0.0,0.0,0.0,0.0,0.0,0.0,0.009330556,-0.0009651673,-0.72143996
110727600,0.61625695,0.21945854,-0.94248813,3.0897868,0.0,0.10226884,-0.021208858,-0.0005155206,0.0,0.0,0.0,0.0,0.0,0.0,0.0060501853,0.0004945649,-0.72679234
110827731,0.61625695,0.21945854,-0.94248813,3.0897868,0.0,0.1042345,-0.021311844,-0.0008069277,0.0,0.0,0.0,0.0,0.0,0.0,0.0057918676,-0.0014442063,-0.72853893
110927749,0.61625695,0.21945854,-0.94248813,3.0897868,0.0,0.1062565,-0.021104584,-0.0031027794,0.0,0.0,0.0,0.0,0.0,0.0,0.0073914924,-0.0018221075,-0.7328602
111047762,0.61625695,0.21945854,-0.94248813,3.0897868,0.0,0.10901167,-0.020640107,-0.00788933,0.0,0.0,0.0,0.0,0.0,0.0,0.008352551,0.0031125601,-0.7373896
111147777,0.61625695,0.21945854,-0.94248813,3.0897868,0.0,0.11212274,-0.019663166,-0.013424277,0.0,0.0,0.0,0.0,0.0,0.0,0.0051036524,0.0007715778,-0.73941785
111247880,0.61625695,0.21945854,-0.94248813,3.0897868,0.0,0.114738666,-0.018080076,-0.01798743,0.0,0.0,0.0,0.0,0.0,0.0,0.008677084,0.0032029552,-0.7407018
111348025,0.61625695,0.21945854,-0.94248813,3.0897868,0.0,0.116133556,-0.016532233,-0.021308243,0.0,0.0,0.0,0.0,0.0,0.0,0.010809944,0.0013056706,-0.740771
111448161,0.61625695,0.21945854,-0.94248813,3.0897868,0.0,0.11533388,-0.014633886,-0.022905648,0.0,0.0,0.0,0.0,0.0,0.0,0.00402125,0.0037969318,-0.7366828
111548961,0.61625695,0.21945854,-0.94248813,3.0897868,0.0,0.11139639,-0.011814401,-0.021585584,0.0,0.0,0.0,0.0,0.0,0.0,0.002174204,0.0044952137,-0.73380333
111648744,0.61625695,0.21945854,-0.94248813,3.0897868,0.0,0.10505708,-0.008236629,-0.01692003,0.0,0.0,0.0,0.0,0.0,0.0,0.0014236555,0.0036752005,-0.7269001
111748767,0.61625695,0.21945854,-0.94248813,3.0897868,0.0,0.09552708,-0.0034820475,-0.008775592,0.0,0.0,0.0,0.0,0.0,0.0,-0.0014503796,0.004829147,-0.7206464
111848775,0.61625695,0.21945854,-0.94248813,3.0897868,0.0,0.08484177,0.0016174056,0.0013715029,0.0,0.0,0.0,0.0,0.0,0.0,-0.0015959605,0.010163255,-0.7164344
111948773,0.61625695,0.21945854,-0.94248813,3.0897868,0.0,0.07224997,0.008590319,0.013963401,0.0,0.0,0.0,0.0,0.0,0.0,0.0002896048,0.011397495,-0.7105869
112048763,0.61625695,0.21945854,-0.94248813,3.0897868,0.0,0.061486185,0.015758475,0.025463104,0.0,0.0,0.0,0.0,0.0,0.0,-0.006562716,0.009897618,-0.7080678
112148823,0.61625695,0.21945854,-0.94248813,3.0897868,0.0,0.0511507,0.024186693,0.037417173,0.0,0.0,0.0,0.0,0.0,0.0,-0.0065967017,0.0108312,-0.7070215
112269250,0.61625695,0.21945854,-0.94248813,3.0897868,0.0,0.041741308,0.03444405,0.04855132,0.0,0.0,0.0,0.0,0.0,0.0,0.00086128927,0.011494631,-0.7069864
112369312,0.61625695,0.21945854,-0.94248813,3.0897868,0.0,0.036897656,0.041837882,0.054326415,0.0,0.0,0.0,0.0,0.0,0.0,-0.0010154173,0.010984335,-0.70922834
112469536,0.61625695,0.21945854,-0.94248813,3.0897868,0.0,0.0345444,0.04897212,0.05704671,0.0,0.0,0.0,0.0,0.0,0.0,-0.00020228088,0.010902546,-0.71421444
112569948,0.61625695,0.21945854,-0.94248813,3.0897868,0.0,0.035279386,0.05348449,0.055443704,0.0,0.0,0.0,0.0,0.0,0.0,0.0027570731,0.0067416336,-0.7200369
112669346,0.61625695,0.21945854,-0.94248813,3.0897868,0.0,0.037744645,0.055618636,0.051493227,0.0,0.0,0.0,0.0,0.0,0.0,0.0030427224,0.0061471676,-0.7227859
112770303,0.61625695,0.21945854,-0.94248813,3.0897868,0.0,0.041262437,0.054140255,0.046013117,0.0,0.0,0.0,0.0,0.0,0.0,-0.000113782706,0.004086881,-0.72447944
112869553,0.61625695,0.21945854,-0.94248813,3.0897868,0.0,0.044125818,0.049227875,0.040609837,0.0,0.0,0.0,0.0,0.0,0.0,0.0033416962,0.0026801815,-0.7296782
112969922,0.61625695,0.21945854,-0.94248813,3.0897868,0.0,0.046042044,0.04051451,0.0342713,0.0,0.0,0.0,0.0,0.0,0.0,-0.0017221525,0.00080168154,-0.73082834
113069921,0.61625695,0.21945854,-0.94248813,3.0897868,0.0,0.046059147,0.030431474,0.028510332,0.0,0.0,0.0,0.0,0.0,0.0,-0.001204019,0.00040997495,-0.73284346
113170004,0.61625695,0.21945854,-0.94248813,3.0897868,0.0,0.04370572,0.018236572,0.022653759,0.0,0.0,0.0,0.0,0.0,0.0,0.00074815087,-0.0005695368,-0.7357466
113270021,0.61625695,0.21945854,-0.94248813,3.0897868,0.0,0.038957197,0.0082573965,0.019148946,0.0,0.0,0.0,0.0,0.0,0.0,-0.007418371,-0.0011443857,-0.7304262
113370297,0.61625695,0.21945854,-0.94248813,3.0897868,0.0,0.03041082,-0.0012810141,0.018828034,0.0,0.0,0.0,0.0,0.0,0.0,-0.009201294,2.296106e-05,-0.7249273
113470174,0.61625695,0.21945854,-0.94248813,3.0897868,0.0,0.01950711,-0.007707078,0.021135628,0.0,0.0,0.0,0.0,0.0,0.0,-0.005855915,0.0014128592,-0.724311
113570206,0.61625695,0.21945854,-0.94248813,3.0897868,0.0,0.0059176474,-0.011201512,0.025050104,0.0,0.0,0.0,0.0,0.0,0.0,-0.008568451,0.0019454816,-0.72267044
113690310,0.61625695,0.21945854,-0.94248813,3.0897868,0.0,-0.009900382,-0.009883111,0.028655171,0.0,0.0,0.0,0.0,0.0,0.0,-0.012127858,0.004109807,-0.7243056
113790435,0.61625695,0.21945854,-0.94248813,3.0897868,0.0,-0.021668123,-0.004702289,0.029674709,0.0,0.0,0.0,0.0,0.0,0.0,-0.00965476,0.0067953235,-0.7287164
113890719,0.61625695,0.21945854,-0.94248813,3.0897868,0.0,-0.03259737,0.003928262,0.027678788,0.0,0.0,0.0,0.0,0.0,0.0,-0.0108352965,0.007207769,-0.73225206
113990774,0.61625695,0.21945854,-0.94248813,3.0897868,0.0,-0.04039614,0.013309044,0.021973252,0.0,0.0,0.0,0.0,0.0,0.0,-0.009225032,0.013618285,-0.73679733
114090860,0.61625695,0.21945854,-0.94248813,3.0897868,0.0,-0.04562914,0.024154983,0.014015973,0.0,0.0,0.0,0.0,0.0,0.0,-0.0046902294,0.010739998,-0.7401701
114190904,0.61625695,0.21945854,-0.94248813,3.0897868,0.0,-0.047442026,0.033332355,0.0059078336,0.0,0.0,0.0,0.0,0.0,0.0,-0.003766988,0.014406312,-0.7405145
115412044,0.61625695,0.21945854,-0.94248813,3.0897868,0.0,-0.0018443137,-0.02902716,-0.13992274,0.0,0.0,0.0,0.0,0.0,0.0,0.0008376619,-0.0043510664,-0.7704532
115512397,0.61625695,0.21945854,-0.94248813,3.0897868,0.0,-0.0017164558,-0.03370912,-0.13806486,0.0,0.0,0.0,0.0,0.0,0.0,0.0012136567,-0.0037259974,-0.76647437
115612378,0.61625695,0.21945854,-0.94248813,3.0897868,0.0,-0.0012327135,-0.035346612,-0.1331839,0.0,0.0,0.0,0.0,0.0,0.0,-0.00047805003,0.00085395854,-0.7597615
115712441,0.61625695,0.21945854,-0.94248813,3.0897868,0.0,-0.00063294766,-0.033367675,-0.12715459,0.0,0.0,0.0,0.0,0.0,0.0,-0.00020018418,0.00075787236,-0.75581014
115812586,0.61625695,0.21945854,-0.94248813,3.0897868,0.0,-0.00020786822,-0.027595708,-0.12052727,0.0,0.0,0.0,0.0,0.0,0.0,-0.0006559832,0.0038805746,-0.7563518
115912620,0.61625695,0.21945854,-0.94248813,3.0897868,0.0,-0.00011834502,-0.02129671,-0.117132664,0.0,0.0,0.0,0.0,0.0,0.0,1.7085229e-05,0.0027374835,-0.7599361
116012704,0.61625695,0.21945854,-0.94248813,3.0897868,0.0,0.00027315615,-0.013284498,-0.11908144,0.0,0.0,0.0,0.0,0.0,0.0,-0.0009537608,0.0048730564,-0.7695949
116113135,0.61625695,0.21945854,-0.94248813,3.0897868,0.0,0.0006641477,-0.006244271,-0.12526387,0.0,0.0,0.0,0.0,0.0,0.0,-0.00102363,0.0049419273,-0.77349025
116212846,0.61625695,0.21945854,-0.94248813,3.0897868,0.0,0.00054382085,-0.00013040601,-0.13478076,0.0,0.0,0.0,0.0,0.0,0.0,-0.0011035644,0.0022439975,-0.77619517
116333247,0.61625695,0.21945854,-0.94248813,3.0897868,0.0,-0.00053912104,0.003679426,-0.14720601,0.0,0.0,0.0,0.0,0.0,0.0,-0.002463,0.0028910115,-0.77921337
116433243,0.61625695,0.21945854,-0.94248813,3.0897868,0.0,-0.0021964044,0.0033280433,-0.1557731,0.0,0.0,0.0,0.0,0.0,0.0,-0.0011634014,-0.0020674518,-0.7786125
116533334,0.61625695,0.21945854,-0.94248813,3.0897868,0.0,-0.00434213,-0.00056910363,-0.1610744,0.0,0.0,0.0,0.0,0.0,0.0,-5.0520175e-05,0.00064922194,-0.77457905
116633423,0.61625695,0.21945854,-0.94248813,3.0897868,0.0,-0.0055567236,-0.007225643,-0.1626299,0.0,0.0,0.0,0.0,0.0,0.0,-0.0031452042,-0.0063764676,-0.769258
116733466,0.61625695,0.21945854,-0.94248813,3.0897868,0.0,-0.006206998,-0.017172145,-0.15821147,0.0,0.0,0.0,0.0,0.0,0.0,-0.009776435,-0.004034208,-0.75207376
116833549,0.61625695,0.21945854,-0.94248813,3.0897868,0.0,-0.008628768,-0.025687395,-0.1409694,0.0,0.0,0.0,0.0,0.0,0.0,0.0023620678,-0.003763338,-0.73962337
116933560,0.61625695,0.21945854,-0.94248813,3.0897868,0.0,-0.0057231425,-0.034181595,-0.13510019,0.0,0.0,0.0,0.0,0.0,0.0,-0.0032511477,-0.005226517,-0.7758117
117033742,0.61625695,0.21945854,-0.94248813,3.0897868,0.0,-0.0060436935,-0.039651852,-0.12768215,0.0,0.0,0.0,0.0,0.0,0.0,-0.0071332096,-0.0025994887,-0.7472878
117133970,0.61625695,0.21945854,-0.94248813,3.0897868,0.0,-0.0045862943,-0.042617925,-0.12284893,0.0,0.0,0.0,0.0,0.0,0.0,0.003172648,-0.000769831,-0.76489544
117234050,0.61625695,0.21945854,-0.94248813,3.0897868,0.0,-0.0038622378,-0.042542443,-0.12249458,0.0,0.0,0.0,0.0,0.0,0.0,-0.001741049,-0.0019059146,-0.7578554
117334251,0.61625695,0.21945854,-0.94248813,3.0897868,0.0,-0.002126643,-0.039416183,-0.1243512,0.0,0.0,0.0,0.0,0.0,0.0,0.002012698,0.0024097902,-0.76501095
117434805,0.61625695,0.21945854,-0.94248813,3.0897868,0.0,0.0013028145,-0.034134965,-0.12627077,0.0,0.0,0.0,0.0,0.0,0.0,0.0036438014,0.0032288777,-0.7601282
117554340,0.61625695,0.21945854,-0.94248813,3.0897868,0.0,0.009221738,-0.02587604,-0.1270678,0.0,0.0,0.0,0.0,0.0,0.0,0.007026132,0.0026917697,-0.75839645
117654423,0.61625695,0.21945854,-0.94248813,3.0897868,0.0,0.018247839,-0.018225897,-0.12536013,0.0,0.0,0.0,0.0,0.0,0.0,0.010679761,0.004049374,-0.75772375
117754581,0.61625695,0.21945854,-0.94248813,3.0897868,0.0,0.027969401,-0.010840927,-0.12041402,0.0,0.0,0.0,0.0,0.0,0.0,0.011134291,0.00888459,-0.75252527
117854575,0.61625695,0.21945854,-0.94248813,3.0897868,0.0,0.03988312,-0.0031135783,-0.113007605,0.0,0.0,0.0,0.0,0.0,0.0,0.016228486,0.007405051,-0.7480979
117954802,0.61625695,0.21945854,-0.94248813,3.0897868,0.0,0.051508736,0.003280592,-0.104892254,0.0,0.0,0.0,0.0,0.0,0.0,0.013790756,0.0030497015,-0.75000167
118054998,0.61625695,0.21945854,-0.94248813,3.0897868,0.0,0.064340904,0.008781696,-0.09699136,0.0,0.0,0.0,0.0,0.0,0.0,0.018664226,0.0035689753,-0.74807584
118155108,0.61625695,0.21945854,-0.94248813,3.0897868,0.0,0.07677443,0.012764332,-0.0909611,0.0,0.0,0.0,0.0,0.0,0.0,0.018885493,0.006811031,-0.7536342
118254992,0.61625695,0.21945854,-0.94248813,3.0897868,0.0,0.09123557,0.01585274,-0.087566376,0.0,0.0,0.0,0.0,0.0,0.0,0.022128679,0.0041068513,-0.75165176
118355166,0.61625695,0.21945854,-0.94248813,3.0897868,0.0,0.10611256,0.017164374,-0.08706403,0.0,0.0,0.0,0.0,0.0,0.0,0.024292573,0.004585045,-0.75894856
118455107,0.61625695,0.21945854,-0.94248813,3.0897868,0.0,0.12007331,0.01719505,-0.08719331,0.0,0.0,0.0,0.0,0.0,0.0,0.026690142,0.0018029052,-0.75347626
118555743,0.61625695,0.21945854,-0.94248813,3.0897868,0.0,0.13552807,0.015650209,-0.08704692,0.0,0.0,0.0,0.0,0.0,0.0,0.027879069,0.0022019036,-0.75221217
118655309,0.61625695,0.21945854,-0.94248813,3.0897868,0.0,0.14888024,0.012297279,-0.08305645,0.0,0.0,0.0,0.0,0.0,0.0,0.03292227,0.0012028523,-0.74611574
118755615,0.61625695,0.21945854,-0.94248813,3.0897868,0.0,0.16294983,0.0070047514,-0.07493526,0.0,0.0,0.0,0.0,0.0,0.0,0.02781244,-0.00318734,-0.7353811
118875990,0.61625695,0.21945854,-0.94248813,3.0897868,0.0,0.17886958,0.00022359565,-0.058799565,0.0,0.0,0.0,0.0,0.0,0.0,0.03373776,-0.00035114004,-0.7246551
118976385,0.61625695,0.21945854,-0.94248813,3.0897868,0.0,0.1916363,-0.005345047,-0.04167843,0.0,0.0,0.0,0.0,0.0,0.0,0.03740695,-0.0052243653,-0.72207445
119076725,0.61625695,0.21945854,-0.94248813,3.0897868,0.0,0.20637457,-0.010838196,-0.021380186,0.0,0.0,0.0,0.0,0.0,0.0,0.035825826,-0.003766657,-0.71105164
119175915,0.61625695,0.21945854,-0.94248813,3.0897868,0.0,0.22053479,-0.015243192,-0.0023995638,0.0,0.0,0.0,0.0,0.0,0.0,0.043763906,8.493499e-05,-0.71101046
119276067,0.61625695,0.21945854,-0.94248813,3.0897868,0.0,0.23662697,-0.018917155,0.015486121,0.0,0.0,0.0,0.0,0.0,0.0,0.044805806,-0.0020468317,-0.71008646
119376463,0.61625695,0.21945854,-0.94248813,3.0897868,0.0,0.25198495,-0.020800171,0.028390288,0.0,0.0,0.0,0.0,0.0,0.0,0.050004516,0.0008490146,-0.71087784
119476369,0.61625695,0.21945854,-0.94248813,3.0897868,0.0,0.2680502,-0.020030277,0.03880614,0.0,0.0,0.0,0.0,0.0,0.0,0.05053794,0.002892925,-0.714231
119576434,0.61625695,0.21945854,-0.94248813,3.0897868,0.0,0.28323835,-0.016391493,0.044155717,0.0,0.0,0.0,0.0,0.0,0.0,0.05237163,0.00078174844,-0.7191708
119676514,0.61625695,0.21945854,-0.94248813,3.0897868,0.0,0.2992144,-0.010100366,0.04442942,0.0,0.0,0.0,0.0,0.0,0.0,0.053520016,0.004805709,-0.726835
119776507,0.61625695,0.21945854,-0.94248813,3.0897868,0.0,0.31374383,-0.002507513,0.040714204,0.0,0.0,0.0,0.0,0.0,0.0,0.053388454,0.009876405,-0.73194474
119876546,0.61625695,0.21945854,-0.94248813,3.0897868,0.0,0.32851836,0.00730227,0.03509164,0.0,0.0,0.0,0.0,0.0,0.0,0.052176833,0.010670353,-0.73251987
119976748,0.61625695,0.21945854,-0.94248813,3.0897868,0.0,0.34042707,0.016373925,0.030442774,0.0,0.0,0.0,0.0,0.0,0.0,0.05193822,0.008092199,-0.7334778
120076793,0.61625695,0.21945854,-0.94248813,3.0897868,0.0,0.35164043,0.02493289,0.026688695,0.0,0.0,0.0,0.0,0.0,0.0,0.0535429,0.010097313,-0.7340699
120196985,0.61625695,0.21945854,-0.94248813,3.0897868,0.0,0.359937,0.031715702,0.02398038,0.0,0.0,0.0,0.0,0.0,0.0,0.055027705,0.0063207895,-0.7345094
120297579,0.61625695,0.21945854,-0.94248813,3.0897868,0.0,0.3632263,0.03306094,0.023204863,0.0,0.0,0.0,0.0,0.0,0.0,0.052344218,0.0034817152,-0.7366913
120398045,0.61625695,0.21945854,-0.94248813,3.0897868,0.0,0.36274496,0.029885756,0.02287352,0.0,0.0,0.0,0.0,0.0,0.0,0.050044395,0.0018863039,-0.7352378
120497918,0.61625695,0.21945854,-0.94248813,3.0897868,0.0,0.35985917,0.0228985,0.023487926,0.0,0.0,0.0,0.0,0.0,0.0,0.047055557,-0.0060494877,-0.7345013
120598606,0.61625695,0.21945854,-0.94248813,3.0897868,0.0,0.35543495,0.011644683,0.024619818,0.0,0.0,0.0,0.0,0.0,0.0,0.049657904,-0.005813814,-0.73345304
120697794,0.61625695,0.21945854,-0.94248813,3.0897868,0.0,0.35080975,-0.001179444,0.026441634,0.0,0.0,0.0,0.0,0.0,0.0,0.048758984,-0.005189744,-0.73170173
120797570,0.61625695,0.21945854,-0.94248813,3.0897868,0.0,0.3459053,-0.016978858,0.029254675,0.0,0.0,0.0,0.0,0.0,0.0,0.04855631,-0.0077525005,-0.7296079
120897918,0.61625695,0.21945854,-0.94248813,3.0897868,0.0,0.34144422,-0.032235727,0.032589197,0.0,0.0,0.0,0.0,0.0,0.0,0.04829695,-0.009825956,-0.7290668
120998060,0.61625695,0.21945854,-0.94248813,3.0897868,0.0,0.33767572,-0.047585215,0.036049306,0.0,0.0,0.0,0.0,0.0,0.0,0.048309535,-0.008880761,-0.7284411
121097980,0.61625695,0.21945854,-0.94248813,3.0897868,0.0,0.3353069,-0.0595046,0.03869182,0.0,0.0,0.0,0.0,0.0,0.0,0.05155406,-0.006318489,-0.72914994
121198102,0.61625695,0.21945854,-0.94248813,3.0897868,0.0,0.33415145,-0.06867229,0.040245652,0.0,0.0,0.0,0.0,0.0,0.0,0.04989092,-0.0051550437,-0.729516
121318326,0.61625695,0.21945854,-0.94248813,3.0897868,0.0,0.33372945,-0.07365815,0.039246798,0.0,0.0,0.0,0.0,0.0,0.0,0.05067479,-0.007939339,-0.7346157
121418330,0.61625695,0.21945854,-0.94248813,3.0897868,0.0,0.33264259,-0.073118635,0.035602808,0.0,0.0,0.0,0.0,0.0,0.0,0.043703407,-0.0052878335,-0.7346537
121518377,0.61625695,0.21945854,-0.94248813,3.0897868,0.0,0.32818806,-0.06936308,0.03355676,0.0,0.0,0.0,0.0,0.0,0.0,0.04797753,-0.0046088165,-0.7379025
121619196,0.61625695,0.21945854,-0.94248813,3.0897868,0.0,0.32170427,-0.06341403,0.028758764,0.0,0.0,0.0,0.0,0.0,0.0,0.039911043,-0.0033074,-0.73907834
121718432,0.61625695,0.21945854,-0.94248813,3.0897868,0.0,0.3126579,-0.057519857,0.023477435,0.0,0.0,0.0,0.0,0.0,0.0,0.039509527,-0.0023042182,-0.7446911
121818699,0.61625695,0.21945854,-0.94248813,3.0897868,0.0,0.29954875,-0.05139754,0.016704082,0.0,0.0,0.0,0.0,0.0,0.0,0.036886,-0.001407176,-0.7489965
121919078,0.61625695,0.21945854,-0.94248813,3.0897868,0.0,0.28473926,-0.046875317,0.009155989,0.0,0.0,0.0,0.0,0.0,0.0,0.033284914,-0.005115425,-0.7501838
122018778,0.61625695,0.21945854,-0.94248813,3.0897868,0.0,0.26464516,-0.04362281,0.00057190657,0.0,0.0,0.0,0.0,0.0,0.0,0.028192963,-0.005044215,-0.7557483
122118893,0.61625695,0.21945854,-0.94248813,3.0897868,0.0,0.24133845,-0.042428203,-0.0074092746,0.0,0.0,0.0,0.0,0.0,0.0,0.026113093,-0.0036638216,-0.7555883
122219485,0.61625695,0.21945854,-0.94248813,3.0897868,0.0,0.21470521,-0.04327757,-0.014748454,0.0,0.0,0.0,0.0,0.0,0.0,0.022507895,-0.0021382237,-0.7559508
122338998,0.61625695,0.21945854,-0.94248813,3.0897868,0.0,0.18083277,-0.046651565,-0.018389344,0.0,0.0,0.0,0.0,0.0,0.0,0.015653443,-0.004427312,-0.7463412
122439180,0.61625695,0.21945854,-0.94248813,3.0897868,0.0,0.1535202,-0.050552815,-0.019004703,0.0,0.0,0.0,0.0,0.0,0.0,0.013253949,-0.005640251,-0.7490455
122539183,0.61625695,0.21945854,-0.94248813,3.0897868,0.0,0.12480318,-0.054206423,-0.01822126,0.0,0.0,0.0,0.0,0.0,0.0,0.010588567,-0.0049216333,-0.74550897
122639355,0.61625695,0.21945854,-0.94248813,3.0897868,0.0,0.09940104,-0.057012446,-0.016543388,0.0,0.0,0.0,0.0,0.0,0.0,0.008749379,-0.0021196862,-0.74402714
122739500,0.61625695,0.21945854,-0.94248813,3.0897868,0.0,0.07248768,-0.059010863,-0.0139116645,0.0,0.0,0.0,0.0,0.0,0.0,0.0049049333,0.00017722335,-0.7425599
122839646,0.61625695,0.21945854,-0.94248813,3.0897868,0.0,0.047291745,-0.059319634,-0.010922074,0.0,0.0,0.0,0.0,0.0,0.0,0.00041137822,-9.586476e-05,-0.7371228
122939718,0.61625695,0.21945854,-0.94248813,3.0897868,0.0,0.017865738,-0.05668456,-0.006885469,0.0,0.0,0.0,0.0,0.0,0.0,-0.0038184058,0.0036231403,-0.73594284
123039839,0.61625695,0.21945854,-0.94248813,3.0897868,0.0,-0.010562944,-0.051293604,-0.0047016144,0.0,0.0,0.0,0.0,0.0,0.0,-0.0074281376,0.00853391,-0.73744524
123139864,0.61625695,0.21945854,-0.94248813,3.0897868,0.0,-0.045402586,-0.041479178,-0.0018900633,0.0,0.0,0.0,0.0,0.0,0.0,-0.015340894,0.009438231,-0.73554385
123239856,0.61625695,0.21945854,-0.94248813,3.0897868,0.0,-0.0797928,-0.02940224,0.00079137087,0.0,0.0,0.0,0.0,0.0,0.0,-0.018947324,0.012200811,-0.73436
123340019,0.61625695,0.21945854,-0.94248813,3.0897868,0.0,-0.11762385,-0.014198274,0.0023905039,0.0,0.0,0.0,0.0,0.0,0.0,-0.016458938,0.012850404,-0.7389844
123440052,0.61625695,0.21945854,-0.94248813,3.0897868,0.0,-0.15018079,0.0011639573,0.00031077862,0.0,0.0,0.0,0.0,0.0,0.0,-0.02414299,0.015394474,-0.743636
123540586,0.61625695,0.21945854,-0.94248813,3.0897868,0.0,-0.18350862,0.017680591,-0.0035197735,0.0,0.0,0.0,0.0,0.0,0.0,-0.023702642,0.017649624,-0.7470069
123640614,0.61625695,0.21945854,-0.94248813,3.0897868,0.0,-0.21087107,0.03158681,-0.010065913,0.0,0.0,0.0,0.0,0.0,0.0,-0.023396365,0.01501744,-0.7540132
123740677,0.61625695,0.21945854,-0.94248813,3.0897868,0.0,-0.23766217,0.0442527,-0.019155324,0.0,0.0,0.0,0.0,0.0,0.0,-0.02478357,0.015936464,-0.7569661
123861056,0.61625695,0.21945854,-0.94248813,3.0897868,0.0,-0.26464748,0.054270152,-0.03117913,0.0,0.0,0.0,0.0,0.0,0.0,-0.023326004,0.013768511,-0.7635415
123960826,0.61625695,0.21945854,-0.94248813,3.0897868,0.0,-0.28200752,0.058012106,-0.041169167,0.0,0.0,0.0,0.0,0.0,0.0,-0.02183592,0.011116552,-0.76572347
124060747,0.61625695,0.21945854,-0.94248813,3.0897868,0.0,-0.29599544,0.057783585,-0.051074266,0.0,0.0,0.0,0.0,0.0,0.0,-0.018568622,0.009238562,-0.7645464
124161268,0.61625695,0.21945854,-0.94248813,3.0897868,0.0,-0.3047302,0.054297376,-0.055135667,0.0,0.0,0.0,0.0,0.0,0.0,-0.016822662,0.0067638573,-0.7527735
124261289,0.61625695,0.21945854,-0.94248813,3.0897868,0.0,-0.30780938,0.048088934,-0.0545488,0.0,0.0,0.0,0.0,0.0,0.0,-0.015213707,0.0030543841,-0.7480264
124361211,0.61625695,0.21945854,-0.94248813,3.0897868,0.0,-0.30518645,0.040631384,-0.04748994,0.0,0.0,0.0,0.0,0.0,0.0,-0.00817803,0.0034782763,-0.73977625
124461231,0.61625695,0.21945854,-0.94248813,3.0897868,0.0,-0.29753014,0.032973144,-0.03684342,0.0,0.0,0.0,0.0,0.0,0.0,-0.0076538157,0.00086774,-0.7324626
124561378,0.61625695,0.21945854,-0.94248813,3.0897868,0.0,-0.28492957,0.02524305,-0.025721014,0.0,0.0,0.0,0.0,0.0,0.0,-0.0016059354,-0.001192936,-0.73364264
124661403,0.61625695,0.21945854,-0.94248813,3.0897868,0.0,-0.2685821,0.017150827,-0.017309248,0.0,0.0,0.0,0.0,0.0,0.0,0.0018081386,-0.002577193,-0.7373501
124761455,0.61625695,0.21945854,-0.94248813,3.0897868,0.0,-0.24796866,0.008342319,-0.012609899,0.0,0.0,0.0,0.0,0.0,0.0,0.008057814,-0.003965453,-0.74022216
124862078,0.61625695,0.21945854,-0.94248813,3.0897868,0.0,-0.22677776,-0.0009549282,-0.012711227,0.0,0.0,0.0,0.0,0.0,0.0,0.011509166,-0.007687962,-0.7449167
124981763,0.61625695,0.21945854,-0.94248813,3.0897868,0.0,-0.20411696,-0.011482143,-0.018773973,0.0,0.0,0.0,0.0,0.0,0.0,0.011874236,-0.01000331,-0.75258666
125082056,0.61625695,0.21945854,-0.94248813,3.0897868,0.0,-0.1879917,-0.02039733,-0.026729405,0.0,0.0,0.0,0.0,0.0,0.0,0.014241951,-0.010289656,-0.75724435
125182053,0.61625695,0.21945854,-0.94248813,3.0897868,0.0,-0.17158647,-0.029519876,-0.037766397,0.0,0.0,0.0,0.0,0.0,0.0,0.014078602,-0.013087076,-0.7634909
125282108,0.61625695,0.21945854,-0.94248813,3.0897868,0.0,-0.15652086,-0.037972655,-0.04901576,0.0,0.0,0.0,0.0,0.0,0.0,0.0134094125,-0.0060647377,-0.7662439
125382215,0.61625695,0.21945854,-0.94248813,3.0897868,0.0,-0.13967538,-0.046425603,-0.060963094,0.0,0.0,0.0,0.0,0.0,0.0,0.01537321,-0.009554096,-0.76907694
125482174,0.61625695,0.21945854,-0.94248813,3.0897868,0.0,-0.12447841,-0.05346433,-0.070219636,0.0,0.0,0.0,0.0,0.0,0.0,0.015664017,-0.010514699,-0.770262
125582301,0.61625695,0.21945854,-0.94248813,3.0897868,0.0,-0.109502554,-0.06006835,-0.07833284,0.0,0.0,0.0,0.0,0.0,0.0,0.016099986,-0.008239364,-0.76948875
125682310,0.61625695,0.21945854,-0.94248813,3.0897868,0.0,-0.09839165,-0.06394129,-0.08269405,0.0,0.0,0.0,0.0,0.0,0.0,0.016629701,-0.007590307,-0.76653993
125782448,0.61625695,0.21945854,-0.94248813,3.0897868,0.0,-0.08947625,-0.06548436,-0.082948506,0.0,0.0,0.0,0.0,0.0,0.0,0.01650019,-0.006213359,-0.75975883
125882694,0.61625695,0.21945854,-0.94248813,3.0897868,0.0,-0.083428934,-0.06488689,-0.07921213,0.0,0.0,0.0,0.0,0.0,0.0,0.014904979,-0.009938013,-0.7548492
125982813,0.61625695,0.21945854,-0.94248813,3.0897868,0.0,-0.078035235,-0.0625859,-0.07157922,0.0,0.0,0.0,0.0,0.0,0.0,0.015056251,-0.0076787826,-0.7484699
126082873,0.61625695,0.21945854,-0.94248813,3.0897868,0.0,-0.07314877,-0.05922946,-0.062135577,0.0,0.0,0.0,0.0,0.0,0.0,0.0126384245,-0.0027997147,-0.74257815
126202907,0.61625695,0.21945854,-0.94248813,3.0897868,0.0,-0.06629037,-0.0551749,-0.048862994,0.0,0.0,0.0,0.0,0.0,0.0,0.015233488,-0.005335337,-0.73444986
126302987,0.61625695,0.21945854,-0.94248813,3.0897868,0.0,-0.059020758,-0.052693162,-0.03531581,0.0,0.0,0.0,0.0,0.0,0.0,0.017947542,-0.0035510852,-0.72722006
126403025,0.61625695,0.21945854,-0.94248813,3.0897868,0.0,-0.051008914,-0.050824925,-0.02083999,0.0,0.0,0.0,0.0,0.0,0.0,0.018389266,-0.0058369096,-0.7205024
126503215,0.61625695,0.21945854,-0.94248813,3.0897868,0.0,-0.04072054,-0.049121663,-0.0066576004,0.0,0.0,0.0,0.0,0.0,0.0,0.018102787,-0.002272327,-0.72150666
126603228,0.61625695,0.21945854,-0.94248813,3.0897868,0.0,-0.030390605,-0.046973586,0.004357755,0.0,0.0,0.0,0.0,0.0,0.0,0.020139791,0.0009377633,-0.72172034
126703383,0.61625695,0.21945854,-0.94248813,3.0897868,0.0,-0.019267192,-0.043966264,0.013563037,0.0,0.0,0.0,0.0,0.0,0.0,0.01932105,-0.0031486917,-0.7223839
126803632,0.61625695,0.21945854,-0.94248813,3.0897868,0.0,-0.008514387,-0.0401991,0.019660532,0.0,0.0,0.0,0.0,0.0,0.0,0.021227814,-0.0006159927,-0.72332233
126903673,0.61625695,0.21945854,-0.94248813,3.0897868,0.0,0.000912106,-0.03587328,0.022055387,0.0,0.0,0.0,0.0,0.0,0.0,0.018169362,-0.0016291218,-0.7281712
127003884,0.61625695,0.21945854,-0.94248813,3.0897868,0.0,0.010294318,-0.030185355,0.021211863,0.0,0.0,0.0,0.0,0.0,0.0,0.019591443,0.0021848374,-0.7341838
127103773,0.61625695,0.21945854,-0.94248813,3.0897868,0.0,0.018270489,-0.024357358,0.017697036,0.0,0.0,0.0,0.0,0.0,0.0,0.022358036,0.0056973463,-0.7382646
127204432,0.61625695,0.21945854,-0.94248813,3.0897868,0.0,0.02594457,-0.017798115,0.012445629,0.0,0.0,0.0,0.0,0.0,0.0,0.021319559,0.0058417395,-0.7422871
127323966,0.61625695,0.21945854,-0.94248813,3.0897868,0.0,0.03301039,-0.009793786,0.006438613,0.0,0.0,0.0,0.0,0.0,0.0,0.020022757,0.005862722,-0.74299806
127424033,0.61625695,0.21945854,-0.94248813,3.0897868,0.0,0.03704318,-0.0045194067,0.001927793,0.0,0.0,0.0,0.0,0.0,0.0,0.01812841,0.0057829903,-0.74711215
127524374,0.61625695,0.21945854,-0.94248813,3.0897868,0.0,0.03918279,-0.0013078824,-0.0028902888,0.0,0.0,0.0,0.0,0.0,0.0,0.017992018,0.0019449481,-0.750497
127624432,0.61625695,0.21945854,-0.94248813,3.0897868,0.0,0.03871813,-0.00048755034,-0.0067656636,0.0,0.0,0.0,0.0,0.0,0.0,0.014745969,-0.0019242171,-0.7489462
127724516,0.61625695,0.21945854,-0.94248813,3.0897868,0.0,0.03625508,-0.0020369359,-0.010743201,0.0,0.0,0.0,0.0,0.0,0.0,0.012906426,-0.0033731058,-0.7515532
127824577,0.61625695,0.21945854,-0.94248813,3.0897868,0.0,0.032023314,-0.0065805637,-0.013961792,0.0,0.0,0.0,0.0,0.0,0.0,0.01221363,-0.0072010076,-0.7540716
127924592,0.61625695,0.21945854,-0.94248813,3.0897868,0.0,0.026031092,-0.015384329,-0.017326891,0.0,0.0,0.0,0.0,0.0,0.0,0.010037736,-0.011795769,-0.752477
128024643,0.61625695,0.21945854,-0.94248813,3.0897868,0.0,0.019347543,-0.027614607,-0.020004988,0.0,0.0,0.0,0.0,0.0,0.0,0.0053154556,-0.018530712,-0.7512661
128124856,0.61625695,0.21945854,-0.94248813,3.0897868,0.0,0.010489842,-0.044678062,-0.021681666,0.0,0.0,0.0,0.0,0.0,0.0,0.0043793386,-0.019600993,-0.7523854
128225018,0.61625695,0.21945854,-0.94248813,3.0897868,0.0,0.002261296,-0.063603245,-0.023993075,0.0,0.0,0.0,0.0,0.0,0.0,0.00064364355,-0.022186825,-0.749342
128325185,0.61625695,0.21945854,-0.94248813,3.0897868,0.0,-0.0075526773,-0.08654703,-0.02653104,0.0,0.0,0.0,0.0,0.0,0.0,0.002212531,-0.026332479,-0.7565692
128425165,0.61625695,0.21945854,-0.94248813,3.0897868,0.0,-0.016875716,-0.10773028,-0.029090643,0.0,0.0,0.0,0.0,0.0,0.0,0.0032055173,-0.029158454,-0.75531954
128525302,0.61625695,0.21945854,-0.94248813,3.0897868,0.0,-0.026555376,-0.12817648,-0.03223741,0.0,0.0,0.0,0.0,0.0,0.0,0.00011590775,-0.024164394,-0.75400984
128645349,0.61625695,0.21945854,-0.94248813,3.0897868,0.0,-0.036895562,-0.14669524,-0.036681592,0.0,0.0,0.0,0.0,0.0,0.0,-0.001936024,-0.02578086,-0.75773287
128745537,0.61625695,0.21945854,-0.94248813,3.0897868,0.0,-0.044514205,-0.15736999,-0.042166293,0.0,0.0,0.0,0.0,0.0,0.0,0.0005472228,-0.025852617,-0.7646427
128845476,0.61625695,0.21945854,-0.94248813,3.0897868,0.0,-0.052069545,-0.16402625,-0.050350368,0.0,0.0,0.0,0.0,0.0,0.0,-0.0030373884,-0.021380287,-0.7675861
128945586,0.61625695,0.21945854,-0.94248813,3.0897868,0.0,-0.058888085,-0.16595884,-0.05832243,0.0,0.0,0.0,0.0,0.0,0.0,-0.0013796138,-0.025448265,-0.77082634
129045780,0.61625695,0.21945854,-0.94248813,3.0897868,0.0,-0.06317812,-0.16470751,-0.07074803,0.0,0.0,0.0,0.0,0.0,0.0,-0.0029344913,-0.024063671,-0.7755685
129146128,0.61625695,0.21945854,-0.94248813,3.0897868,0.0,-0.066246994,-0.16186596,-0.079794824,0.0,0.0,0.0,0.0,0.0,0.0,-0.00062069483,-0.020812202,-0.7719188
129245984,0.61625695,0.21945854,-0.94248813,3.0897868,0.0,-0.06748741,-0.15750475,-0.088670135,0.0,0.0,0.0,0.0,0.0,0.0,0.0051264875,-0.021736959,-0.7762413
129346405,0.61625695,0.21945854,-0.94248813,3.0897868,0.0,-0.06790546,-0.15349583,-0.09270787,0.0,0.0,0.0,0.0,0.0,0.0,0.0054615093,-0.019506272,-0.7674405
129446354,0.61625695,0.21945854,-0.94248813,3.0897868,0.0,-0.068002634,-0.15004537,-0.09190673,0.0,0.0,0.0,0.0,0.0,0.0,-0.0009123208,-0.02115775,-0.7566743
129546355,0.61625695,0.21945854,-0.94248813,3.0897868,0.0,-0.06766651,-0.14862715,-0.087795675,0.0,0.0,0.0,0.0,0.0,0.0,0.0032177763,-0.021122342,-0.75474393
129646381,0.61625695,0.21945854,-0.94248813,3.0897868,0.0,-0.06794516,-0.14858446,-0.078960955,0.0,0.0,0.0,0.0,0.0,0.0,0.0064619677,-0.019736145,-0.7502029
129746436,0.61625695,0.21945854,-0.94248813,3.0897868,0.0,-0.067939326,-0.14960137,-0.0690434,0.0,0.0,0.0,0.0,0.0,0.0,0.003399971,-0.019293383,-0.74200404
129846567,0.61625695,0.21945854,-0.94248813,3.0897868,0.0,-0.06730864,-0.15078023,-0.05726093,0.0,0.0,0.0,0.0,0.0,0.0,-0.00023579225,-0.017866682,-0.7363564
129948065,0.61625695,0.21945854,-0.94248813,3.0897868,0.0,-0.06681652,-0.15109362,-0.044492424,0.0,0.0,0.0,0.0,0.0,0.0,0.005309799,-0.01871502,-0.7325232
130067361,0.61625695,0.21945854,-0.94248813,3.0897868,0.0,-0.06931893,-0.14869227,-0.027506948,0.0,0.0,0.0,0.0,0.0,0.0,0.011500211,-0.017316114,-0.73453987
130167423,0.61625695,0.21945854,-0.94248813,3.0897868,0.0,-0.07071534,-0.14535013,-0.018769562,0.0,0.0,0.0,0.0,0.0,0.0,-0.0020187004,-0.018156521,-0.72608626
130267176,0.61625695,0.21945854,-0.94248813,3.0897868,0.0,-0.07460045,-0.14047575,-0.01232326,0.0,0.0,0.0,0.0,0.0,0.0,-0.0035098912,-0.016216848,-0.7332895
130367368,0.61625695,0.21945854,-0.94248813,3.0897868,0.0,-0.080525294,-0.13419317,-0.006973982,0.0,0.0,0.0,0.0,0.0,0.0,0.006715992,-0.015104574,-0.73457646
130467174,0.61625695,0.21945854,-0.94248813,3.0897868,0.0,-0.08410209,-0.12639508,-0.0061377883,0.0,0.0,0.0,0.0,0.0,0.0,-0.0039019668,-0.013284655,-0.7345118
130567198,0.61625695,0.21945854,-0.94248813,3.0897868,0.0,-0.0868063,-0.11839849,-0.007876039,0.0,0.0,0.0,0.0,0.0,0.0,-0.00029353052,-0.010342017,-0.74258363
130667347,0.61625695,0.21945854,-0.94248813,3.0897868,0.0,-0.08911289,-0.10937488,-0.011391163,0.0,0.0,0.0,0.0,0.0,0.0,0.0013864003,-0.012153905,-0.74865055
130767688,0.61625695,0.21945854,-0.94248813,3.0897868,0.0,-0.09009482,-0.101479456,-0.015853405,0.0,0.0,0.0,0.0,0.0,0.0,-0.00020883791,-0.014162352,-0.74848723
130867630,0.61625695,0.21945854,-0.94248813,3.0897868,0.0,-0.09031078,-0.09307308,-0.02037716,0.0,0.0,0.0,0.0,0.0,0.0,-0.0004543732,-0.010700706,-0.7497001
130967663,0.61625695,0.21945854,-0.94248813,3.0897868,0.0,-0.08936136,-0.085962385,-0.024215877,0.0,0.0,0.0,0.0,0.0,0.0,0.00015443098,-0.010415334,-0.75269353
131067728,0.61625695,0.21945854,-0.94248813,3.0897868,0.0,-0.08726892,-0.07898586,-0.027831674,0.0,0.0,0.0,0.0,0.0,0.0,0.002002322,-0.012678337,-0.7548766
131167892,0.61625695,0.21945854,-0.94248813,3.0897868,0.0,-0.08419739,-0.073154055,-0.029871106,0.0,0.0,0.0,0.0,0.0,0.0,0.0043251296,-0.007480667,-0.7533191
131267875,0.61625695,0.21945854,-0.94248813,3.0897868,0.0,-0.07878183,-0.06703412,-0.031520903,0.0,0.0,0.0,0.0,0.0,0.0,0.006090328,-0.006469487,-0.75139904
131368024,0.61625695,0.21945854,nan,3.0897868,0.0,-0.072468095,-0.060506426,0.06932996,0.0,0.0,0.0,0.0,0.0,0.0,0.009073321,-0.007321392,-0.73007065
131488202,0.61625695,0.21945854,nan,3.0897868,0.0,-0.06297807,-0.049648017,0.06558573,0.0,0.0,0.0,0.0,0.0,0.0,0.009867873,-0.0059114117,-0.73208773
131588363,0.61625695,0.21945854,nan,3.0897868,0.0,-0.054425176,-0.039042093,0.06559447,0.0,0.0,0.0,0.0,0.0,0.0,0.010085828,-0.0008488577,-0.732352
131688520,0.61625695,0.21945854,nan,3.0897868,0.0,-0.04619046,-0.028570484,0.0655956,0.0,0.0,0.0,0.0,0.0,0.0,0.0088760285,0.0032632146,-0.73710006
131788761,0.61625695,0.21945854,nan,3.0897868,0.0,-0.03819566,-0.015401585,0.06559573,0.0,0.0,0.0,0.0,0.0,0.0,0.0056870626,0.004052233,-0.7420676
131888619,0.61625695,0.21945854,nan,3.0897868,0.0,-0.031016927,-0.0019443408,0.06559573,0.0,0.0,0.0,0.0,0.0,0.0,0.013548059,0.003668297,-0.7565259
131988681,0.61625695,0.21945854,nan,3.0897868,0.0,-0.023024958,0.0139612015,0.06559573,0.0,0.0,0.0,0.0,0.0,0.0,0.0043549393,0.007979422,-0.7481062
132088724,0.61625695,0.21945854,nan,3.0897868,0.0,-0.017081037,0.029550921,0.06559573,0.0,0.0,0.0,0.0,0.0,0.0,0.012382131,0.010034833,-0.7483576
132188805,0.61625695,0.21945854,nan,3.0897868,0.0,-0.011978555,0.04760298,0.06559573,0.0,0.0,0.0,0.0,0.0,0.0,0.014603926,0.0124175735,-0.7452001
132288964,0.61625695,0.21945854,nan,3.0897868,0.0,-0.0075730053,0.06331821,0.06559573,0.0,0.0,0.0,0.0,0.0,0.0,0.011011898,0.00941433,-0.7431103
132389572,0.61625695,0.21945854,nan,3.0897868,0.0,-0.0024255067,0.078470774,0.06559573,0.0,0.0,0.0,0.0,0.0,0.0,0.015999267,0.013108912,-0.7440773
132489502,0.61625695,0.21945854,nan,3.0897868,0.0,0.002592945,0.09017335,0.06559573,0.0,0.0,0.0,0.0,0.0,0.0,0.018072154,0.013408564,-0.7436565
132589547,0.61625695,0.21945854,nan,3.0897868,0.0,0.009747439,0.10087617,0.06559573,0.0,0.0,0.0,0.0,0.0,0.0,0.021739054,0.010115574,-0.74581003
132709554,0.61625695,0.21945854,nan,3.0897868,0.0,0.020703584,0.11022082,0.06559573,0.0,0.0,0.0,0.0,0.0,0.0,0.019122003,0.011495443,-0.739519
132809548,0.61625695,0.21945854,nan,3.0897868,0.0,0.030479278,0.11558811,0.06559573,0.0,0.0,0.0,0.0,0.0,0.0,0.02389533,0.00969665,-0.7379265
132909602,0.61625695,0.21945854,nan,3.0897868,0.0,0.04198015,0.11988927,0.066148795,0.0,0.0,0.0,0.0,0.0,0.0,0.025348447,0.008960867,-0.73443294
133009621,0.61625695,0.21945854,nan,3.0897868,0.0,0.055749565,0.12311761,0.068325095,0.0,0.0,0.0,0.0,0.0,0.0,0.025019148,0.012980248,-0.7343721
133110019,0.61625695,0.21945854,nan,3.0897868,0.0,0.07146363,0.12699097,0.0682745,0.0,0.0,0.0,0.0,0.0,0.0,0.027848914,0.011513629,-0.7394816
133210257,0.61625695,0.21945854,nan,3.0897868,0.0,0.08766784,0.13006875,0.06827317,0.0,0.0,0.0,0.0,0.0,0.0,0.028641094,0.0106834015,-0.7417357
133310112,0.61625695,0.21945854,nan,3.0897868,0.0,0.101596594,0.13181295,0.06827317,0.0,0.0,0.0,0.0,0.0,0.0,0.02843415,0.0095368065,-0.7434396
133411120,0.61625695,0.21945854,nan,3.0897868,0.0,0.11359242,0.1325057,0.07434828,0.0,0.0,0.0,0.0,0.0,0.0,0.023954254,0.009224546,-0.7425198
133510228,0.61625695,0.21945854,nan,3.0897868,0.0,0.11963974,0.13271487,0.07814741,0.0,0.0,0.0,0.0,0.0,0.0,0.031357758,0.0066771517,-0.74954456
133610397,0.61625695,0.21945854,nan,3.0897868,0.0,0.12240117,0.13313568,0.078963466,0.0,0.0,0.0,0.0,0.0,0.0,0.017403044,0.0071184,-0.7447987
133710350,0.61625695,0.21945854,nan,3.0897868,0.0,0.1206592,0.13393566,0.093628325,0.0,0.0,0.0,0.0,0.0,0.0,0.013659822,0.009584513,-0.7407955
133810580,0.61625695,0.21945854,nan,3.0897868,0.0,0.11513173,0.13558127,0.14872813,0.0,0.0,0.0,0.0,0.0,0.0,0.019883394,0.0103174895,-0.736364
133931011,0.61625695,0.21945854,nan,3.0897868,0.0,0.105719134,0.13760811,0.14860673,0.0,0.0,0.0,0.0,0.0,0.0,0.020150982,0.010367115,-0.73377264
134030839,0.61625695,0.21945854,nan,3.0897868,0.0,0.0973667,0.13942763,0.14859468,0.0,0.0,0.0,0.0,0.0,0.0,0.016660947,0.010682093,-0.7291997
134130944,0.61625695,0.21945854,nan,3.0897868,0.0,0.088708825,0.14069287,0.14859435,0.0,0.0,0.0,0.0,0.0,0.0,0.01293275,0.008857185,-0.7260287
134231007,0.61625695,0.21945854,nan,3.0897868,0.0,0.08163043,0.13997702,0.14859435,0.0,0.0,0.0,0.0,0.0,0.0,0.017622223,0.008630994,-0.7257588
134331044,0.61625695,0.21945854,nan,3.0897868,0.0,0.07632914,0.13754521,0.14859435,0.0,0.0,0.0,0.0,0.0,0.0,0.016899472,0.005303726,-0.7261319
134431169,0.61625695,0.21945854,nan,3.0897868,0.0,0.07429604,0.13383925,0.14859435,0.0,0.0,0.0,0.0,0.0,0.0,0.017136946,0.0064960876,-0.7227155
134531153,0.61625695,0.21945854,nan,3.0897868,0.0,0.07529575,0.12841885,0.14859435,0.0,0.0,0.0,0.0,0.0,0.0,0.014744032,0.003116926,-0.7236124
134631397,0.61625695,0.21945854,nan,3.0897868,0.0,0.07827119,0.1224771,0.14859435,0.0,0.0,0.0,0.0,0.0,0.0,0.019243464,0.006043523,-0.7259026
134731596,0.61625695,0.21945854,nan,3.0897868,0.0,0.08249746,0.11475257,0.14859435,0.0,0.0,0.0,0.0,0.0,0.0,0.021489913,1.5911202e-05,-0.729512
134831650,0.61625695,0.21945854,nan,3.0897868,0.0,0.08618762,0.1060483,0.14859435,0.0,0.0,0.0,0.0,0.0,0.0,0.019366108,0.0007019195,-0.7321148
134931729,0.61625695,0.21945854,nan,3.0897868,0.0,0.08872196,0.094840765,0.14859435,0.0,0.0,0.0,0.0,0.0,0.0,0.020347502,-0.003748582,-0.7297353
135031805,0.61625695,0.21945854,nan,3.0897868,0.0,0.08898764,0.083328485,0.14859435,0.0,0.0,0.0,0.0,0.0,0.0,0.018433545,-0.0037127603,-0.72748643
135131791,0.61625695,0.21945854,nan,3.0897868,0.0,0.08686649,0.07020719,0.14859435,0.0,0.0,0.0,0.0,0.0,0.0,0.020045873,-0.005960412,-0.7228816
135231912,0.61625695,0.21945854,nan,3.0897868,0.0,0.08244758,0.05796447,0.14859435,0.0,0.0,0.0,0.0,0.0,0.0,0.020964876,-0.005745235,-0.7186485
135351998,0.61625695,0.21945854,nan,3.0897868,0.0,0.07692477,0.043369867,0.14859435,0.0,0.0,0.0,0.0,0.0,0.0,0.012512144,-0.00747166,-0.7175987
135452054,0.61625695,0.21945854,nan,3.0897868,0.0,0.071058825,0.03086918,0.14859435,0.0,0.0,0.0,0.0,0.0,0.0,0.007612907,-0.010887339,-0.71913934
135552565,0.61625695,0.21945854,nan,3.0897868,0.0,0.064014405,0.019403389,0.14859435,0.0,0.0,0.0,0.0,0.0,0.0,0.014580546,-0.010053198,-0.7203202
135652698,0.61625695,0.21945854,nan,3.0897868,0.0,0.055068202,0.0071264086,0.14804128,0.0,0.0,0.0,0.0,0.0,0.0,0.009743625,-0.011882321,-0.7216015
135752688,0.61625695,0.21945854,nan,3.0897868,0.0,0.045453887,-0.0037792122,0.14344835,0.0,0.0,0.0,0.0,0.0,0.0,0.009243382,-0.012988269,-0.72247785
135852774,0.61625695,0.21945854,nan,3.0897868,0.0,0.033185586,-0.015184218,0.05874504,0.0,0.0,0.0,0.0,0.0,0.0,0.0067849625,-0.012438902,-0.7364121
135952777,0.61625695,0.21945854,nan,3.0897868,0.0,0.020164123,-0.025666883,0.05208753,0.0,0.0,0.0,0.0,0.0,0.0,0.003964409,-0.014376654,-0.7358073
136052757,0.61625695,0.21945854,-0.64012116,3.0897868,0.0,0.0046350476,-0.036877483,-0.0017177463,0.0,0.0,0.0,0.0,0.0,0.0,0.00055244006,-0.017242802,-0.7461899
136152814,0.61625695,0.21945854,-0.64012116,3.0897868,0.0,-0.011601039,-0.048541717,-0.0048909783,0.0,0.0,0.0,0.0,0.0,0.0,-8.659996e-05,-0.017485203,-0.7443933
136252974,0.61625695,0.21945854,-0.64012116,3.0897868,0.0,-0.026073502,-0.059449278,-0.006288171,0.0,0.0,0.0,0.0,0.0,0.0,2.7900562e-05,-0.016352631,-0.7422966
136373154,0.61625695,0.21945854,-0.64012116,3.0897868,0.0,-0.042220406,-0.07089098,-0.003087759,0.0,0.0,0.0,0.0,0.0,0.0,-0.0034630047,-0.015535247,-0.72913325
136473216,0.61625695,0.21945854,-0.64012116,3.0897868,0.0,-0.05213636,-0.07825444,0.0048791766,0.0,0.0,0.0,0.0,0.0,0.0,0.00061339326,-0.014498964,-0.722667
136573290,0.61625695,0.21945854,-0.64012116,3.0897868,0.0,-0.059079476,-0.083310746,0.015353799,0.0,0.0,0.0,0.0,0.0,0.0,0.000525997,-0.018875375,-0.7179435
136673339,0.61625695,0.21945854,-0.64012116,3.0897868,0.0,-0.064610094,-0.0871618,0.028821528,0.0,0.0,0.0,0.0,0.0,0.0,0.0010486636,-0.012136178,-0.7128442
136773385,0.61625695,0.21945854,-0.64012116,3.0897868,0.0,-0.06806605,-0.08784161,0.04149598,0.0,0.0,0.0,0.0,0.0,0.0,0.002409135,-0.009277723,-0.7099015
136873585,0.61625695,0.21945854,-0.64012116,3.0897868,0.0,-0.07072185,-0.08527901,0.05410552,0.0,0.0,0.0,0.0,0.0,0.0,0.0015755398,-0.0061445385,-0.70866454
136973655,0.61625695,0.21945854,-0.64012116,3.0897868,0.0,-0.072291195,-0.07988333,0.06389135,0.0,0.0,0.0,0.0,0.0,0.0,0.0041580913,-0.005956969,-0.70679486
137073937,0.61625695,0.21945854,-0.64012116,3.0897868,0.0,-0.07322205,-0.07187403,0.07228869,0.0,0.0,0.0,0.0,0.0,0.0,0.0039283503,-0.0033930456,-0.70765185
137173983,0.61625695,0.21945854,-0.64012116,3.0897868,0.0,-0.07396926,-0.06304439,0.07816374,0.0,0.0,0.0,0.0,0.0,0.0,0.0016871421,-0.0034004536,-0.7068682
137274032,0.61625695,0.21945854,-0.64012116,3.0897868,0.0,-0.07502972,-0.05263866,0.08319336,0.0,0.0,0.0,0.0,0.0,0.0,-0.00016005244,-0.00017042086,-0.7062134
137374414,0.61625695,0.21945854,-0.64012116,3.0897868,0.0,-0.077097535,-0.043123156,0.08736676,0.0,0.0,0.0,0.0,0.0,0.0,-0.0043415604,0.001896428,-0.7041204
137474223,0.61625695,0.21945854,-0.64012116,3.0897868,0.0,-0.08108474,-0.03310658,0.09107876,0.0,0.0,0.0,0.0,0.0,0.0,-0.0035432298,0.0052326783,-0.7070726
137574449,0.61625695,0.21945854,-0.64012116,3.0897868,0.0,-0.08728449,-0.024098784,0.09353584,0.0,0.0,0.0,0.0,0.0,0.0,-0.008900052,0.002428709,-0.7100148
137674366,0.61625695,0.21945854,-0.64012116,3.0897868,0.0,-0.09771952,-0.014484199,0.09506029,0.0,0.0,0.0,0.0,0.0,0.0,-0.013754026,0.006634549,-0.71146613
137794686,0.61625695,0.21945854,-0.64012116,3.0897868,0.0,-0.11525588,-0.0024854012,0.094679296,0.0,0.0,0.0,0.0,0.0,0.0,-0.016412297,0.0087045785,-0.71650624
137894610,0.61625695,0.21945854,-0.64012116,3.0897868,0.0,-0.13386679,0.0077553927,0.09154892,0.0,0.0,0.0,0.0,0.0,0.0,-0.023877108,0.011495498,-0.72208035
137994882,0.61625695,0.21945854,-0.64012116,3.0897868,0.0,-0.15923566,0.01912256,0.08686525,0.0,0.0,0.0,0.0,0.0,0.0,-0.02792599,0.01186301,-0.72218555
138094929,0.61625695,0.21945854,-0.64012116,3.0897868,0.0,-0.18611442,0.030189602,0.08394772,0.0,0.0,0.0,0.0,0.0,0.0,-0.034066934,0.019293927,-0.71759707
138194985,0.61625695,0.21945854,-0.64012116,3.0897868,0.0,-0.21671091,0.043369897,0.08330941,0.0,0.0,0.0,0.0,0.0,0.0,-0.038142048,0.017503189,-0.7170224
138295052,0.61625695,0.21945854,-0.64012116,3.0897868,0.0,-0.2453969,0.05656936,0.083902,0.0,0.0,0.0,0.0,0.0,0.0,-0.039589174,0.016828611,-0.7182715
138395366,0.61625695,0.21945854,-0.64012116,3.0897868,0.0,-0.2751459,0.07029792,0.08573884,0.0,0.0,0.0,0.0,0.0,0.0,-0.04348752,0.015187312,-0.71793765
138495192,0.61625695,0.21945854,-0.64012116,3.0897868,0.0,-0.30012366,0.081408545,0.08718455,0.0,0.0,0.0,0.0,0.0,0.0,-0.045387827,0.014673326,-0.71789855
138595428,0.61625695,0.21945854,-0.64012116,3.0897868,0.0,-0.32349157,0.091142215,0.088446915,0.0,0.0,0.0,0.0,0.0,0.0,-0.04526277,0.014660498,-0.7179547
138695547,0.61625695,0.21945854,-0.64012116,3.0897868,0.0,-0.34191638,0.09750967,0.0892688,0.0,0.0,0.0,0.0,0.0,0.0,-0.04137583,0.011811524,-0.7220644
138795613,0.61625695,0.21945854,-0.64012116,3.0897868,0.0,-0.35438734,0.09997101,0.08763182,0.0,0.0,0.0,0.0,0.0,0.0,-0.045974933,0.011707974,-0.7214377
138895778,0.61625695,0.21945854,-0.64012116,3.0897868,0.0,-0.36632404,0.09906428,0.08757985,0.0,0.0,0.0,0.0,0.0,0.0,-0.048272844,0.007847995,-0.71676135
138996634,0.61625695,0.21945854,-0.64012116,3.0897868,0.0,-0.37497556,0.094854094,0.084961355,0.0,0.0,0.0,0.0,0.0,0.0,-0.048132993,0.0055291485,-0.72216463
139115880,0.61625695,0.21945854,-0.64012116,3.0897868,0.0,-0.38391113,0.086809896,0.08160174,0.0,0.0,0.0,0.0,0.0,0.0,-0.046101134,0.0024455036,-0.7251983
139215906,0.61625695,0.21945854,-0.64012116,3.0897868,0.0,-0.39072135,0.07875279,0.078163385,0.0,0.0,0.0,0.0,0.0,0.0,-0.046376,-0.00025075604,-0.72867554
139315951,0.61625695,0.21945854,-0.64012116,3.0897868,0.0,-0.3972583,0.06943503,0.07378805,0.0,0.0,0.0,0.0,0.0,0.0,-0.04809154,-0.00043101056,-0.72720313
139416029,0.61625695,0.21945854,-0.64012116,3.0897868,0.0,-0.40225053,0.06104273,0.069906354,0.0,0.0,0.0,0.0,0.0,0.0,-0.049593672,-0.00039754738,-0.72712183
139516315,0.61625695,0.21945854,-0.64012116,3.0897868,0.0,-0.40605196,0.05331286,0.066191435,0.0,0.0,0.0,0.0,0.0,0.0,-0.04691268,-0.0002878249,-0.72812814
139616451,0.61625695,0.21945854,-0.64012116,3.0897868,0.0,-0.40771025,0.047597703,0.062466025,0.0,0.0,0.0,0.0,0.0,0.0,-0.047739454,-0.0010919922,-0.72945166
139716437,0.61625695,0.21945854,-0.64012116,3.0897868,0.0,-0.4079336,0.04250952,0.05776024,0.0,0.0,0.0,0.0,0.0,0.0,-0.04667579,-0.00023054128,-0.7335305
139816566,0.61625695,0.21945854,-0.64012116,3.0897868,0.0,-0.40747505,0.039219484,0.051505923,0.0,0.0,0.0,0.0,0.0,0.0,-0.046668816,-0.0021875724,-0.7376939
139916586,0.61625695,0.21945854,-0.64012116,3.0897868,0.0,-0.4069182,0.037098784,0.04452783,0.0,0.0,0.0,0.0,0.0,0.0,-0.045156907,-0.00031651853,-0.73672646
140016621,0.61625695,0.21945854,-0.64012116,3.0897868,0.0,-0.406066,0.03591314,0.037845135,0.0,0.0,0.0,0.0,0.0,0.0,-0.047877237,0.0002020981,-0.73992705
140116709,0.61625695,0.21945854,-0.64012116,3.0897868,0.0,-0.4043058,0.035109866,0.029352784,0.0,0.0,0.0,0.0,0.0,0.0,-0.04337364,0.00078370597,-0.74316734
140216976,0.61625695,0.21945854,-0.64012116,3.0897868,0.0,-0.40213424,0.034464277,0.021750987,0.0,0.0,0.0,0.0,0.0,0.0,-0.044629447,0.002088481,-0.74353683
140317139,0.61625695,0.21945854,-0.64012116,3.0897868,0.0,-0.39931387,0.032575898,0.014947772,0.0,0.0,0.0,0.0,0.0,0.0,-0.04595605,-0.004382161,-0.74234337
140437321,0.61625695,0.21945854,-0.64012116,3.0897868,0.0,-0.395659,0.027646232,0.010412455,0.0,0.0,0.0,0.0,0.0,0.0,-0.04670522,-0.0054333974,-0.7383153
140537298,0.61625695,0.21945854,-0.64012116,3.0897868,0.0,-0.39199686,0.022149814,0.010106802,0.0,0.0,0.0,0.0,0.0,0.0,-0.047427453,-0.0043779607,-0.7322495
140637416,0.61625695,0.21945854,-0.64012116,3.0897868,0.0,-0.3873259,0.015766062,0.0127545,0.0,0.0,0.0,0.0,0.0,0.0,-0.0450375,-0.003012283,-0.7289674
140737496,nan,nan,-0.64012116,3.0897868,0.0,-0.024248535,0.0012573418,0.017454386,0.0,0.0,0.0,0.0,0.0,0.0,-0.015962929,-0.007933603,-0.72549284
140837562,nan,nan,-0.64012116,3.0897868,0.0,-0.060039647,0.0031131927,0.024662137,0.0,0.0,0.0,0.0,0.0,0.0,-0.018913703,-0.00476905,-0.71887887
140937558,nan,nan,-0.64012116,3.0897868,0.0,-0.12742935,0.006607503,0.032735705,0.0,0.0,0.0,0.0,0.0,0.0,-0.024828263,-0.00498893,-0.7149511
141037958,nan,nan,-0.64012116,3.0897868,0.0,-0.18309763,0.009494031,0.041235924,0.0,0.0,0.0,0.0,0.0,0.0,-0.029994244,-0.005451548,-0.71428955
141137980,nan,nan,-0.64012116,3.0897868,0.0,-0.21688469,0.011245967,0.047112882,0.0,0.0,0.0,0.0,0.0,0.0,-0.03216409,-0.0045280186,-0.716962
141238077,nan,nan,-0.64012116,3.0897868,0.0,-0.21652324,0.011227225,0.049633622,0.0,0.0,0.0,0.0,0.0,0.0,-0.030659199,-0.0033301185,-0.7214061
141339656,nan,nan,-0.64012116,3.0897868,0.0,-0.21651141,0.011226611,0.047933877,0.0,0.0,0.0,0.0,0.0,0.0,-0.03217443,-0.004192483,-0.7265879
141438928,nan,nan,-0.64012116,3.0897868,0.0,-0.25033095,0.012980232,0.04183519,0.0,0.0,0.0,0.0,0.0,0.0,-0.035901517,-0.0060040634,-0.7349246
141538383,nan,nan,-0.64012116,3.0897868,0.0,-0.3371887,0.017484004,0.032322407,0.0,0.0,0.0,0.0,0.0,0.0,-0.039435707,-0.004394931,-0.74127305
141658732,nan,nan,-0.64012116,3.0897868,0.0,-0.35149774,0.01822596,0.017892301,0.0,0.0,0.0,0.0,0.0,0.0,-0.04206589,-0.0075431173,-0.7446031
141758788,nan,nan,-0.64012116,3.0897868,0.0,-0.3809309,0.019752137,0.0072309375,0.0,0.0,0.0,0.0,0.0,0.0,-0.044599842,-0.0053028674,-0.7434005
141858843,nan,nan,-0.64012116,3.0897868,0.0,-0.37886903,0.019645225,0.0010181069,0.0,0.0,0.0,0.0,0.0,0.0,-0.039182402,-0.008339698,-0.74195963
141958844,nan,nan,-0.64012116,3.0897868,0.0,-0.37889367,0.019646503,-0.0021685362,0.0,0.0,0.0,0.0,0.0,0.0,-0.041681506,-0.007917269,-0.737365
142058989,nan,nan,-0.64012116,3.0897868,0.0,-0.3977326,0.020623343,-0.0018997788,0.0,0.0,0.0,0.0,0.0,0.0,-0.041525908,-0.011060838,-0.73498297
142158948,nan,nan,-0.64012116,3.0897868,0.0,-0.43488505,0.022549784,0.0026743412,0.0,0.0,0.0,0.0,0.0,0.0,-0.04215894,-0.0070133703,-0.7286866
142260499,nan,nan,-0.64012116,3.0897868,0.0,-0.43299696,0.022451881,0.010287046,0.0,0.0,0.0,0.0,0.0,0.0,-0.041220948,-0.0075441655,-0.7257357
142359035,nan,nan,-0.64012116,3.0897868,0.0,-0.4330216,0.02245316,0.017602146,0.0,0.0,0.0,0.0,0.0,0.0,-0.04146983,-0.008528328,-0.7232747
142459674,nan,nan,-0.64012116,3.0897868,0.0,-0.41418487,0.02147643,0.025183797,0.0,0.0,0.0,0.0,0.0,0.0,-0.041574217,-0.008947974,-0.7224826
142559407,nan,nan,-0.64012116,3.0897868,0.0,-0.40613762,0.021059163,0.030502558,0.0,0.0,0.0,0.0,0.0,0.0,-0.041534223,-0.007956886,-0.72278845
142660364,nan,nan,-0.64012116,3.0897868,0.0,-0.3768533,0.019540703,0.033868134,0.0,0.0,0.0,0.0,0.0,0.0,-0.03638958,-0.009919501,-0.72325677
142759707,nan,nan,-0.64012116,3.0897868,0.0,-0.351279,0.018214617,0.034781158,0.0,0.0,0.0,0.0,0.0,0.0,-0.032690793,-0.009431632,-0.7257147
142859632,nan,nan,-0.64012116,3.0897868,0.0,-0.3518161,0.018242467,0.034053683,0.0,0.0,0.0,0.0,0.0,0.0,-0.033646025,-0.011615676,-0.72676575
142980045,nan,nan,-0.64012116,3.0897868,0.0,-0.35183045,0.018243212,0.032286882,0.0,0.0,0.0,0.0,0.0,0.0,-0.032225907,-0.00996221,-0.72536343
143079757,nan,nan,-0.64012116,3.0897868,0.0,-0.2951355,0.015303449,0.032342672,0.0,0.0,0.0,0.0,0.0,0.0,-0.02549678,-0.010047023,-0.72068554
143179859,nan,nan,-0.64012116,3.0897868,0.0,-0.29211283,0.015146717,0.034786344,0.0,0.0,0.0,0.0,0.0,0.0,-0.025203094,-0.009641235,-0.71864986
143279937,nan,nan,-0.64012116,3.0897868,0.0,-0.2708453,0.014043947,0.03999436,0.0,0.0,0.0,0.0,0.0,0.0,-0.027127836,-0.008895611,-0.7115465
143380217,nan,nan,-0.64012116,3.0897868,0.0,-0.22562374,0.011699107,0.04963112,0.0,0.0,0.0,0.0,0.0,0.0,-0.023490157,-0.006382198,-0.70475125
143480316,0.5879683,0.41901457,-0.64012116,3.0897868,0.0,0.0,0.0,0.060586154,0.0,0.0,0.0,0.0,0.0,0.0,-0.0018526856,-0.0046035694,-0.70168066
143580302,0.5879683,0.41901457,-0.64012116,3.0897868,0.0,0.02396498,-0.0035552203,0.07268673,0.0,0.0,0.0,0.0,0.0,0.0,-0.005524108,-0.0073314155,-0.6996944
143680511,0.5879683,0.41901457,-0.64012116,3.0897868,0.0,0.04305522,-0.005537669,0.08194542,0.0,0.0,0.0,0.0,0.0,0.0,-0.007856872,-0.0039967215,-0.700258
143780997,0.5879683,0.41901457,-0.64012116,3.0897868,0.0,0.059956815,-0.0057656392,0.08829939,0.0,0.0,0.0,0.0,0.0,0.0,-0.0071503166,-0.0010715085,-0.70508295
143880637,0.5879683,0.41901457,-0.64012116,3.0897868,0.0,0.071356215,-0.004394479,0.08914906,0.0,0.0,0.0,0.0,0.0,0.0,-0.010278003,-0.008597668,-0.7133171
143980657,0.5879683,0.41901457,-0.64012116,3.0897868,0.0,0.0783068,-0.0025320738,0.0835619,0.0,0.0,0.0,0.0,0.0,0.0,-0.013391964,-0.0050618127,-0.7234506
144080743,0.5879683,0.41901457,-0.64012116,3.0897868,0.0,0.08032603,-0.0006552011,0.07393968,0.0,0.0,0.0,0.0,0.0,0.0,-0.014895871,-0.0004846435,-0.7280618
144200853,0.5879683,0.41901457,-0.64012116,3.0897868,0.0,0.07759283,0.0019441992,0.06063783,0.0,0.0,0.0,0.0,0.0,0.0,-0.014402751,-0.00011818879,-0.7295822
144301600,0.5879683,0.41901457,-0.64012116,3.0897868,0.0,0.072135255,0.004416081,0.051312745,0.0,0.0,0.0,0.0,0.0,0.0,-0.01917892,-0.0015031451,-0.72679263
144401635,0.5879683,0.41901457,-0.64012116,3.0897868,0.0,0.06534185,0.006965284,0.04711938,0.0,0.0,0.0,0.0,0.0,0.0,-0.0201641,0.0047027725,-0.72176373
144501795,0.5879683,0.41901457,-0.64012116,3.0897868,0.0,0.057968337,0.0117324935,0.047596574,0.0,0.0,0.0,0.0,0.0,0.0,-0.017564699,0.0076667573,-0.7174434
144601803,0.5879683,0.41901457,-0.64012116,3.0897868,0.0,0.05276523,0.01870879,0.05222106,0.0,0.0,0.0,0.0,0.0,0.0,-0.019232538,0.008423393,-0.7128171
144701792,0.5879683,0.41901457,-0.64012116,3.0897868,0.0,0.049920987,0.029038528,0.060853004,0.0,0.0,0.0,0.0,0.0,0.0,-0.017899955,0.011788672,-0.7057715
144801778,0.5879683,0.41901457,-0.64012116,3.0897868,0.0,0.050865088,0.04075576,0.07047057,0.0,0.0,0.0,0.0,0.0,0.0,-0.01389667,0.0161935,-0.7039624
144901770,0.5879683,0.41901457,-0.64012116,3.0897868,0.0,0.056245934,0.05515716,0.0792824,0.0,0.0,0.0,0.0,0.0,0.0,-0.010701889,0.017104777,-0.7061113
145001789,0.5879683,0.41901457,-0.64012116,3.0897868,0.0,0.06500585,0.069878966,0.08434433,0.0,0.0,0.0,0.0,0.0,0.0,-0.012048356,0.015443899,-0.70830774
145101968,0.5879683,0.41901457,-0.64012116,3.0897868,0.0,0.077426806,0.086897716,0.08477765,0.0,0.0,0.0,0.0,0.0,0.0,-0.009282292,0.018266145,-0.7152505
145203139,0.5879683,0.41901457,-0.64012116,3.0897868,0.0,0.09077151,0.10374983,0.079559386,0.0,0.0,0.0,0.0,0.0,0.0,-0.006381916,0.018482244,-0.72372067
145302071,0.5879683,0.41901457,-0.64012116,3.0897868,0.0,0.10207991,0.1176087,0.070313215,0.0,0.0,0.0,0.0,0.0,0.0,-0.0070777275,0.02320753,-0.72894144
145422130,0.5879683,0.41901457,-0.64012116,3.0897868,0.0,0.11358118,0.13075493,0.05532837,0.0,0.0,0.0,0.0,0.0,0.0,-0.005195466,0.016979884,-0.7343858
145523512,0.5879683,0.41901457,-0.64012116,3.0897868,0.0,0.12068279,0.13796045,0.042029202,0.0,0.0,0.0,0.0,0.0,0.0,-0.007966234,0.018102191,-0.73477495
145622319,0.5879683,0.41901457,-0.64012116,3.0897868,0.0,0.12451232,0.14126363,0.031532943,0.0,0.0,0.0,0.0,0.0,0.0,-0.0059690513,0.015717587,-0.7381336
145723231,0.5879683,0.41901457,-0.64012116,3.0897868,0.0,0.12643823,0.14182507,0.023624122,0.0,0.0,0.0,0.0,0.0,0.0,-0.0036101136,0.012850946,-0.73477465
145822437,0.5879683,0.41901457,-0.64012116,3.0897868,0.0,0.12728876,0.14002869,0.019935846,0.0,0.0,0.0,0.0,0.0,0.0,-0.0054995483,0.014296904,-0.73010945
145923388,0.5879683,0.41901457,-0.64012116,3.0897868,0.0,0.12787123,0.13658431,0.019606411,0.0,0.0,0.0,0.0,0.0,0.0,-0.00506007,0.011551166,-0.7269839
146022793,0.5879683,0.41901457,-0.64012116,3.0897868,0.0,0.12853982,0.13277185,0.021714807,0.0,0.0,0.0,0.0,0.0,0.0,-0.0044385185,0.014349697,-0.7256405
146123103,0.5879683,0.41901457,-0.64012116,3.0897868,0.0,0.13000752,0.12895986,0.025030315,0.0,0.0,0.0,0.0,0.0,0.0,-0.0021846108,0.01399281,-0.7235145
146222953,0.5879683,0.41901457,-0.64012116,3.0897868,0.0,0.13213032,0.12604575,0.028271198,0.0,0.0,0.0,0.0,0.0,0.0,-0.0023540212,0.010606312,-0.7221638
146323642,0.5879683,0.41901457,-0.64012116,3.0897868,0.0,0.1362483,0.123428226,0.030141413,0.0,0.0,0.0,0.0,0.0,0.0,-0.00064322166,0.008764116,-0.72541136
146423012,0.5879683,0.41901457,-0.64012116,3.0897868,0.0,0.14185227,0.12187906,0.029463768,0.0,0.0,0.0,0.0,0.0,0.0,0.0041698497,0.013831507,-0.72686964
146543213,0.5879683,0.41901457,-0.64012116,3.0897868,0.0,0.15225308,0.12105436,0.026112318,0.0,0.0,0.0,0.0,0.0,0.0,0.0043872464,0.014432285,-0.7253777
146643261,0.5879683,0.41901457,-0.64012116,3.0897868,0.0,0.16337748,0.12088029,0.023014009,0.0,0.0,0.0,0.0,0.0,0.0,0.014482688,0.009878006,-0.7331706
146743533,0.5879683,0.41901457,-0.64012116,3.0897868,0.0,0.17783728,0.12113626,0.019753873,0.0,0.0,0.0,0.0,0.0,0.0,0.014517622,0.012652814,-0.72730017
146843627,0.5879683,0.41901457,-0.64012116,3.0897868,0.0,0.19259803,0.12144186,0.017433405,0.0,0.0,0.0,0.0,0.0,0.0,0.011430445,0.010884272,-0.72388506
146943683,nan,nan,-0.64012116,3.0897868,0.0,-0.036593348,0.01396082,0.017051995,0.0,0.0,0.0,0.0,0.0,0.0,-0.0045885555,-0.0011066322,-0.72322905
147043787,nan,nan,-0.64012116,3.0897868,0.0,-1.5046516e-05,7.801962e-07,0.018343687,0.0,0.0,0.0,0.0,0.0,0.0,-0.00082481746,0.0021844846,-0.7220323
147143786,0.34938332,0.29644766,-0.64012116,3.0897868,0.0,0.009299229,-0.0020913377,0.01835978,0.0,0.0,0.0,0.0,0.0,0.0,-0.0007038582,0.0018116515,-0.7233465
147243856,0.34938332,0.29644766,-0.64012116,3.0897868,0.0,0.023492817,-0.005233596,0.017043948,0.0,0.0,0.0,0.0,0.0,0.0,0.005458981,-0.0042069764,-0.73137414
147343969,0.34938332,0.29644766,-0.64012116,3.0897868,0.0,0.03852122,-0.008321807,0.01338172,0.0,0.0,0.0,0.0,0.0,0.0,0.0061170068,-0.0017677776,-0.7337095
147444047,0.34938332,0.29644766,-0.64012116,3.0897868,0.0,0.052632336,-0.010482113,0.009086311,0.0,0.0,0.0,0.0,0.0,0.0,0.0044541443,0.0018892916,-0.7306585
147544629,0.34938332,0.29644766,-0.64012116,3.0897868,0.0,0.06770097,-0.011669413,0.004937649,0.0,0.0,0.0,0.0,0.0,0.0,0.0073127234,-0.0007771801,-0.7307813
147644809,0.34938332,0.29644766,-0.64012116,3.0897868,0.0,0.08138386,-0.011760183,0.0022596717,0.0,0.0,0.0,0.0,0.0,0.0,0.010709899,0.005597922,-0.7294168
147744734,0.34938332,0.29644766,-0.64012116,3.0897868,0.0,0.09516566,-0.01022685,0.0014730692,0.0,0.0,0.0,0.0,0.0,0.0,0.009476469,0.003663175,-0.72795224
147865204,0.34938332,0.29644766,-0.64012116,3.0897868,0.0,0.11048524,-0.0067152022,0.0019628406,0.0,0.0,0.0,0.0,0.0,0.0,0.009122083,0.003656596,-0.7267159
147965362,0.34938332,0.29644766,-0.64012116,3.0897868,0.0,0.12071294,-0.0030694394,0.0035623312,0.0,0.0,0.0,0.0,0.0,0.0,0.0074572796,0.004569942,-0.7261199
148064810,0.34938332,0.29644766,-0.64012116,3.0897868,0.0,0.1286868,0.0014766231,0.0055108666,0.0,0.0,0.0,0.0,0.0,0.0,0.00621901,0.0044271857,-0.7254153
148164827,0.34938332,0.29644766,-0.64012116,3.0897868,0.0,0.13257372,0.005568954,0.0069274306,0.0,0.0,0.0,0.0,0.0,0.0,0.0044397786,0.0058759376,-0.7254586
148265159,0.34938332,0.29644766,-0.64012116,3.0897868,0.0,0.13234258,0.0096129,0.009049237,0.0,0.0,0.0,0.0,0.0,0.0,0.0036486527,0.007701784,-0.72264373
148365135,0.34938332,0.29644766,-0.64012116,3.0897868,0.0,0.12902845,0.012687152,0.010669172,0.0,0.0,0.0,0.0,0.0,0.0,-0.0005072104,0.0052230433,-0.7238264
148465478,0.34938332,0.29644766,-0.64012116,3.0897868,0.0,0.12143411,0.015306031,0.013951838,0.0,0.0,0.0,0.0,0.0,0.0,-0.0022904268,0.0072842883,-0.7196734
