timestamp,ref_timestamp,ref_lat,ref_lon,x,y,z,delta_xy[0],delta_xy[1],delta_z,vx,vy,vz,z_deriv,delta_vxy[0],delta_vxy[1],delta_vz,ax,ay,az,yaw,ref_alt,dist_bottom,dist_bottom_rate,eph,epv,evh,evv,vxy_max,vz_max,hagl_min,hagl_max,xy_valid,z_valid,v_xy_valid,v_z_valid,xy_reset_counter,z_reset_counter,vxy_reset_counter,vz_reset_counter,xy_global,z_global,dist_bottom_valid
26703295,0,0.0,0.0,0.14724618,0.6509984,-0.03184432,0.14816174,0.6470082,-0.25513867,-0.0011504437,0.0019383752,0.018124575,0.0077949404,0.0009055792,-0.0012440314,-0.0001416259,-0.00087827805,-0.0016396082,0.037266158,3.0628703,0.0,0.1,-0.018124575,0.0053459792,0.0036762753,0.025943216,0.017178712,inf,inf,inf,inf,1,1,1,1,2,1,2,3,0,0,0
26807284,0,0.0,0.0,0.1471282,0.65095943,-0.031800825,0.14816174,0.6470082,-0.25513867,-0.0010979066,0.0016566128,0.01782991,0.0073034978,0.0009055792,-0.0012440314,-0.0001416259,-0.010663132,0.018280828,0.025684787,3.0626662,0.0,0.1,-0.01782991,0.005078966,0.0034916815,0.025889706,0.017142847,inf,inf,inf,inf,1,1,1,1,2,1,2,3,0,0,0
26903290,0,0.0,0.0,0.14705604,0.6509162,-0.031797566,0.14816174,0.6470082,-0.25513867,-0.0009599463,0.0016501255,0.017282994,0.006644231,0.0009055792,-0.0012440314,-0.0001416259,0.0035428714,0.010274545,0.03799533,3.0626402,0.0,0.1,-0.017282994,0.0050662244,0.0034796684,0.025939438,0.017173262,inf,inf,inf,inf,1,1,1,1,2,1,2,3,0,0,0
27007270,0,0.0,0.0,0.14702167,0.6509091,-0.031837575,0.14816174,0.6470082,-0.25513867,-0.00079129403,0.0025173991,0.017265713,0.0065074265,0.0009055792,-0.0012440314,-0.0001416259,0.005391819,0.13787146,0.057141777,3.0627398,0.0,0.1,-0.017265713,0.005271546,0.0036093157,0.026510047,0.017509062,inf,inf,inf,inf,1,1,1,1,2,1,2,3,0,0,0
27111289,0,0.0,0.0,0.14708845,0.65098745,-0.03184057,0.14816174,0.6470082,-0.25513867,0.0010586894,0.002132855,0.018691394,0.007825357,0.0009055792,-0.0012440314,-0.0001416259,0.29361022,-0.19328342,-0.02429707,3.0628257,0.0,0.1,-0.018691394,0.0051261904,0.0035156093,0.026051987,0.017243361,inf,inf,inf,inf,1,1,1,1,2,1,2,3,0,0,0
27214470,0,0.0,0.0,0.1472315,0.6510926,-0.031804994,0.14816174,0.6470082,-0.25513867,-0.0011945791,0.006445762,0.018820949,0.007840951,0.0009055792,-0.0012440314,-0.0001416259,-0.62586564,0.06545147,0.05005853,3.0639725,0.0,0.1,-0.018820949,0.0050701415,0.0034779832,0.02593863,0.01717788,inf,inf,inf,inf,1,1,1,1,2,1,2,3,0,0,0
27310469,0,0.0,0.0,0.14735791,0.6511191,-0.031694874,0.14816174,0.6470082,-0.25513867,0.0010977619,0.0012617098,0.019171486,0.008156121,0.0009055792,-0.0012440314,-0.0001416259,0.14970785,-0.049157005,-0.029824298,3.0638149,0.0,0.1,-0.019171486,0.0054637664,0.003733354,0.026797468,0.017680006,inf,inf,inf,inf,1,1,1,1,2,1,2,3,0,0,0
27414518,0,0.0,0.0,0.14756888,0.6511764,-0.03156856,0.14816174,0.6470082,-0.25513867,0.000418165,0.0014481922,0.019146958,0.0080706645,0.0009055792,-0.0012440314,-0.0001416259,-0.2292784,-0.027941193,0.028677333,3.0633,0.0,0.1,-0.019146958,0.005189137,0.0035600038,0.02594976,0.017185865,inf,inf,inf,inf,1,1,1,1,2,1,2,3,0,0,0
27518479,0,0.0,0.0,0.14766589,0.6510173,-0.03156993,0.14816174,0.6470082,-0.25513867,0.00030077263,0.00089919067,0.018639317,0.007448464,0.0009055792,-0.0012440314,-0.0001416259,0.103456296,-0.34632084,0.11114595,3.062162,0.0,0.1,-0.018639317,0.005089137,0.0034920007,0.025910545,0.01716297,inf,inf,inf,inf,1,1,1,1,2,1,2,3,0,0,0
27614470,0,0.0,0.0,0.14785829,0.65085256,-0.031724725,0.14816174,0.6470082,-0.25513867,0.0010577836,0.004547515,0.016640946,0.0053375857,0.0009055792,-0.0012440314,-0.0001416259,-0.16569535,0.8280553,0.09720401,3.0640213,0.0,0.1,-0.016640946,0.004950494,0.0033996732,0.025650578,0.017008094,inf,inf,inf,inf,1,1,1,1,2,1,2,3,0,0,0
27718479,0,0.0,0.0,0.14791432,0.65066653,-0.031934038,0.14816174,0.6470082,-0.25513867,0.0019601202,0.0007840322,0.017944565,0.006547111,0.0009055792,-0.0012440314,-0.0001416259,0.37052298,1.0348688,0.02594284,3.0623493,0.0,0.1,-0.017944565,0.004963296,0.0034072325,0.025672616,0.017021872,inf,inf,inf,inf,1,1,1,1,2,1,2,3,0,0,0
27822496,0,0.0,0.0,0.147945,0.65039384,-0.03204174,0.14816174,0.6470082,-0.25513867,-0.0013590392,-0.00046742664,0.018428415,0.0069773477,0.0009055792,-0.0012440314,-0.0001416259,0.31066638,0.18029687,-0.24895822,3.0628395,0.0,0.1,-0.018428415,0.004901207,0.0033686531,0.025391564,0.016858168,inf,inf,inf,inf,1,1,1,1,2,1,2,3,0,0,0
27918483,0,0.0,0.0,0.14786321,0.65043044,-0.032162372,0.14816174,0.6470082,-0.25513867,0.00081881136,-0.00062054617,0.017434534,0.005960801,0.0009055792,-0.0012440314,-0.0001416259,-0.37651277,0.9582893,0.13458703,3.0649664,0.0,0.1,-0.017434534,0.005044348,0.0034615297,0.0257529,0.017072963,inf,inf,inf,inf,1,1,1,1,2,1,2,3,0,0,0
28022476,0,0.0,0.0,0.14770702,0.65018773,-0.032247063,0.14816174,0.6470082,-0.25513867,-0.0017073672,-0.00029685086,0.017196523,0.005753784,0.0009055792,-0.0012440314,-0.0001416259,-0.76460904,-0.34438854,0.13263002,3.0616884,0.0,0.1,-0.017196523,0.005229254,0.0035837372,0.026101977,0.01727903,inf,inf,inf,inf,1,1,1,1,2,1,2,3,0,0,0
28126470,0,0.0,0.0,0.14762323,0.64989215,-0.032415446,0.14816174,0.6470082,-0.25513867,0.0014139041,-0.0031776563,0.01612504,0.0046896385,0.0009055792,-0.0012440314,-0.0001416259,0.4081017,0.15348032,0.2722201,3.0603747,0.0,0.1,-0.01612504,0.0050863833,0.0034915044,0.025772862,0.017084582,inf,inf,inf,inf,1,1,1,1,2,1,2,3,0,0,0
28222502,0,0.0,0.0,0.14735213,0.6500129,-0.032673277,0.14816174,0.6470082,-0.25513867,-0.002010151,-0.0007801071,0.011462223,4.4229935e-05,0.0009055792,-0.0012440314,-0.0001416259,-0.5533414,0.20449851,-0.29481518,3.0626228,0.0,0.1,-0.011462223,0.0051702675,0.003545181,0.026030226,0.017235084,inf,inf,inf,inf,1,1,1,1,2,1,2,3,0,0,0
28326477,0,0.0,0.0,0.14719011,0.64988816,-0.03307302,0.14816174,0.6470082,-0.25513867,-0.0014764863,0.0021268711,0.012875314,0.0014963478,0.0009055792,-0.0012440314,-0.0001416259,0.20684697,0.56418616,0.243065,3.063038,0.0,0.1,-0.012875314,0.0053512407,0.0036626928,0.026456669,0.017484859,inf,inf,inf,inf,1,1,1,1,2,1,2,3,0,0,0
28430504,0,0.0,0.0,0.14715269,0.64996374,-0.03350678,0.14816174,0.6470082,-0.25513867,-0.0036839317,0.0012654425,0.014339236,0.0030071733,0.0009055792,-0.0012440314,-0.0001416259,-0.66642386,0.890939,0.36801675,3.0632381,0.0,0.1,-0.014339236,0.0054423534,0.0037239268,0.026573522,0.017553212,inf,inf,inf,inf,1,1,1,1,2,1,2,3,0,0,0
28534482,0,0.0,0.0,0.14704388,0.6500304,-0.03396817,0.14816174,0.6470082,-0.25513867,-0.0017716131,0.005541396,0.012791417,0.0014877921,0.0009055792,-0.0012440314,-0.0001416259,-0.999113,1.7318742,1.2423532,3.0629923,0.0,0.1,-0.012791417,0.0052017164,0.00356835,0.026024362,0.017236082,inf,inf,inf,inf,1,1,1,1,2,1,2,3,0,0,0
28630476,0,0.0,0.0,0.1471781,0.6501058,-0.034497123,0.14816174,0.6470082,-0.25513867,0.0064787227,0.00012061879,0.0016728833,-0.009573736,0.0009055792,-0.0012440314,-0.0001416259,0.64991784,0.8321044,-0.25350618,3.0624976,0.0,0.1,-0.0016728833,0.0050007007,0.0034341633,0.02571514,0.017052468,inf,inf,inf,inf,1,1,1,1,2,1,2,3,0,0,0
28734471,0,0.0,0.0,0.14718677,0.65023375,-0.034908205,0.14816174,0.6470082,-0.25513867,-0.00234422,0.0029595958,0.015070596,0.003992661,0.0009055792,-0.0012440314,-0.0001416259,0.15985872,0.5480456,1.4252018,3.0627048,0.0,0.1,-0.015070596,0.0052091093,0.0035696689,0.026161432,0.017315352,inf,inf,inf,inf,1,1,1,1,2,1,2,3,0,0,0
28838470,0,0.0,0.0,0.14707346,0.650346,-0.035145078,0.14816174,0.6470082,-0.25513867,-0.0022624389,0.0013250936,0.010108242,-0.00075443584,0.0009055792,-0.0012440314,-0.0001416259,-0.8229842,0.3358219,0.37783542,3.0630171,0.0,0.1,-0.010108242,0.0050363136,0.0034594142,0.025630262,0.017002478,inf,inf,inf,inf,1,1,1,1,2,1,2,3,0,0,0
28942476,0,0.0,0.0,0.1469988,0.6506275,-0.035348855,0.14816174,0.6470082,-0.25513867,-0.0013817786,-0.002333971,0.018737081,0.0081443,0.0009055792,-0.0012440314,-0.0001416259,0.25722298,-0.902963,2.1120212,3.0635133,0.0,0.10006673,-0.018737081,0.004950453,0.003402492,0.025484309,0.016910017,inf,inf,inf,inf,1,1,1,1,2,1,2,3,0,0,0
29044908,0,0.0,0.0,0.14677094,0.6506314,-0.035397995,0.14816174,0.6470082,-0.25513867,-0.0025360947,0.0010915406,0.015318799,0.005042806,0.0009055792,-0.0012440314,-0.0001416259,0.82419693,0.016734412,-2.3220003,3.0634205,0.0,0.100115865,-0.015318799,0.00513321,0.0035219493,0.025887625,0.017155863,inf,inf,inf,inf,1,1,1,1,2,1,2,3,0,0,0
29148915,0,0.0,0.0,0.14663097,0.6501712,-0.03533012,0.14816174,0.6470082,-0.25513867,-0.007791503,-0.009252197,0.019717002,0.00972177,0.0009055792,-0.0012440314,-0.0001416259,-0.47950706,-2.611327,2.4866488,3.0626886,0.0,0.10004799,-0.019717002,0.005183303,0.0035576401,0.025858523,0.017128615,inf,inf,inf,inf,1,1,1,1,2,1,2,3,0,0,0
29245669,0,0.0,0.0,0.14651738,0.6498929,-0.035234842,0.14816174,0.6470082,-0.25513867,-0.00433641,0.0004482557,0.022336144,0.012524245,0.0009055792,-0.0012440314,-0.0001416259,-0.29192513,0.5138999,1.9546547,3.0628574,0.0,0.1,-0.022336144,0.0051344186,0.0035263207,0.025764946,0.017075434,inf,inf,inf,inf,1,1,1,1,2,1,2,3,0,0,0
29349670,0,0.0,0.0,0.14663644,0.64965284,-0.035234027,0.14816174,0.6470082,-0.25513867,0.0037967335,-0.0070325253,0.0107157,0.0010500164,0.0009055792,-0.0012440314,-0.0001416259,2.0800142,-1.8608164,-1.9466622,3.0633197,0.0,0.1,-0.0107157,0.0053197592,0.0036433374,0.026403992,0.017457273,inf,inf,inf,inf,1,1,1,1,2,1,2,3,0,0,0
29453678,0,0.0,0.0,0.14704023,0.6494712,-0.035531662,0.14816174,0.6470082,-0.25513867,0.004825424,0.0071012476,0.012264654,0.0026583676,0.0009055792,-0.0012440314,-0.0001416259,0.44022745,1.5200236,0.66765374,3.0636742,0.0,0.10024954,-0.012264654,0.005147039,0.0035312115,0.02600018,0.017209893,inf,inf,inf,inf,1,1,1,1,2,1,2,3,0,0,0
29549676,0,0.0,0.0,0.14739193,0.6493687,-0.03585489,0.14816174,0.6470082,-0.25513867,-0.0040849773,-0.009696801,0.019905128,0.010260353,0.0009055792,-0.0012440314,-0.0001416259,-0.66049707,-1.1025577,2.3336453,3.0639672,0.0,0.100572765,-0.019905128,0.0049852487,0.0034228999,0.025734322,0.017055664,inf,inf,inf,inf,1,1,1,1,2,1,2,3,0,0,0
29653670,0,0.0,0.0,0.14775124,0.6494199,-0.036196273,0.14816174,0.6470082,-0.25513867,-0.000987646,0.004476521,0.014946054,0.0053216615,0.0009055792,-0.0012440314,-0.0001416259,-0.37500826,3.9235928,3.2848268,3.0631654,0.0,0.10091415,-0.014946054,0.005206105,0.0035672039,0.026155498,0.017306162,inf,inf,inf,inf,1,1,1,1,2,1,2,3,0,0,0
29757672,0,0.0,0.0,0.14788303,0.64944935,-0.036565416,0.14816174,0.6470082,-0.25513867,-0.0012595776,0.006896165,0.015284132,0.0057543777,0.0009055792,-0.0012440314,-0.0001416259,0.8784497,2.797484,2.4162388,3.0631673,0.0,0.10128329,-0.015284132,0.0053129345,0.0036399162,0.02622329,0.017353566,inf,inf,inf,inf,1,1,1,1,2,1,2,3,0,0,0
29861678,0,0.0,0.0,0.147506,0.64943343,-0.036685035,0.14816174,0.6470082,-0.25513867,-0.0015317347,-0.001785165,0.011426037,0.0019975798,0.0009055792,-0.0012440314,-0.0001416259,1.4439266,-0.37473723,-1.2843819,3.0638423,0.0,0.10140291,-0.011426037,0.00509329,0.003498082,0.025717907,0.017051203,inf,inf,inf,inf,1,1,1,1,2,1,2,3,0,0,0
29965687,0,0.0,0.0,0.14693148,0.64957106,-0.036749937,0.14816174,0.6470082,-0.25513867,0.0040557343,0.0008667754,0.0125979325,0.0033379113,0.0009055792,-0.0012440314,-0.0001416259,3.953007,0.33733222,-2.8445888,3.0640242,0.0,0.10146781,-0.0125979325,0.0049530696,0.003405713,0.025444144,0.016890356,inf,inf,inf,inf,1,1,1,1,2,1,2,3,0,0,0
30069676,0,0.0,0.0,0.14646249,0.6497241,-0.03687464,0.14816174,0.6470082,-0.25513867,-0.0037552365,-0.0013579584,0.00951265,0.00046849967,0.0009055792,-0.0012440314,-0.0001416259,-1.7498121,0.24862371,-1.7022991,3.0635333,0.0,0.10159251,-0.00951265,0.0051627965,0.003540606,0.026020385,0.01723497,inf,inf,inf,inf,1,1,1,1,2,1,2,3,0,0,0
30165670,0,0.0,0.0,0.14641984,0.6497763,-0.03715036,0.14816174,0.6470082,-0.25513867,0.010635854,0.003919591,0.0025433747,-0.006331253,0.0009055792,-0.0012440314,-0.0001416259,1.6481533,0.5178657,-0.66680944,3.0638542,0.0,0.101868235,-0.0025433747,0.005130119,0.003521791,0.025810847,0.017112184,inf,inf,inf,inf,1,1,1,1,2,1,2,3,0,0,0
30269670,0,0.0,0.0,0.14742133,0.6498989,-0.03813729,0.14816174,0.6470082,-0.25513867,0.013495756,0.0016358781,-0.008142467,-0.016998135,0.0009055792,-0.0012440314,-0.0001416259,-1.671645,0.1511962,0.2588811,3.0651956,0.0,0.10285516,0.008142467,0.005069652,0.0034794365,0.025841,0.017124115,inf,inf,inf,inf,1,1,1,1,2,1,2,3,0,0,0
30373676,0,0.0,0.0,0.14829053,0.6501515,-0.039164178,0.14816174,0.6470082,-0.25513867,0.0011233226,0.021689113,0.00834968,-0.0005566897,0.0009055792,-0.0012440314,-0.0001416259,0.46064386,5.1474166,2.4127505,3.0645087,0.0,0.10388205,-0.00834968,0.0052239974,0.0035809304,0.026128925,0.017282678,inf,inf,inf,inf,1,1,1,1,2,1,2,3,0,0,0
30469694,0,0.0,0.0,0.14924903,0.650562,-0.040098134,0.14816174,0.6470082,-0.25513867,0.0060235513,0.007641876,-0.00363042,-0.012631496,0.0009055792,-0.0012440314,-0.0001416259,-2.9496422,-3.319937,-1.5934236,3.0656664,0.0,0.104816005,0.00363042,0.005238246,0.003590208,0.026143305,0.017303035,inf,inf,inf,inf,1,1,1,1,2,1,2,3,0,0,0
30573673,0,0.0,0.0,0.14930975,0.6504322,-0.040753637,0.14816174,0.6470082,-0.25513867,-0.01242895,-0.012179293,0.014778572,0.0057513164,0.0009055792,-0.0012440314,-0.0001416259,0.46452293,-3.9772227,-5.004761,3.0645797,0.0,0.10547151,-0.014778572,0.005064219,0.0034784542,0.025682434,0.017034665,inf,inf,inf,inf,1,1,1,1,2,1,2,3,0,0,0
30677688,0,0.0,0.0,0.14782777,0.65027815,-0.040810134,0.14816174,0.6470082,-0.25513867,-0.006854964,0.008205306,0.011343559,0.0024534694,0.0009055792,-0.0012440314,-0.0001416259,1.7865945,2.953477,2.194262,3.0648751,0.0,0.10552801,-0.011343559,0.0052582356,0.0036038056,0.026220398,0.017368002,inf,inf,inf,inf,1,1,1,1,2,1,2,3,0,0,0
30781670,0,0.0,0.0,0.14619969,0.6497089,-0.040898092,0.14816174,0.6470082,-0.25513867,-0.010144057,-0.0045733526,0.01366261,0.005127969,0.0009055792,-0.0012440314,-0.0001416259,1.65234,5.1403193,2.2986107,3.0651793,0.0,0.105615966,-0.01366261,0.00510841,0.0035081152,0.025856528,0.01717813,inf,inf,inf,inf,1,1,1,1,2,1,2,3,0,0,0
30884909,0,0.0,0.0,0.14411168,0.6497663,-0.0408904,0.14816174,0.6470082,-0.25513867,-0.00523918,-0.0019358011,0.01002997,0.0018334847,0.0009055792,-0.0012440314,-0.0001416259,0.2756643,-2.1731389,2.4221637,3.0645404,0.0,0.10560827,-0.01002997,0.0052634617,0.0036112631,0.026160754,0.017366452,inf,inf,inf,inf,1,1,1,1,2,1,2,3,0,0,0
30981675,0,0.0,0.0,0.14216027,0.64942265,-0.04087505,0.14816174,0.6470082,-0.25513867,-0.019538356,0.0050268434,0.028437026,0.020419331,0.0009055792,-0.0012440314,-0.0001416259,-0.104675755,1.97896,4.5227933,3.0652318,0.0,0.10559292,-0.028437026,0.0052597835,0.0036106103,0.026138108,0.017367944,inf,inf,inf,inf,1,1,1,1,2,1,2,3,0,0,0
31088123,0,0.0,0.0,0.1403513,0.6491931,-0.0408755,0.14816174,0.6470082,-0.25513867,-0.0141452225,0.0146922665,0.0054552527,-0.0024724256,0.0009055792,-0.0012440314,-0.0001416259,-1.1608301,2.9530435,-1.2640227,3.0645375,0.0,0.10559337,-0.0054552527,0.005091868,0.003501243,0.02576666,0.017113045,inf,inf,inf,inf,1,1,1,1,2,1,2,3,0,0,0
31192870,0,0.0,0.0,0.13963881,0.64891315,-0.04138708,0.14816174,0.6470082,-0.25513867,-0.026564935,-0.015815515,0.015608934,0.00781397,0.0009055792,-0.0012440314,-0.0001416259,0.5764322,-1.0978942,0.9491444,3.065127,0.0,0.106104955,-0.015608934,0.0052451966,0.0036021685,0.026119757,0.017376438,inf,inf,inf,inf,1,1,1,1,2,1,2,3,0,0,0
31288871,0,0.0,0.0,0.13866301,0.6486438,-0.0415632,0.14816174,0.6470082,-0.25513867,-0.01829035,-0.021564469,0.00029929113,-0.0073896255,0.0009055792,-0.0012440314,-0.0001416259,0.27539518,-6.069823,-5.696998,3.064693,0.0,0.10628107,-0.00029929113,0.0055941893,0.0038305742,0.027058138,0.017921755,inf,inf,inf,inf,1,1,1,1,2,1,2,3,0,0,0
31392876,0,0.0,0.0,0.1393296,0.6487542,-0.042457394,0.14816174,0.6470082,-0.25513867,0.0025909247,0.0016952412,0.0035249596,-0.0040358403,0.0009055792,-0.0012440314,-0.0001416259,1.2139494,-2.8314557,0.85184294,3.065196,0.0,0.10717527,-0.0035249596,0.0055718645,0.0038189883,0.026855238,0.017839335,inf,inf,inf,inf,1,1,1,1,2,1,2,3,0,0,0
31496870,0,0.0,0.0,0.13953151,0.6487871,-0.042657293,0.14816174,0.6470082,-0.25513867,-0.022207921,0.0016774292,-0.001853971,-0.009352303,0.0009055792,-0.0012440314,-0.0001416259,0.7710168,-0.25410205,-2.2773244,3.064807,0.0,0.10737517,0.001853971,0.005184058,0.003568294,0.025863368,0.017188191,inf,inf,inf,inf,1,1,1,1,2,1,2,3,0,0,0
31592868,0,0.0,0.0,0.13965228,0.6491526,-0.04264239,0.14816174,0.6470082,-0.25513867,-0.01092639,0.009597794,0.02205033,0.014659285,0.0009055792,-0.0012440314,-0.0001416259,1.9707129,2.1019201,4.4476056,3.065312,0.0,0.10736026,-0.02205033,0.005099355,0.003511432,0.0256832,0.01709188,inf,inf,inf,inf,1,1,1,1,2,1,2,3,0,0,0
31696877,0,0.0,0.0,0.13995907,0.6498038,-0.04265784,0.14816174,0.6470082,-0.25513867,-0.016449401,0.011826046,0.011027813,0.0038867139,0.0009055792,-0.0012440314,-0.0001416259,-4.090946,4.467527,0.22220176,3.0640204,0.0,0.10737571,-0.011027813,0.0052467603,0.00360608,0.026211053,0.017422328,inf,inf,inf,inf,1,1,1,1,2,1,2,3,0,0,0
31800870,0,0.0,0.0,0.13975523,0.6504143,-0.042101912,0.14816174,0.6470082,-0.25513867,-0.008487513,0.01922521,0.017504252,0.010589613,0.0009055792,-0.0012440314,-0.0001416259,0.83778286,6.1233506,0.69564795,3.0659244,0.0,0.106819786,-0.017504252,0.005304545,0.0036451994,0.026234947,0.017452493,inf,inf,inf,inf,1,1,1,1,2,1,2,3,0,0,0
31904870,0,0.0,0.0,0.14077172,0.6517099,-0.04248903,0.14816174,0.6470082,-0.25513867,0.00138677,0.0076424023,0.0096939355,0.0029456357,0.0009055792,-0.0012440314,-0.0001416259,3.269399,6.7192054,1.8528126,3.064375,0.0,0.1072069,-0.0096939355,0.0050653117,0.0034893872,0.025635645,0.01708411,inf,inf,inf,inf,1,1,1,1,2,1,2,3,0,0,0
32008880,0,0.0,0.0,0.14216058,0.6525421,-0.04272868,0.14816174,0.6470082,-0.25513867,-0.027405787,0.008060443,0.021526862,0.014709502,0.0009055792,-0.0012440314,-0.0001416259,1.6103,3.4860969,1.8409623,3.064913,0.0,0.10744655,-0.021526862,0.005152265,0.003546763,0.025848608,0.017203452,inf,inf,inf,inf,1,1,1,1,2,1,2,3,0,0,0
32104870,0,0.0,0.0,0.14288938,0.65407366,-0.042690244,0.14816174,0.6470082,-0.25513867,0.008747921,0.016770817,0.011969041,0.004897398,0.0009055792,-0.0012440314,-0.0001416259,0.44275263,1.910717,0.65460235,3.063884,0.0,0.10740812,-0.011969041,0.0051085446,0.003516848,0.025723925,0.017134141,inf,inf,inf,inf,1,1,1,1,2,1,2,3,0,0,0
32208870,0,0.0,0.0,0.14373682,0.65390486,-0.042645946,0.14816174,0.6470082,-0.25513867,0.018074045,0.008556293,0.015633563,0.00837856,0.0009055792,-0.0012440314,-0.0001416259,4.363988,3.26772,0.0423197,3.0638292,0.0,0.10736382,-0.015633563,0.004969142,0.0034243409,0.025481604,0.017048558,inf,inf,inf,inf,1,1,1,1,2,1,2,3,0,0,0
32312873,0,0.0,0.0,0.14463247,0.65463823,-0.043238875,0.14816174,0.6470082,-0.25513867,0.019797435,0.02828461,0.009837717,0.0024630264,0.0009055792,-0.0012440314,-0.0001416259,3.1925316,3.2848275,-2.7370434,3.063366,0.0,0.10795675,-0.009837717,0.004913041,0.0033870838,0.025443332,0.01701502,inf,inf,inf,inf,1,1,1,1,2,1,2,3,0,0,0
32408906,0,0.0,0.0,0.1449801,0.65456015,-0.043535855,0.14816174,0.6470082,-0.25513867,-0.003288145,-0.001597145,0.028716533,0.021126855,0.0009055792,-0.0012440314,-0.0001416259,3.566351,-1.7211572,3.5068967,3.0626059,0.0,0.10825373,-0.028716533,0.00503914,0.0034694623,0.025807133,0.01724647,inf,inf,inf,inf,1,1,1,1,2,1,2,3,0,0,0
32512874,0,0.0,0.0,0.14393713,0.6540482,-0.04312868,0.14816174,0.6470082,-0.25513867,-0.016476097,0.0006769376,0.016907241,0.009047947,0.0009055792,-0.0012440314,-0.0001416259,-3.322001,-4.2628765,-2.888468,3.06322,0.0,0.10784656,-0.016907241,0.0050519486,0.0034774037,0.025873289,0.01731818,inf,inf,inf,inf,1,1,1,1,2,1,2,3,0,0,0
32616883,0,0.0,0.0,0.14351337,0.65368575,-0.043347366,0.14816174,0.6470082,-0.25513867,0.00028811023,-0.0026841797,0.015577563,0.0076669,0.0009055792,-0.0012440314,-0.0001416259,2.6963525,-2.1352649,0.808109,3.0619125,0.0,0.10806524,-0.015577563,0.0052820034,0.0036332584,0.026251059,0.017583564,inf,inf,inf,inf,1,1,1,1,2,1,2,3,0,0,0
32712870,0,0.0,0.0,0.14281929,0.65297276,-0.043514866,0.14816174,0.6470082,-0.25513867,-0.018758543,0.025760299,0.024148757,0.016168881,0.0009055792,-0.0012440314,-0.0001416259,-0.24323533,8.573162,3.583087,3.063458,0.0,0.10823274,-0.024148757,0.004987467,0.0034440528,0.025429158,0.017108599,inf,inf,inf,inf,1,1,1,1,2,1,2,3,0,0,0
32816870,0,0.0,0.0,0.14136164,0.6527987,-0.043142617,0.14816174,0.6470082,-0.25513867,-0.007074619,0.023464851,0.01950399,0.011362358,0.0009055792,-0.0012440314,-0.0001416259,2.1388302,3.3146427,0.4722109,3.062616,0.0,0.10786049,-0.01950399,0.005126385,0.0035370325,0.02573525,0.017229125,inf,inf,inf,inf,1,1,1,1,2,1,2,3,0,0,0
32916084,0,0.0,0.0,0.14058141,0.65125155,-0.04320264,0.14816174,0.6470082,-0.25513867,-0.0015627161,-0.0065780277,0.017420052,0.00918895,0.0009055792,-0.0012440314,-0.0001416259,3.5001163,3.6279576,0.38800973,3.062431,0.0,0.10792051,-0.017420052,0.0050867237,0.0035133134,0.025598718,0.0172046,inf,inf,inf,inf,1,1,1,1,2,1,2,3,0,0,0
33020075,0,0.0,0.0,0.13954215,0.6498852,-0.042915653,0.14816174,0.6470082,-0.25513867,-0.013237167,0.010561951,0.011418839,0.003065368,0.0009055792,-0.0012440314,-0.0001416259,1.9366914,7.2754273,0.16143174,3.0619452,0.0,0.10763353,-0.011418839,0.005196464,0.0035869721,0.025939036,0.017396191,inf,inf,inf,inf,1,1,1,1,2,1,2,3,0,0,0
33124090,0,0.0,0.0,0.1396835,0.6485898,-0.043671302,0.14816174,0.6470082,-0.25513867,0.012728272,-0.0041669873,0.008201581,-0.0002486165,0.0009055792,-0.0012440314,-0.0001416259,6.274915,1.4003522,-1.4268695,3.062498,0.0,0.10838918,-0.008201581,0.005309109,0.0036624416,0.02628669,0.017607711,inf,inf,inf,inf,1,1,1,1,2,1,2,3,0,0,0
33220073,0,0.0,0.0,0.13962281,0.64739746,-0.043960635,0.14816174,0.6470082,-0.25513867,-0.01866805,-0.009579642,0.042761136,0.03415536,0.0009055792,-0.0012440314,-0.0001416259,2.9364998,-0.8111,7.7121973,3.0628633,0.0,0.108678505,-0.042761136,0.0052297413,0.0036104827,0.026088296,0.01748062,inf,inf,inf,inf,1,1,1,1,2,1,2,3,0,0,0
33324080,0,0.0,0.0,0.13906857,0.64633304,-0.04399202,0.14816174,0.6470082,-0.25513867,-0.020461813,-0.010144944,0.0152348485,0.0065344907,0.0009055792,-0.0012440314,-0.0001416259,-3.3779962,1.7017491,3.1858969,3.062515,0.0,0.108709894,-0.0152348485,0.005054816,0.0034926245,0.025728257,0.01723955,inf,inf,inf,inf,1,1,1,1,2,1,2,3,0,0,0
33428078,0,0.0,0.0,0.14007147,0.6455494,-0.044864,0.14816174,0.6470082,-0.25513867,0.00869473,0.0031613088,0.015959373,0.0074586878,0.0009055792,-0.0012440314,-0.0001416259,2.7352862,0.8639106,4.1220775,3.0630915,0.0,0.10958187,-0.015959373,0.005172297,0.0035718482,0.025937172,0.017426714,inf,inf,inf,inf,1,1,1,1,2,1,2,3,0,0,0
33532086,0,0.0,0.0,0.1413531,0.6459283,-0.045792267,0.14816174,0.6470082,-0.25513867,-0.0032856003,0.022693122,0.012119617,0.0037507908,0.0009055792,-0.0012440314,-0.0001416259,-0.23393203,4.929781,2.5548873,3.062363,0.0,0.11051014,-0.012119617,0.005252958,0.0036254236,0.026096713,0.017478313,inf,inf,inf,inf,1,1,1,1,2,1,2,3,0,0,0
33628085,0,0.0,0.0,0.14284699,0.6468032,-0.04656166,0.14816174,0.6470082,-0.25513867,0.009090871,-0.009267861,0.004169654,-0.0042051645,0.0009055792,-0.0012440314,-0.0001416259,2.8275,1.7841756,1.7859892,3.0616858,0.0,0.11127953,-0.004169654,0.005284625,0.00364166,0.026270328,0.017559532,inf,inf,inf,inf,1,1,1,1,2,1,2,3,0,0,0
33732092,0,0.0,0.0,0.14450225,0.6477969,-0.047646165,0.14816174,0.6470082,-0.25513867,0.0050852313,0.0038438186,0.014989156,0.006712384,0.0009055792,-0.0012440314,-0.0001416259,0.6439649,7.2307215,4.736199,3.0623128,0.0,0.11236404,-0.014989156,0.0050843935,0.003509142,0.025733294,0.0172219,inf,inf,inf,inf,1,1,1,1,2,1,2,3,0,0,0
33836072,0,0.0,0.0,0.14514875,0.6482873,-0.04793371,0.14816174,0.6470082,-0.25513867,-0.005565923,0.0057921982,0.012895898,0.0048131864,0.0009055792,-0.0012440314,-0.0001416259,0.58114946,6.7514925,4.1085505,3.0624325,0.0,0.11265159,-0.012895898,0.0052471305,0.0036159768,0.026141757,0.017471861,inf,inf,inf,inf,1,1,1,1,2,1,2,3,0,0,0
33932069,0,0.0,0.0,0.14520973,0.6488859,-0.048110593,0.14816174,0.6470082,-0.25513867,-0.003296982,-0.0060215476,-0.005299664,-0.013078049,0.0009055792,-0.0012440314,-0.0001416259,0.5944405,1.1939716,-2.7449543,3.0641909,0.0,0.11282846,0.005299664,0.004969801,0.0034334818,0.025487775,0.017133538,inf,inf,inf,inf,1,1,1,1,2,1,2,3,0,0,0
34036109,0,0.0,0.0,0.14493659,0.6498186,-0.0482466,0.14816174,0.6470082,-0.25513867,-0.0032285044,-0.0035476557,-0.007510633,-0.014850333,0.0009055792,-0.0012440314,-0.0001416259,-0.10479818,2.9914637,-0.60980254,3.0638351,0.0,0.11296447,0.007510633,0.005527799,0.0038017272,0.02689844,0.017996259,inf,inf,inf,inf,1,1,1,1,2,1,2,3,0,0,0
34140070,0,0.0,0.0,0.14490148,0.65045,-0.048711527,0.14816174,0.6470082,-0.25513867,0.007141076,0.005777962,-0.00045990563,-0.0074096234,0.0009055792,-0.0012440314,-0.0001416259,0.75314635,3.6334875,4.7165494,3.0632885,0.0,0.1134294,0.00045990563,0.005216913,0.0036015962,0.025930705,0.017402612,inf,inf,inf,inf,1,1,1,1,2,1,2,3,0,0,0
34236070,0,0.0,0.0,0.14588188,0.65108734,-0.04914104,0.14816174,0.6470082,-0.25513867,0.017643366,-0.0003015436,-0.005642561,-0.012399792,0.0009055792,-0.0012440314,-0.0001416259,0.39414477,-2.5102096,-5.122784,3.0636144,0.0,0.11385891,0.005642561,0.0051721567,0.0035722659,0.025889685,0.017350215,inf,inf,inf,inf,1,1,1,1,2,1,2,3,0,0,0
34340070,0,0.0,0.0,0.14686394,0.65226114,-0.05003465,0.14816174,0.6470082,-0.25513867,0.005618286,0.01975001,0.005393617,-0.0013006756,0.0009055792,-0.0012440314,-0.0001416259,-0.021849556,-0.2381421,1.2230387,3.064819,0.0,0.11475252,-0.005393617,0.005350448,0.0036870367,0.026450498,0.017675016,inf,inf,inf,inf,1,1,1,1,2,1,2,3,0,0,0
34444083,0,0.0,0.0,0.14797229,0.6537505,-0.050565824,0.14816174,0.6470082,-0.25513867,0.0051354836,0.0107288435,0.0070184376,0.0003527135,0.0009055792,-0.0012440314,-0.0001416259,-0.3294772,-3.682694,-0.85691833,3.06833,0.0,0.1152837,-0.0070184376,0.005120828,0.0035359997,0.02580788,0.017328756,inf,inf,inf,inf,1,1,1,1,2,1,2,3,0,0,0
35051311,0,0.0,0.0,0.14322048,0.65684783,-0.049113583,0.14816174,0.6470082,-0.25513867,-0.010982909,0.01631939,0.026232984,0.020466851,0.0009055792,-0.0012440314,-0.0001416259,1.5889472,-1.4868057,-1.1965636,3.091027,0.0,0.11383146,-0.026232984,0.0053986073,0.0037218041,0.026572628,0.01776516,inf,inf,inf,inf,1,1,1,1,2,1,2,3,0,0,0
35155269,0,0.0,0.0,0.14395018,0.65606046,-0.048243728,0.14816174,0.6470082,-0.25513867,-0.015270061,-0.009875747,0.0069724103,0.001010657,0.0009055792,-0.0012440314,-0.0001416259,-3.6981645,1.8299245,1.3988525,3.0901244,0.0,0.112961605,-0.0069724103,0.0049161725,0.00339988,0.025433129,0.017078757,inf,inf,inf,inf,1,1,1,1,2,1,2,3,0,0,0
35259270,0,0.0,0.0,0.14485365,0.65301615,-0.047607977,0.14816174,0.6470082,-0.25513867,-0.004726201,-0.024902556,0.027963,0.021881081,0.0009055792,-0.0012440314,-0.0001416259,1.8819047,-3.1623812,-0.47324607,3.0900316,0.0,0.11232585,-0.027963,0.005119072,0.0035315994,0.025916414,0.017333714,inf,inf,inf,inf,1,1,1,1,2,1,2,3,0,0,0
35355319,0,0.0,0.0,0.14610958,0.6505923,-0.0475585,0.14816174,0.6470082,-0.25513867,0.0030551546,-0.01940373,-0.01075727,-0.016952215,0.0009055792,-0.0012440314,-0.0001416259,0.6117061,-0.7249463,-1.6509502,3.0888925,0.0,0.112276375,0.01075727,0.005143806,0.0035481662,0.025935993,0.017361065,inf,inf,inf,inf,1,1,1,1,2,1,2,3,0,0,0
35459281,0,0.0,0.0,0.14854078,0.6505664,-0.04784847,0.14816174,0.6470082,-0.25513867,0.024990322,0.010683529,0.01195473,0.005485162,0.0009055792,-0.0012440314,-0.0001416259,4.026145,-4.4478416,-2.6217053,3.086873,0.0,0.112566344,-0.01195473,0.005334102,0.003673804,0.026412312,0.01765642,inf,inf,inf,inf,1,1,1,1,2,1,2,3,0,0,0
35563289,0,0.0,0.0,0.15351962,0.6539155,-0.047609944,0.14816174,0.6470082,-0.25513867,0.03871915,0.034248292,0.017650688,0.010586797,0.0009055792,-0.0012440314,-0.0001416259,-0.87275374,-4.7261744,-2.1471045,3.0829017,0.0,0.112327814,-0.017650688,0.005088722,0.0035123515,0.025666595,0.017179422,inf,inf,inf,inf,1,1,1,1,2,1,2,3,0,0,0
35667311,0,0.0,0.0,0.16163817,0.6616361,-0.047674652,0.14816174,0.6470082,-0.25513867,0.06980203,0.0833614,0.020965075,0.013417928,0.0009055792,-0.0012440314,-0.0001416259,0.37918666,-2.6964347,0.47985467,3.0804048,0.0,0.11239253,-0.020965075,0.0052644066,0.0036226537,0.026190575,0.01742917,inf,inf,inf,inf,1,1,1,1,2,1,2,3,0,0,0
35763308,0,0.0,0.0,0.17289859,0.6732096,-0.04804979,0.14816174,0.6470082,-0.25513867,0.099141106,0.09262145,0.01621004,0.008317326,0.0009055792,-0.0012440314,-0.0001416259,2.5080798,1.6781656,2.682424,3.0777056,0.0,0.11276767,-0.01621004,0.005011089,0.0034511818,0.025643002,0.01705278,inf,inf,inf,inf,1,1,1,1,2,1,2,3,0,0,0
35867273,0,0.0,0.0,0.18869178,0.6897783,-0.048726123,0.14816174,0.6470082,-0.25513867,0.11157806,0.12007015,0.01907876,0.010803915,0.0009055792,-0.0012440314,-0.0001416259,-3.6254075,-1.4680272,2.6673658,3.074254,0.0,0.113444,-0.01907876,0.0052401247,0.003595686,0.026207427,0.017354693,inf,inf,inf,inf,1,1,1,1,2,1,2,3,0,0,0
35971270,0,0.0,0.0,0.20747906,0.7107994,-0.04888735,0.14816174,0.6470082,-0.25513867,0.14978684,0.18892905,0.026274469,0.017582037,0.0009055792,-0.0012440314,-0.0001416259,1.1609724,6.431757,3.8946273,3.067913,0.0,0.11360522,-0.026274469,0.0048588533,0.0033441095,0.025272118,0.016789101,inf,inf,inf,inf,1,1,1,1,2,1,2,3,0,0,0
36075300,0,0.0,0.0,0.22791761,0.73554105,-0.04956184,0.14816174,0.6470082,-0.25513867,0.1616411,0.20530051,0.0056957873,-0.0032296344,0.0009055792,-0.0012440314,-0.0001416259,-0.77328885,4.5280123,-1.2557881,3.0603626,0.0,0.11427972,-0.0056957873,0.0051703313,0.0035438777,0.02609598,0.01727812,inf,inf,inf,inf,1,1,1,1,2,1,2,3,0,0,0
36171288,0,0.0,0.0,0.24616686,0.76054454,-0.05082425,0.14816174,0.6470082,-0.25513867,0.16181032,0.22558811,0.0064435815,-0.002675769,0.0009055792,-0.0012440314,-0.0001416259,-1.92749,4.3805923,3.049324,3.0547736,0.0,0.11554213,-0.0064435815,0.005195882,0.0035623102,0.026018709,0.017234292,inf,inf,inf,inf,1,1,1,1,2,1,2,3,0,0,0
36275270,0,0.0,0.0,0.2650497,0.78971916,-0.05231578,0.14816174,0.6470082,-0.25513867,0.1697805,0.24269697,-0.001019486,-0.010565616,0.0009055792,-0.0012440314,-0.0001416259,0.3005709,-5.0519905,-4.0531216,3.0508816,0.0,0.11703365,0.001019486,0.0050641354,0.0034777431,0.025649771,0.017011361,inf,inf,inf,inf,1,1,1,1,2,1,2,3,0,0,0
36379271,0,0.0,0.0,0.28188214,0.8197948,-0.054407205,0.14816174,0.6470082,-0.25513867,0.15727596,0.25934654,0.0031752938,-0.0068748076,0.0009055792,-0.0012440314,-0.0001416259,0.8952572,-2.463874,3.0302637,3.0481966,0.0,0.11912508,-0.0031752938,0.0049324953,0.0033919553,0.025333172,0.016823228,inf,inf,inf,inf,1,1,1,1,2,1,2,3,0,0,0
36483325,0,0.0,0.0,0.29606223,0.84914124,-0.056367658,0.14816174,0.6470082,-0.25513867,0.1441991,0.27931193,0.004091958,-0.006363382,0.0009055792,-0.0012440314,-0.0001416259,-0.79162,5.0633936,-0.057007123,3.04621,0.0,0.12108553,-0.004091958,0.005108272,0.0035056786,0.025817113,0.017094078,inf,inf,inf,inf,1,1,1,1,2,1,2,3,0,0,0
36587281,0,0.0,0.0,0.30774245,0.87833846,-0.057924755,0.14816174,0.6470082,-0.25513867,0.14064777,0.25706565,0.001480171,-0.0092113875,0.0009055792,-0.0012440314,-0.0001416259,2.7830505,-2.1883817,-2.533485,3.04822,0.0,0.12264263,-0.001480171,0.0047818525,0.0032906116,0.025112275,0.016675714,inf,inf,inf,inf,1,1,1,1,2,1,2,3,0,0,0
36691270,0,0.0,0.0,0.31702796,0.9045531,-0.05857133,0.14816174,0.6470082,-0.25513867,0.110292055,0.22647859,0.015346298,0.0047815703,0.0009055792,-0.0012440314,-0.0001416259,0.113177955,-7.5517936,0.60651714,3.0515618,0.0,0.123289205,-0.015346298,0.0051034368,0.0034970152,0.02599052,0.017191758,inf,inf,inf,inf,1,1,1,1,2,1,2,3,0,0,0
36787273,0,0.0,0.0,0.32310945,0.92660946,-0.058200877,0.14816174,0.6470082,-0.25513867,0.10014026,0.21880656,0.006159076,-0.0039451295,0.0009055792,-0.0012440314,-0.0001416259,0.4935151,-2.3954332,-4.3841653,3.056526,0.0,0.122918755,-0.006159076,0.0051984712,0.0035598606,0.026139278,0.017303176,inf,inf,inf,inf,1,1,1,1,2,1,2,3,0,0,0
36890477,0,0.0,0.0,0.32744697,0.9467175,-0.057326313,0.14816174,0.6470082,-0.25513867,0.086288124,0.18716481,0.0106217405,0.0012633968,0.0009055792,-0.0012440314,-0.0001416259,0.59807885,-6.1306577,-1.9525377,3.0666616,0.0,0.12204419,-0.0106217405,0.005057956,0.0034720954,0.025636053,0.017003227,inf,inf,inf,inf,1,1,1,1,2,1,2,3,0,0,0
36995270,0,0.0,0.0,0.3297222,0.9628982,-0.056614593,0.14816174,0.6470082,-0.25513867,0.08005864,0.15980135,0.008240489,-0.0005050321,0.0009055792,-0.0012440314,-0.0001416259,3.4495215,-3.79083,-0.73986334,3.0823483,0.0,0.12133247,-0.008240489,0.005240972,0.0035915747,0.026092542,0.017280202,inf,inf,inf,inf,1,1,1,1,2,1,2,3,0,0,0
37098479,0,0.0,0.0,0.3315082,0.97382617,-0.056344632,0.14816174,0.6470082,-0.25513867,0.07095915,0.1267855,0.022038428,0.01355906,0.0009055792,-0.0012440314,-0.0001416259,1.2062964,-2.3678896,-2.9138522,3.0960803,0.0,0.1210625,-0.022038428,0.0050724563,0.003483167,0.025642984,0.017014153,inf,inf,inf,inf,1,1,1,1,2,1,2,3,0,0,0
37202470,0,0.0,0.0,0.3329217,0.9800713,-0.05456811,0.14816174,0.6470082,-0.25513867,0.061297175,0.09391259,0.035923854,0.027489603,0.0009055792,-0.0012440314,-0.0001416259,0.79622734,-6.066611,-0.2670345,3.107115,0.0,0.119285986,-0.035923854,0.0052119093,0.0035761117,0.02596822,0.017224694,inf,inf,inf,inf,1,1,1,1,2,1,2,3,0,0,0
37298472,0,0.0,0.0,0.3339849,0.98215514,-0.05164544,0.14816174,0.6470082,-0.25513867,0.0503282,0.07735022,0.033828985,0.025642488,0.0009055792,-0.0012440314,-0.0001416259,-2.3957088,4.847091,2.8784134,3.1158452,0.0,0.11636332,-0.033828985,0.004952162,0.0034068238,0.025403554,0.01688497,inf,inf,inf,inf,1,1,1,1,2,1,2,3,0,0,0
37402470,0,0.0,0.0,0.33506405,0.98025876,-0.050507918,0.14816174,0.6470082,-0.25513867,0.034764033,0.028818222,0.013184009,0.005624513,0.0009055792,-0.0012440314,-0.0001416259,-3.1924222,-1.2503124,1.7034651,3.1225467,0.0,0.11522579,-0.013184009,0.0051464094,0.0035328558,0.025927119,0.017185198,inf,inf,inf,inf,1,1,1,1,2,1,2,3,0,0,0
37506470,0,0.0,0.0,0.33499908,0.9756889,-0.050827447,0.14816174,0.6470082,-0.25513867,0.0041931034,0.01997145,0.011793117,0.0043949704,0.0009055792,-0.0012440314,-0.0001416259,-4.274062,3.1038895,2.5286326,3.1244485,0.0,0.11554532,-0.011793117,0.0052873734,0.003625022,0.026265731,0.017342305,inf,inf,inf,inf,1,1,1,1,2,1,2,3,0,0,0
37602509,0,0.0,0.0,0.33461514,0.97010505,-0.05187804,0.14816174,0.6470082,-0.25513867,0.013992077,-0.016872345,0.0015420495,-0.006505617,0.0009055792,-0.0012440314,-0.0001416259,-2.2526488,-1.2814019,-0.64631206,3.1197648,0.0,0.11659591,-0.0015420495,0.005257006,0.0036027739,0.026219724,0.017268442,inf,inf,inf,inf,1,1,1,1,2,1,2,3,0,0,0
37706470,0,0.0,0.0,0.3341034,0.96256536,-0.053370364,0.14816174,0.6470082,-0.25513867,0.004825615,-0.022369673,0.0045367265,-0.004496561,0.0009055792,-0.0012440314,-0.0001416259,-1.0995755,3.2142937,-2.356854,3.1140528,0.0,0.11808824,-0.0045367265,0.0051557925,0.0035302266,0.026175968,0.01721431,inf,inf,inf,inf,1,1,1,1,2,1,2,3,0,0,0
37810476,0,0.0,0.0,0.33365318,0.9536638,-0.055151965,0.14816174,0.6470082,-0.25513867,-0.003264551,-0.06320176,-0.0073813666,-0.017058644,0.0009055792,-0.0012440314,-0.0001416259,-2.3236036,-1.5055784,-1.955858,3.1088476,0.0,0.11986984,0.0073813666,0.0050182464,0.0034399205,0.025722714,0.016957091,inf,inf,inf,inf,1,1,1,1,2,1,2,3,0,0,0
37906491,0,0.0,0.0,0.33328396,0.94559705,-0.05714288,0.14816174,0.6470082,-0.25513867,-0.024742154,-0.054890193,0.010311382,0.00039492032,0.0009055792,-0.0012440314,-0.0001416259,-2.8560069,1.7505335,4.447331,3.1031413,0.0,0.12186076,-0.010311382,0.0053512836,0.0036547955,0.026465008,0.017403418,inf,inf,inf,inf,1,1,1,1,2,1,2,3,0,0,0
38010469,0,0.0,0.0,0.3326657,0.93687475,-0.058996398,0.14816174,0.6470082,-0.25513867,-0.021200169,-0.08128047,-0.0046942504,-0.014769654,0.0009055792,-0.0012440314,-0.0001416259,-1.0923157,-4.346094,-1.8661038,3.0918617,0.0,0.12371427,0.0046942504,0.0054412633,0.003715181,0.026613973,0.017536359,inf,inf,inf,inf,1,1,1,1,2,1,2,3,0,0,0
38114489,0,0.0,0.0,0.33222252,0.9281804,-0.060324565,0.14816174,0.6470082,-0.25513867,-0.016228927,-0.08349489,0.0022391304,-0.007910332,0.0009055792,-0.0012440314,-0.0001416259,0.65902525,1.3479805,-0.6530426,3.0815513,0.0,0.12504244,-0.0022391304,0.0051508453,0.003532042,0.025814999,0.017112887,inf,inf,inf,inf,1,1,1,1,2,1,2,3,0,0,0
38218470,0,0.0,0.0,0.3319839,0.91915077,-0.06075817,0.14816174,0.6470082,-0.25513867,-0.014441407,-0.109609276,0.008152106,-0.0018324505,0.0009055792,-0.0012440314,-0.0001416259,1.2882912,-1.3278359,-3.6770957,3.0673814,0.0,0.12547605,-0.008152106,0.0052036038,0.0035701704,0.02590356,0.017177608,inf,inf,inf,inf,1,1,1,1,2,1,2,3,0,0,0
38322492,0,0.0,0.0,0.3319661,0.90935093,-0.05972991,0.14816174,0.6470082,-0.25513867,-0.029347884,-0.11634971,0.039353628,0.02975547,0.0009055792,-0.0012440314,-0.0001416259,-1.2862613,-0.43347913,5.5476995,3.050731,0.0,0.124447785,-0.039353628,0.0052740946,0.0036195773,0.026085442,0.017339328,inf,inf,inf,inf,1,1,1,1,2,1,2,3,0,0,0
38418476,0,0.0,0.0,0.33194885,0.9001503,-0.057911992,0.14816174,0.6470082,-0.25513867,-0.017681925,-0.117960565,0.03241935,0.023346486,0.0009055792,-0.0012440314,-0.0001416259,-1.0404613,1.036891,4.3756957,3.0389478,0.0,0.122629866,-0.03241935,0.0052086934,0.0035809632,0.025960583,0.017308937,inf,inf,inf,inf,1,1,1,1,2,1,2,3,0,0,0
38522469,0,0.0,0.0,0.33250144,0.89002806,-0.058230314,0.14816174,0.6470082,-0.25513867,-0.013510157,-0.13163587,-0.02282613,-0.031385314,0.0009055792,-0.0012440314,-0.0001416259,-2.787921,-2.8055303,-4.698874,3.0285132,0.0,0.122948185,0.02282613,0.005264645,0.003621863,0.026089013,0.017432375,inf,inf,inf,inf,1,1,1,1,2,1,2,3,0,0,0
38626469,0,0.0,0.0,0.33216855,0.8795233,-0.06132788,0.14816174,0.6470082,-0.25513867,-0.009471283,-0.12013811,-0.024610234,-0.0334772,0.0009055792,-0.0012440314,-0.0001416259,1.444477,-2.846111,-3.4950435,3.031154,0.0,0.12604575,0.024610234,0.0053372374,0.0036724638,0.02636794,0.017611109,inf,inf,inf,inf,1,1,1,1,2,1,2,3,0,0,0
38722477,0,0.0,0.0,0.33119407,0.8678124,-0.066738315,0.14816174,0.6470082,-0.25513867,-0.008565661,-0.1310185,-0.04075304,-0.051006474,0.0009055792,-0.0012440314,-0.0001416259,0.74247175,4.0569096,-2.7578444,3.0408716,0.0,0.1314562,0.04075304,0.005327182,0.003665037,0.026529256,0.017620124,inf,inf,inf,inf,1,1,1,1,2,1,2,3,0,0,0
38826470,0,0.0,0.0,0.33008623,0.8542323,-0.075004295,0.14816174,0.6470082,-0.25513867,-0.012014601,-0.13467449,-0.044015422,-0.056331363,0.0009055792,-0.0012440314,-0.0001416259,-1.2967855,-1.3978484,0.36874965,3.051685,0.0,0.13972217,0.044015422,0.0048858197,0.0033710808,0.025543043,0.017012957,inf,inf,inf,inf,1,1,1,1,2,1,2,3,0,0,0
38929670,0,0.0,0.0,0.32824484,0.8382979,-0.08369408,0.14816174,0.6470082,-0.25513867,-0.017719321,-0.15786016,-0.054332253,-0.06840239,0.0009055792,-0.0012440314,-0.0001416259,0.57574314,-6.022619,-3.4794443,3.0632489,0.0,0.14841196,0.054332253,0.0051245634,0.0035225605,0.026141848,0.017309187,inf,inf,inf,inf,1,1,1,1,2,1,2,3,0,0,0
39033670,0,0.0,0.0,0.32574818,0.8208666,-0.092018716,0.14816174,0.6470082,-0.25513867,-0.01933822,-0.1609018,-0.0421433,-0.05704902,0.0009055792,-0.0012440314,-0.0001416259,0.81631684,1.0010706,1.304549,3.0753703,0.0,0.15673658,0.0421433,0.005255289,0.0036082237,0.026209733,0.017378192,inf,inf,inf,inf,1,1,1,1,2,1,2,3,0,0,0
39129695,0,0.0,0.0,0.32324958,0.8031688,-0.09880644,0.14816174,0.6470082,-0.25513867,-0.022243138,-0.17047714,-0.04558387,-0.060387842,0.0009055792,-0.0012440314,-0.0001416259,-2.3011954,-1.341003,-3.1292915,3.085849,0.0,0.16352431,0.04558387,0.005195629,0.0035713357,0.025908493,0.017249435,inf,inf,inf,inf,1,1,1,1,2,1,2,3,0,0,0
39233670,0,0.0,0.0,0.32087898,0.7831944,-0.10403157,0.14816174,0.6470082,-0.25513867,-0.028152298,-0.18008806,-0.025592972,-0.039507926,0.0009055792,-0.0012440314,-0.0001416259,-4.0816627,-1.83005,-0.2516052,3.0974858,0.0,0.16874945,0.025592972,0.005289811,0.0036348035,0.026134139,0.017388351,inf,inf,inf,inf,1,1,1,1,2,1,2,3,0,0,0
39337721,0,0.0,0.0,0.31874546,0.7619491,-0.105965964,0.14816174,0.6470082,-0.25513867,-0.007593382,-0.18199599,0.011361379,-0.0011052836,0.0009055792,-0.0012440314,-0.0001416259,2.6372159,2.5815346,-0.45553747,3.1098058,0.0,0.17068383,-0.011361379,0.0050678034,0.0034914666,0.025645789,0.017124578,inf,inf,inf,inf,1,1,1,1,2,1,2,3,0,0,0
39433679,0,0.0,0.0,0.31678498,0.74251896,-0.10340971,0.14816174,0.6470082,-0.25513867,-0.01712071,-0.21483271,0.040628053,0.029981038,0.0009055792,-0.0012440314,-0.0001416259,-1.5360186,-1.1963012,1.215014,3.1190133,0.0,0.16812758,-0.040628053,0.0048847324,0.0033700883,0.025355007,0.016953377,inf,inf,inf,inf,1,1,1,1,2,1,2,3,0,0,0
39537683,0,0.0,0.0,0.3145992,0.7218813,-0.09574384,0.14816174,0.6470082,-0.25513867,-0.013571787,-0.19491936,0.06751013,0.059389155,0.0009055792,-0.0012440314,-0.0001416259,-2.1868274,-1.4221774,-1.5533795,3.1266232,0.0,0.16046172,-0.06751013,0.005105482,0.0035152002,0.025881272,0.017263923,inf,inf,inf,inf,1,1,1,1,2,1,2,3,0,0,0
39641695,0,0.0,0.0,0.31203488,0.7014964,-0.084826924,0.14816174,0.6470082,-0.25513867,-0.0040171947,-0.18545486,0.100489415,0.095300965,0.0009055792,-0.0012440314,-0.0001416259,2.534344,6.8242617,0.74751306,3.1320608,0.0,0.1495448,-0.100489415,0.005053638,0.0034792118,0.025793942,0.01714405,inf,inf,inf,inf,1,1,1,1,2,1,2,3,0,0,0
39737670,0,0.0,0.0,0.31070977,0.68165064,-0.072611354,0.14816174,0.6470082,-0.25513867,0.00543983,-0.18918023,0.10155187,0.098692924,0.0009055792,-0.0012440314,-0.0001416259,0.32472798,0.80838686,-2.4893646,3.1322038,0.0,0.13732922,-0.10155187,0.00513234,0.0035283624,0.025963366,0.017217599,inf,inf,inf,inf,1,1,1,1,2,1,2,3,0,0,0
39841669,0,0.0,0.0,0.30982772,0.661547,-0.058441564,0.14816174,0.6470082,-0.25513867,0.00082144886,-0.1768757,0.11687383,0.11560844,0.0009055792,-0.0012440314,-0.0001416259,1.4435124,-5.6896563,-1.1919415,3.128466,0.0,0.12315944,-0.11687383,0.0050973054,0.0034994117,0.025972856,0.017170228,inf,inf,inf,inf,1,1,1,1,2,1,2,3,0,0,0
39945689,0,0.0,0.0,0.31023827,0.6420401,-0.045371287,0.14816174,0.6470082,-0.25513867,0.017380094,-0.17625174,0.106027335,0.10517724,0.0009055792,-0.0012440314,-0.0001416259,1.45019,1.7638525,-3.6665235,3.1225164,0.0,0.11008916,-0.106027335,0.0052707596,0.003610652,0.026280716,0.017332466,inf,inf,inf,inf,1,1,1,1,2,1,2,3,0,0,0
40041672,0,0.0,0.0,0.31287867,0.6262933,-0.037132464,0.14816174,0.6470082,-0.25513867,0.027381977,-0.16065632,0.057179276,0.055555616,0.0009055792,-0.0012440314,-0.0001416259,-1.6393887,0.931146,0.77097666,3.1096284,0.0,0.10185034,-0.057179276,0.0055401586,0.0037853597,0.02681133,0.017647892,inf,inf,inf,inf,1,1,1,1,2,1,2,3,0,0,0
40145670,0,0.0,0.0,0.31597736,0.6174734,-0.0394445,0.14816174,0.6470082,-0.25513867,0.02027108,-0.09146513,-0.020069955,-0.02424582,0.0009055792,-0.0012440314,-0.0001416259,4.9554715,-2.051864,-0.17510653,3.0888743,0.0,0.10416237,0.020069955,0.0049388683,0.0033953362,0.025394494,0.016817665,inf,inf,inf,inf,1,1,1,1,2,1,2,3,0,0,0
40249670,0,0.0,0.0,0.31877878,0.6129404,-0.048852805,0.14816174,0.6470082,-0.25513867,0.033678066,-0.09955314,-0.06905292,-0.0780156,0.0009055792,-0.0012440314,-0.0001416259,1.5049232,-3.6497524,-0.14108238,3.069894,0.0,0.113570675,0.06905292,0.0051402007,0.0035220864,0.026234837,0.017285522,inf,inf,inf,inf,1,1,1,1,2,1,2,3,0,0,0
40353670,0,0.0,0.0,0.32243106,0.6102636,-0.066461906,0.14816174,0.6470082,-0.25513867,0.041962717,-0.0909563,-0.1288922,-0.1435909,0.0009055792,-0.0012440314,-0.0001416259,-1.2605761,-6.019873,-1.7587136,3.0529518,0.0,0.13117978,0.1288922,0.005291979,0.003618603,0.026523795,0.017432833,inf,inf,inf,inf,1,1,1,1,2,1,2,3,0,0,0
40449693,0,0.0,0.0,0.32692152,0.6084399,-0.08934777,0.14816174,0.6470082,-0.25513867,0.048137385,-0.08256614,-0.18123324,-0.20071419,0.0009055792,-0.0012440314,-0.0001416259,-3.040892,1.6747172,-0.17750624,3.039878,0.0,0.15406564,0.18123324,0.0052749347,0.0036080221,0.026418414,0.017353192,inf,inf,inf,inf,1,1,1,1,2,1,2,3,0,0,0
40553676,0,0.0,0.0,0.33343798,0.60422474,-0.11832397,0.14816174,0.6470082,-0.25513867,0.06473569,-0.08707976,-0.21127476,-0.23464149,0.0009055792,-0.0012440314,-0.0001416259,-0.55278045,0.36434036,-0.6392937,3.0280328,0.0,0.18304184,0.21127476,0.0050574145,0.0034687645,0.025845457,0.01704777,inf,inf,inf,inf,1,1,1,1,2,1,2,3,0,0,0
40657709,0,0.0,0.0,0.34214482,0.598056,-0.14881375,0.14816174,0.6470082,-0.25513867,0.085571855,-0.09318017,-0.21648766,-0.24192293,0.0009055792,-0.0012440314,-0.0001416259,2.1680179,-2.284648,-0.19450161,3.01907,0.0,0.21353163,0.21648766,0.005219604,0.0035722153,0.026325444,0.017332632,inf,inf,inf,inf,1,1,1,1,2,1,2,3,0,0,0
40753670,0,0.0,0.0,0.35140762,0.5902176,-0.17507447,0.14816174,0.6470082,-0.25513867,0.10362035,-0.0812287,-0.20992349,-0.23512608,0.0009055792,-0.0012440314,-0.0001416259,-0.43000588,-1.2477548,0.8142232,3.0137358,0.0,0.23979235,0.20992349,0.005002357,0.0034302736,0.025878476,0.017084643,inf,inf,inf,inf,1,1,1,1,2,1,2,3,0,0,0
40857676,0,0.0,0.0,0.36298788,0.58008784,-0.19880772,0.14816174,0.6470082,-0.25513867,0.124846496,-0.08231221,-0.1883838,-0.2110012,0.0009055792,-0.0012440314,-0.0001416259,-0.29443762,-3.2792482,0.25532672,3.0102084,0.0,0.2635256,0.1883838,0.0052710813,0.0036029553,0.026556635,0.017481111,inf,inf,inf,inf,1,1,1,1,2,1,2,3,0,0,0
40960098,0,0.0,0.0,0.37708232,0.56882423,-0.21696077,0.14816174,0.6470082,-0.25513867,0.15977244,-0.07901316,-0.15645485,-0.17434809,0.0009055792,-0.0012440314,-0.0001416259,1.30456,-2.2817714,0.77643687,3.0062916,0.0,0.28167865,0.15645485,0.005427019,0.0037062217,0.026784591,0.017609976,inf,inf,inf,inf,1,1,1,1,2,1,2,3,0,0,0
41060870,0,0.0,0.0,0.39487556,0.5588462,-0.2283429,0.14816174,0.6470082,-0.25513867,0.19787996,-0.050937325,-0.116791904,-0.12859744,0.0009055792,-0.0012440314,-0.0001416259,5.952732,5.9228125,0.15154846,3.0025027,0.0,0.29306078,0.116791904,0.005476528,0.0037417014,0.026756205,0.017589336,inf,inf,inf,inf,1,1,1,1,2,1,2,3,0,0,0
41164884,0,0.0,0.0,0.41672587,0.55004066,-0.23130067,0.14816174,0.6470082,-0.25513867,0.22345556,-0.059541892,-0.053599477,-0.05869993,0.0009055792,-0.0012440314,-0.0001416259,6.038714,3.89509,-0.29936123,2.9993758,0.0,0.29601854,0.053599477,0.0051566423,0.0035340367,0.02600926,0.017098034,inf,inf,inf,inf,1,1,1,1,2,1,2,3,0,0,0
41260876,0,0.0,0.0,0.43916562,0.54308754,-0.2268584,0.14816174,0.6470082,-0.25513867,0.25737694,-0.03938677,0.007057471,0.007892158,0.0009055792,-0.0012440314,-0.0001416259,1.6033946,1.7721845,0.72801435,2.9962394,0.0,0.29157627,-0.007057471,0.005177493,0.0035418044,0.026242454,0.017198859,inf,inf,inf,inf,1,1,1,1,2,1,2,3,0,0,0
41364870,0,0.0,0.0,0.46639144,0.53847075,-0.21490705,0.14816174,0.6470082,-0.25513867,0.29143307,-0.01738224,0.058303468,0.06509396,0.0009055792,-0.0012440314,-0.0001416259,3.1124086,1.4163038,0.67539155,2.994044,0.0,0.27962494,-0.058303468,0.0053573027,0.003651593,0.026712257,0.017418,inf,inf,inf,inf,1,1,1,1,2,1,2,3,0,0,0
41468897,0,0.0,0.0,0.49608493,0.5370472,-0.19736072,0.14816174,0.6470082,-0.25513867,0.30401695,-0.010206005,0.0941394,0.10598955,0.0009055792,-0.0012440314,-0.0001416259,6.3654537,-3.7493122,-4.1360564,2.9931765,0.0,0.26207858,-0.0941394,0.0050855507,0.0034780493,0.025882838,0.016965512,inf,inf,inf,inf,1,1,1,1,2,1,2,3,0,0,0
41564870,0,0.0,0.0,0.5253761,0.53915143,-0.17851047,0.14816174,0.6470082,-0.25513867,0.2924144,0.03967528,0.13429995,0.14943856,0.0009055792,-0.0012440314,-0.0001416259,-1.8630455,6.0429173,0.76953185,2.9905536,0.0,0.24322835,-0.13429995,0.0050924853,0.003481266,0.025925659,0.017028876,inf,inf,inf,inf,1,1,1,1,2,1,2,3,0,0,0
41668880,0,0.0,0.0,0.55805755,0.5458428,-0.15710448,0.14816174,0.6470082,-0.25513867,0.30930454,0.059751403,0.13819979,0.1548135,0.0009055792,-0.0012440314,-0.0001416259,4.5205703,-1.2669611,-3.5241244,2.9864764,0.0,0.22182235,-0.13819979,0.0052818987,0.0036015292,0.026448546,0.017359024,inf,inf,inf,inf,1,1,1,1,2,1,2,3,0,0,0
41772900,0,0.0,0.0,0.5906862,0.55586547,-0.13787542,0.14816174,0.6470082,-0.25513867,0.29513755,0.07791183,0.1345958,0.15051554,0.0009055792,-0.0012440314,-0.0001416259,1.6033813,-3.8787205,-2.2142453,2.9820404,0.0,0.2025933,-0.1345958,0.0054586832,0.0037164057,0.026860321,0.017603224,inf,inf,inf,inf,1,1,1,1,2,1,2,3,0,0,0
41868874,0,0.0,0.0,0.6199102,0.56771433,-0.123950325,0.14816174,0.6470082,-0.25513867,0.29448664,0.101048894,0.12452105,0.13791178,0.0009055792,-0.0012440314,-0.0001416259,5.931666,-6.292985,-1.6941712,2.9766295,0.0,0.18866819,-0.12452105,0.005392482,0.003679163,0.026589539,0.0174754,inf,inf,inf,inf,1,1,1,1,2,1,2,3,0,0,0
41972869,0,0.0,0.0,0.6489011,0.5828771,-0.11366242,0.14816174,0.6470082,-0.25513867,0.25692707,0.13693555,0.09571573,0.10446246,0.0009055792,-0.0012440314,-0.0001416259,-5.5629854,3.4453142,1.5369953,2.9702258,0.0,0.1783803,-0.09571573,0.005177114,0.0035416796,0.026146932,0.017193612,inf,inf,inf,inf,1,1,1,1,2,1,2,3,0,0,0
42076870,0,0.0,0.0,0.67407346,0.60018814,-0.10844509,0.14816174,0.6470082,-0.25513867,0.2550133,0.1435984,0.072392076,0.07558307,0.0009055792,-0.0012440314,-0.0001416259,3.0764458,-1.4240758,-3.1500602,2.965176,0.0,0.17316297,-0.072392076,0.005320553,0.003632978,0.026563277,0.017408824,inf,inf,inf,inf,1,1,1,1,2,1,2,3,0,0,0
42180876,0,0.0,0.0,0.69474167,0.6180116,-0.10792187,0.14816174,0.6470082,-0.25513867,0.21420145,0.18043779,0.04880607,0.046287224,0.0009055792,-0.0012440314,-0.0001416259,-4.6615086,3.6170683,2.4731894,2.964897,0.0,0.17263974,-0.04880607,0.0050617466,0.003467117,0.025859416,0.016995044,inf,inf,inf,inf,1,1,1,1,2,1,2,3,0,0,0
42284870,0,0.0,0.0,0.7103923,0.6369699,-0.11110114,0.14816174,0.6470082,-0.25513867,0.18412545,0.17954873,0.025932541,0.018187532,0.0009055792,-0.0012440314,-0.0001416259,1.0856847,-1.8436766,-3.3671513,2.9679773,0.0,0.17581901,-0.025932541,0.0052213683,0.0035658102,0.02636534,0.017267184,inf,inf,inf,inf,1,1,1,1,2,1,2,3,0,0,0
42380915,0,0.0,0.0,0.72025955,0.6555772,-0.11660838,0.14816174,0.6470082,-0.25513867,0.14689833,0.19484434,0.0085017,-0.0031581596,0.0009055792,-0.0012440314,-0.0001416259,0.6505461,-2.6076765,0.50617886,2.9735503,0.0,0.18132626,-0.0085017,0.005283532,0.0036022922,0.026613096,0.01740655,inf,inf,inf,inf,1,1,1,1,2,1,2,3,0,0,0
42484876,0,0.0,0.0,0.7262939,0.67788845,-0.1243768,0.14816174,0.6470082,-0.25513867,0.096263066,0.23089196,-0.01963067,-0.034320254,0.0009055792,-0.0012440314,-0.0001416259,-0.9807188,-0.4320625,-0.084428884,2.98314,0.0,0.18909468,0.01963067,0.005119468,0.0034977582,0.02612137,0.017133815,inf,inf,inf,inf,1,1,1,1,2,1,2,3,0,0,0
42588887,0,0.0,0.0,0.72832525,0.7022367,-0.1335546,0.14816174,0.6470082,-0.25513867,0.06008926,0.25273013,-0.042335164,-0.05883855,0.0009055792,-0.0012440314,-0.0001416259,-4.298107,3.370714,1.6152748,2.9943802,0.0,0.19827247,0.042335164,0.0052573695,0.0035877419,0.0263596,0.017303094,inf,inf,inf,inf,1,1,1,1,2,1,2,3,0,0,0
42684870,0,0.0,0.0,0.7271218,0.72725034,-0.14278926,0.14816174,0.6470082,-0.25513867,0.020717952,0.27787152,-0.051668156,-0.06895098,0.0009055792,-0.0012440314,-0.0001416259,-1.6460607,-1.491531,0.5290603,3.004064,0.0,0.20750713,0.051668156,0.00519079,0.0035497826,0.026057512,0.017172363,inf,inf,inf,inf,1,1,1,1,2,1,2,3,0,0,0
42788896,0,0.0,0.0,0.72255343,0.75673133,-0.15284601,0.14816174,0.6470082,-0.25513867,-0.0047592,0.2981699,-0.05921215,-0.07658197,0.0009055792,-0.0012440314,-0.0001416259,-1.0929376,0.5346531,0.8176602,3.0136776,0.0,0.21756388,0.05921215,0.0050525763,0.0034623595,0.02578857,0.01706029,inf,inf,inf,inf,1,1,1,1,2,1,2,3,0,0,0
42892870,0,0.0,0.0,0.7147034,0.7891465,-0.1618527,0.14816174,0.6470082,-0.25513867,-0.030420506,0.33236742,-0.057491243,-0.07419856,0.0009055792,-0.0012440314,-0.0001416259,2.1504009,-0.62814814,0.9881703,3.0211418,0.0,0.22657058,0.057491243,0.005242539,0.0035886222,0.02621533,0.017363457,inf,inf,inf,inf,1,1,1,1,2,1,2,3,0,0,0
42996080,0,0.0,0.0,0.70450574,0.82411087,-0.17008144,0.14816174,0.6470082,-0.25513867,-0.055415798,0.3562838,-0.072184,-0.08748597,0.0009055792,-0.0012440314,-0.0001416259,3.4413254,1.8113118,-1.7128268,3.0260193,0.0,0.23479931,0.072184,0.005022676,0.0034524617,0.025486263,0.01697327,inf,inf,inf,inf,1,1,1,1,2,1,2,3,0,0,0
43100119,0,0.0,0.0,0.6920265,0.8617781,-0.17782941,0.14816174,0.6470082,-0.25513867,-0.076681785,0.3619692,-0.07197733,-0.08543384,0.0009055792,-0.0012440314,-0.0001416259,6.1908984,-2.3733904,-4.7334747,3.0287762,0.0,0.24254729,0.07197733,0.0048888037,0.0033669295,0.02522435,0.016826516,inf,inf,inf,inf,1,1,1,1,2,1,2,3,0,0,0
43196072,0,0.0,0.0,0.6789175,0.8977308,-0.18353543,0.14816174,0.6470082,-0.25513867,-0.12890859,0.38944474,-0.050146274,-0.061885662,0.0009055792,-0.0012440314,-0.0001416259,-4.978157,4.781092,1.00499,3.032926,0.0,0.2482533,0.050146274,0.0053301547,0.0036532814,0.026459029,0.017574627,inf,inf,inf,inf,1,1,1,1,2,1,2,3,0,0,0
43300070,0,0.0,0.0,0.6635773,0.9344529,-0.18741056,0.14816174,0.6470082,-0.25513867,-0.13883772,0.35161486,-0.031523738,-0.04132102,0.0009055792,-0.0012440314,-0.0001416259,-0.9285678,3.3825035,-1.3127574,3.0370998,0.0,0.25212842,0.031523738,0.004904512,0.0033778076,0.025394896,0.016946513,inf,inf,inf,inf,1,1,1,1,2,1,2,3,0,0,0
43404089,0,0.0,0.0,0.6477561,0.9682227,-0.18746378,0.14816174,0.6470082,-0.25513867,-0.14363647,0.32052013,0.00074626785,-0.0068996227,0.0009055792,-0.0012440314,-0.0001416259,2.2736967,4.035854,-1.533247,3.0409634,0.0,0.25218165,-0.00074626785,0.0052054925,0.0035738156,0.026187891,0.017430706,inf,inf,inf,inf,1,1,1,1,2,1,2,3,0,0,0
43500084,0,0.0,0.0,0.6332557,0.9960108,-0.1844377,0.14816174,0.6470082,-0.25513867,-0.1552694,0.2551855,0.018827181,0.013518325,0.0009055792,-0.0012440314,-0.0001416259,-1.5559931,-2.068039,-1.4311318,3.042926,0.0,0.24915558,-0.018827181,0.0052626263,0.0036131009,0.026211333,0.01742841,inf,inf,inf,inf,1,1,1,1,2,1,2,3,0,0,0
43604078,0,0.0,0.0,0.61660093,1.0184401,-0.17766227,0.14816174,0.6470082,-0.25513867,-0.14992379,0.1640813,0.044877414,0.042175263,0.0009055792,-0.0012440314,-0.0001416259,7.7539153,-3.6709733,-2.3283696,3.0414746,0.0,0.24238014,-0.044877414,0.005437655,0.003728628,0.026553039,0.01763362,inf,inf,inf,inf,1,1,1,1,2,1,2,3,0,0,0
43708082,0,0.0,0.0,0.5995362,1.0307679,-0.16894591,0.14816174,0.6470082,-0.25513867,-0.18143597,0.09294286,0.06164505,0.061279595,0.0009055792,-0.0012440314,-0.0001416259,1.9128505,-3.3521159,0.13153206,3.0398915,0.0,0.23366378,-0.06164505,0.0051015373,0.0035126384,0.025526186,0.016993143,inf,inf,inf,inf,1,1,1,1,2,1,2,3,0,0,0
43804075,0,0.0,0.0,0.58444715,1.029764,-0.16106753,0.14816174,0.6470082,-0.25513867,-0.17535608,-0.0007955188,0.05072939,0.051910885,0.0009055792,-0.0012440314,-0.0001416259,0.9905246,0.04461411,-2.7952864,3.038192,0.0,0.2257854,-0.05072939,0.005130035,0.0035270841,0.02581421,0.017161936,inf,inf,inf,inf,1,1,1,1,2,1,2,3,0,0,0
43908078,0,0.0,0.0,0.5694017,1.0162632,-0.1537174,0.14816174,0.6470082,-0.25513867,-0.17939217,-0.073538676,0.054388974,0.0560489,0.0009055792,-0.0012440314,-0.0001416259,1.0779729,0.8305683,1.3220955,3.0388317,0.0,0.21843527,-0.054388974,0.0053131483,0.0036441588,0.026305584,0.017443743,inf,inf,inf,inf,1,1,1,1,2,1,2,3,0,0,0
44012070,0,0.0,0.0,0.5556354,0.99014723,-0.1484382,0.14816174,0.6470082,-0.25513867,-0.16911922,-0.16816498,0.035436176,0.036208175,0.0009055792,-0.0012440314,-0.0001416259,0.87308073,4.1488004,-3.4844482,3.0432906,0.0,0.21315607,-0.035436176,0.0053976304,0.003700597,0.026405763,0.017490864,inf,inf,inf,inf,1,1,1,1,2,1,2,3,0,0,0
44116108,0,0.0,0.0,0.5432587,0.95346284,-0.14594217,0.14816174,0.6470082,-0.25513867,-0.15135981,-0.25253856,0.026159411,0.024894992,0.0009055792,-0.0012440314,-0.0001416259,5.3381076,2.7155232,0.28499663,3.0462184,0.0,0.21066004,-0.026159411,0.0051983665,0.0035688605,0.026044631,0.017256817,inf,inf,inf,inf,1,1,1,1,2,1,2,3,0,0,0
44212075,0,0.0,0.0,0.53406197,0.9139291,-0.1471606,0.14816174,0.6470082,-0.25513867,-0.1453388,-0.31972027,-0.00082693336,-0.004408745,0.0009055792,-0.0012440314,-0.0001416259,-4.334831,-3.201599,3.027341,3.0507145,0.0,0.21187848,0.00082693336,0.0049143876,0.0033820397,0.02538202,0.016862005,inf,inf,inf,inf,1,1,1,1,2,1,2,3,0,0,0
44316077,0,0.0,0.0,0.52697426,0.86653155,-0.15290834,0.14816174,0.6470082,-0.25513867,-0.12084236,-0.38430658,-0.026367959,-0.032763325,0.0009055792,-0.0012440314,-0.0001416259,-4.5530214,-5.0852222,1.3535231,3.059457,0.0,0.21762621,0.026367959,0.0051769507,0.003549759,0.02617192,0.017327612,inf,inf,inf,inf,1,1,1,1,2,1,2,3,0,0,0
44420093,0,0.0,0.0,0.52250177,0.8168777,-0.16052198,0.14816174,0.6470082,-0.25513867,-0.08128153,-0.4177569,-0.04109965,-0.05046401,0.0009055792,-0.0012440314,-0.0001416259,1.6739186,-1.1358414,-0.8593454,3.064443,0.0,0.22523986,0.04109965,0.0050363145,0.0034598047,0.025711266,0.017052641,inf,inf,inf,inf,1,1,1,1,2,1,2,3,0,0,0
44516069,0,0.0,0.0,0.52003163,0.76948947,-0.1681895,0.14816174,0.6470082,-0.25513867,-0.08239649,-0.47776613,-0.028691642,-0.04022916,0.0009055792,-0.0012440314,-0.0001416259,-4.4920917,-5.6508064,1.978971,3.0666575,0.0,0.23290737,0.028691642,0.0053561293,0.0036683222,0.026372962,0.01742806,inf,inf,inf,inf,1,1,1,1,2,1,2,3,0,0,0
44620076,0,0.0,0.0,0.5196719,0.71865386,-0.17644008,0.14816174,0.6470082,-0.25513867,-0.040924337,-0.5027592,-0.031592384,-0.04435067,0.0009055792,-0.0012440314,-0.0001416259,-1.085861,-5.690757,0.5180763,3.0667164,0.0,0.24115795,0.031592384,0.0051416294,0.0035293614,0.025894783,0.017156903,inf,inf,inf,inf,1,1,1,1,2,1,2,3,0,0,0
44724075,0,0.0,0.0,0.5209605,0.6672183,-0.18172494,0.14816174,0.6470082,-0.25513867,-0.010731898,-0.52126056,-0.0046805786,-0.017437136,0.0009055792,-0.0012440314,-0.0001416259,1.187886,-2.5851412,0.32947165,3.0656796,0.0,0.24644281,0.0046805786,0.0050718547,0.0034819662,0.02583955,0.017156852,inf,inf,inf,inf,1,1,1,1,2,1,2,3,0,0,0
44828074,0,0.0,0.0,0.52432907,0.61752385,-0.18267515,0.14816174,0.6470082,-0.25513867,0.0052483506,-0.52126855,0.027013492,0.015445797,0.0009055792,-0.0012440314,-0.0001416259,-1.9250704,2.4994268,3.394218,3.062445,0.0,0.24739303,-0.027013492,0.0052903993,0.0036243745,0.026353018,0.01746024,inf,inf,inf,inf,1,1,1,1,2,1,2,3,0,0,0
44924105,0,0.0,0.0,0.5302766,0.57110804,-0.18068627,0.14816174,0.6470082,-0.25513867,0.041802987,-0.5489285,0.033067066,0.023535306,0.0009055792,-0.0012440314,-0.0001416259,4.046791,-4.558894,-1.0427059,3.0604334,0.0,0.24540414,-0.033067066,0.0055498937,0.0037976217,0.026736207,0.017700395,inf,inf,inf,inf,1,1,1,1,2,1,2,3,0,0,0
45031308,0,0.0,0.0,0.5393838,0.5180975,-0.17461224,0.14816174,0.6470082,-0.25513867,0.042392932,-0.56806827,0.06786482,0.06116533,0.0009055792,-0.0012440314,-0.0001416259,-3.0810337,-3.0518005,4.0470147,3.0557735,0.0,0.23933011,-0.06786482,0.0050534294,0.003474861,0.02571737,0.017106412,inf,inf,inf,inf,1,1,1,1,2,1,2,3,0,0,0
45127278,0,0.0,0.0,0.5497665,0.4698966,-0.16645806,0.14816174,0.6470082,-0.25513867,0.093014605,-0.5597693,0.08497005,0.08058802,0.0009055792,-0.0012440314,-0.0001416259,2.8537724,-5.144918,-0.59735656,3.051074,0.0,0.23117593,-0.08497005,0.0051429123,0.0035346993,0.02603656,0.017360339,inf,inf,inf,inf,1,1,1,1,2,1,2,3,0,0,0
45231269,0,0.0,0.0,0.563149,0.4179434,-0.15548757,0.14816174,0.6470082,-0.25513867,0.11296151,-0.5598494,0.10068323,0.09815273,0.0009055792,-0.0012440314,-0.0001416259,-0.9733533,-2.5043828,2.0810962,3.047004,0.0,0.22020544,-0.10068323,0.0053113853,0.0036459956,0.02637632,0.017540704,inf,inf,inf,inf,1,1,1,1,2,1,2,3,0,0,0
45335271,0,0.0,0.0,0.57879466,0.36602944,-0.14410499,0.14816174,0.6470082,-0.25513867,0.13336398,-0.53554976,0.09501226,0.09343122,0.0009055792,-0.0012440314,-0.0001416259,-2.648708,1.231053,0.15146941,3.0443532,0.0,0.20882286,-0.09501226,0.0053726844,0.0036891312,0.02634987,0.017524727,inf,inf,inf,inf,1,1,1,1,2,1,2,3,0,0,0
45439271,0,0.0,0.0,0.5967992,0.31690264,-0.13349047,0.14816174,0.6470082,-0.25513867,0.17480934,-0.5118726,0.08945113,0.087780625,0.0009055792,-0.0012440314,-0.0001416259,-0.68542457,1.0911053,-2.130814,3.0493038,0.0,0.19820835,-0.08945113,0.0051725255,0.0035590355,0.025917836,0.01729114,inf,inf,inf,inf,1,1,1,1,2,1,2,3,0,0,0
45543310,0,0.0,0.0,0.6169191,0.27105013,-0.12430486,0.14816174,0.6470082,-0.25513867,0.22470522,-0.493116,0.08194002,0.07925529,0.0009055792,-0.0012440314,-0.0001416259,6.3221173,1.5361404,-1.2616463,3.0575542,0.0,0.18902273,-0.08194002,0.005282218,0.0036315725,0.026116343,0.017390706,inf,inf,inf,inf,1,1,1,1,2,1,2,3,0,0,0
45639276,0,0.0,0.0,0.6380034,0.2327175,-0.11824676,0.14816174,0.6470082,-0.25513867,0.22185001,-0.4508147,0.0797542,0.07546954,0.0009055792,-0.0012440314,-0.0001416259,-7.3223786,-0.6986511,1.1587619,3.0672982,0.0,0.18296462,-0.0797542,0.005222507,0.0035925999,0.025976336,0.017284393,inf,inf,inf,inf,1,1,1,1,2,1,2,3,0,0,0
45743301,0,0.0,0.0,0.66457754,0.19659679,-0.11416791,0.14816174,0.6470082,-0.25513867,0.27566865,-0.42209145,0.051251486,0.04468409,0.0009055792,-0.0012440314,-0.0001416259,-4.720729,-4.455939,-2.2726665,3.0781639,0.0,0.17888579,-0.051251486,0.0053713936,0.003686183,0.026470954,0.017561968,inf,inf,inf,inf,1,1,1,1,2,1,2,3,0,0,0
45847270,0,0.0,0.0,0.6950558,0.16649535,-0.112465836,0.14816174,0.6470082,-0.25513867,0.33281004,-0.3475387,0.052963316,0.04396,0.0009055792,-0.0012440314,-0.0001416259,3.2660267,-2.6986985,-0.84662277,3.0877526,0.0,0.17718372,-0.052963316,0.0051262514,0.003525683,0.02582391,0.017164055,inf,inf,inf,inf,1,1,1,1,2,1,2,3,0,0,0
45943321,0,0.0,0.0,0.72710854,0.14320312,-0.11247191,0.14816174,0.6470082,-0.25513867,0.36667022,-0.31172007,0.033264767,0.022182988,0.0009055792,-0.0012440314,-0.0001416259,-0.4908027,2.7304387,-1.3670968,3.095832,0.0,0.17718978,-0.033264767,0.0051859235,0.0035603188,0.026117543,0.01728214,inf,inf,inf,inf,1,1,1,1,2,1,2,3,0,0,0
46047281,0,0.0,0.0,0.76596725,0.12118014,-0.11330362,0.14816174,0.6470082,-0.25513867,0.3843204,-0.28274813,0.026975848,0.014324248,0.0009055792,-0.0012440314,-0.0001416259,-5.875794,-1.3072191,1.3075145,3.1013834,0.0,0.17802149,-0.026975848,0.004965806,0.0034166642,0.02544486,0.016876522,inf,inf,inf,inf,1,1,1,1,2,1,2,3,0,0,0
46151270,0,0.0,0.0,0.8061836,0.10334743,-0.1144072,0.14816174,0.6470082,-0.25513867,0.375516,-0.22371343,0.024986155,0.011500671,0.0009055792,-0.0012440314,-0.0001416259,-0.67487144,4.5287995,1.1203604,3.106946,0.0,0.17912507,-0.024986155,0.0052174716,0.0035744263,0.026279341,0.01735515,inf,inf,inf,inf,1,1,1,1,2,1,2,3,0,0,0
46247277,0,0.0,0.0,0.842019,0.0895494,-0.11698903,0.14816174,0.6470082,-0.25513867,0.3546261,-0.20059423,-0.012522908,-0.026094949,0.0009055792,-0.0012440314,-0.0001416259,-0.028077552,5.5973296,1.7411461,3.1127822,0.0,0.1817069,0.012522908,0.005271283,0.0036077239,0.026364839,0.01735782,inf,inf,inf,inf,1,1,1,1,2,1,2,3,0,0,0
46351296,0,0.0,0.0,0.8785191,0.0774614,-0.12302355,0.14816174,0.6470082,-0.25513867,0.32609782,-0.17712112,-0.050600324,-0.06409385,0.0009055792,-0.0012440314,-0.0001416259,-3.1909199,-6.3600698,-0.73980045,3.1176186,0.0,0.18774143,0.050600324,0.0050898558,0.0034891,0.025854506,0.017036557,inf,inf,inf,inf,1,1,1,1,2,1,2,3,0,0,0
46455269,0,0.0,0.0,0.91088724,0.0670783,-0.13134566,0.14816174,0.6470082,-0.25513867,0.28734425,-0.12833554,-0.053196616,-0.06713383,0.0009055792,-0.0012440314,-0.0001416259,3.7649965,1.4007881,-1.7697906,3.1209006,0.0,0.19606353,0.053196616,0.0053142807,0.003629144,0.026567768,0.017427856,inf,inf,inf,inf,1,1,1,1,2,1,2,3,0,0,0
46559280,0,0.0,0.0,0.93729174,0.058550585,-0.14137663,0.14816174,0.6470082,-0.25513867,0.22910716,-0.08962034,-0.07103025,-0.08560177,0.0009055792,-0.0012440314,-0.0001416259,-2.4855783,1.3606669,-0.98811394,3.125644,0.0,0.2060945,0.07103025,0.0054032933,0.0036875245,0.026630789,0.017474975,inf,inf,inf,inf,1,1,1,1,2,1,2,3,0,0,0
46655270,0,0.0,0.0,0.9530305,0.05211209,-0.15010235,0.14816174,0.6470082,-0.25513867,0.17979465,-0.07246952,-0.060550645,-0.07536076,0.0009055792,-0.0012440314,-0.0001416259,4.921392,2.2174067,-1.9759237,3.1282318,0.0,0.21482022,0.060550645,0.0054032886,0.0036862278,0.02671198,0.017536175,inf,inf,inf,inf,1,1,1,1,2,1,2,3,0,0,0
46759281,0,0.0,0.0,0.9592238,0.046257544,-0.15811695,0.14816174,0.6470082,-0.25513867,0.104861744,-0.0460476,-0.057879664,-0.07185398,0.0009055792,-0.0012440314,-0.0001416259,-1.517049,-0.008828809,0.6322241,3.1306553,0.0,0.22283483,0.057879664,0.0052345563,0.0035769392,0.026347743,0.017310904,inf,inf,inf,inf,1,1,1,1,2,1,2,3,0,0,0
46863296,0,0.0,0.0,0.9546636,0.042001642,-0.1644093,0.14816174,0.6470082,-0.25513867,0.04343057,-0.023025949,-0.046581656,-0.058524624,0.0009055792,-0.0012440314,-0.0001416259,1.931156,0.194336,0.6044427,3.132249,0.0,0.22912717,0.046581656,0.0048632994,0.0033358356,0.025474098,0.016812623,inf,inf,inf,inf,1,1,1,1,2,1,2,3,0,0,0
46959270,0,0.0,0.0,0.9429506,0.03927102,-0.16802955,0.14816174,0.6470082,-0.25513867,-0.024869367,-0.024800824,-0.031209642,-0.040773604,0.0009055792,-0.0012440314,-0.0001416259,-1.4005206,-4.2799335,1.5579425,3.1320152,0.0,0.23274742,0.031209642,0.0051031923,0.0034865474,0.02623673,0.017257456,inf,inf,inf,inf,1,1,1,1,2,1,2,3,0,0,0
47063278,0,0.0,0.0,0.924281,0.0367998,-0.16925544,0.14816174,0.6470082,-0.25513867,-0.07785985,0.020117113,-0.006858998,-0.01383182,0.0009055792,-0.0012440314,-0.0001416259,4.2427053,5.683928,0.19363841,3.1302023,0.0,0.23397331,0.006858998,0.0053978385,0.0036780008,0.026783535,0.017603286,inf,inf,inf,inf,1,1,1,1,2,1,2,3,0,0,0
47165705,0,0.0,0.0,0.90101856,0.034410626,-0.16765289,0.14816174,0.6470082,-0.25513867,-0.13330516,0.01780243,-0.011129377,-0.015499766,0.0009055792,-0.0012440314,-0.0001416259,-0.43233922,-1.5366949,-1.4965316,3.12745,0.0,0.23237076,0.011129377,0.0052263224,0.0035733238,0.026170481,0.017249392,inf,inf,inf,inf,1,1,1,1,2,1,2,3,0,0,0
47262470,0,0.0,0.0,0.8784528,0.031563744,-0.1655704,0.14816174,0.6470082,-0.25513867,-0.15453796,0.023126844,-0.0067468532,-0.008836281,0.0009055792,-0.0012440314,-0.0001416259,-4.017175,-3.8158045,-1.3895223,3.1226032,0.0,0.23028827,0.0067468532,0.0052611805,0.0035972043,0.026226718,0.017287983,inf,inf,inf,inf,1,1,1,1,2,1,2,3,0,0,0
47366537,0,0.0,0.0,0.8554047,0.028211277,-0.16297252,0.14816174,0.6470082,-0.25513867,-0.17039035,0.03055787,0.019042486,0.018744987,0.0009055792,-0.0012440314,-0.0001416259,1.4472096,2.3930202,3.0117524,3.1136372,0.0,0.2276904,-0.019042486,0.0050791167,0.003482732,0.025718648,0.017020203,inf,inf,inf,inf,1,1,1,1,2,1,2,3,0,0,0
47470474,0,0.0,0.0,0.8339912,0.02530173,-0.15893513,0.14816174,0.6470082,-0.25513867,-0.17626579,0.029149199,0.030991789,0.03156727,0.0009055792,-0.0012440314,-0.0001416259,2.1023917,-4.593779,-0.57627016,3.10016,0.0,0.223653,-0.030991789,0.0050161397,0.0034409778,0.025726685,0.017053423,inf,inf,inf,inf,1,1,1,1,2,1,2,3,0,0,0
47566470,0,0.0,0.0,0.8151437,0.023438191,-0.15420933,0.14816174,0.6470082,-0.25513867,-0.17419699,0.039401494,0.026327195,0.027397458,0.0009055792,-0.0012440314,-0.0001416259,0.10761793,-2.1630304,-2.3699415,3.0892441,0.0,0.2189272,-0.026327195,0.0050805258,0.0034851658,0.02576374,0.017071687,inf,inf,inf,inf,1,1,1,1,2,1,2,3,0,0,0
47670475,0,0.0,0.0,0.79762036,0.022330604,-0.15094422,0.14816174,0.6470082,-0.25513867,-0.15645671,0.05307821,0.004093953,0.0055556726,0.0009055792,-0.0012440314,-0.0001416259,1.2915503,-2.61391,-1.7305573,3.0768592,0.0,0.21566209,-0.004093953,0.0052901153,0.0036214145,0.026269026,0.017382288,inf,inf,inf,inf,1,1,1,1,2,1,2,3,0,0,0
47774470,0,0.0,0.0,0.78580403,0.023672545,-0.15080433,0.14816174,0.6470082,-0.25513867,-0.12858896,0.07694173,-0.0091534695,-0.008132656,0.0009055792,-0.0012440314,-0.0001416259,2.1004086,-1.8422344,-0.7200358,3.06416,0.0,0.2155222,0.0091534695,0.0048145577,0.0033154048,0.025014242,0.016655954,inf,inf,inf,inf,1,1,1,1,2,1,2,3,0,0,0
48078469,0,0.0,0.0,0.7863171,0.047681365,-0.16097154,0.14816174,0.6470082,-0.25513867,-0.019767351,0.16432203,-0.025265377,-0.029394185,0.0009055792,-0.0012440314,-0.0001416259,-3.8486402,-1.7899892,0.7438963,3.0308707,0.0,0.22568941,0.025265377,0.0050455965,0.0034679957,0.025598444,0.017000074,inf,inf,inf,inf,1,1,1,1,2,1,2,3,0,0,0
48894474,0,0.0,0.0,0.94667,0.2261828,-0.19237362,0.14816174,0.6470082,-0.25513867,0.2564592,0.18624748,-0.029285664,-0.031569228,0.0009055792,-0.0012440314,-0.0001416259,3.281607,1.9047801,-0.124576874,2.9833534,0.0,0.2570915,0.029285664,0.0050508343,0.0034576291,0.025874835,0.017005729,inf,inf,inf,inf,1,1,1,1,2,1,2,3,0,0,0
48998470,0,0.0,0.0,0.975377,0.2406137,-0.19492798,0.14816174,0.6470082,-0.25513867,0.26373437,0.16695355,-0.018081482,-0.020472586,0.0009055792,-0.0012440314,-0.0001416259,-1.7357243,0.034907144,0.56145376,2.9870687,0.0,0.25964585,0.018081482,0.0052346443,0.0035733168,0.026376752,0.01728461,inf,inf,inf,inf,1,1,1,1,2,1,2,3,0,0,0
49094485,0,0.0,0.0,1.0011986,0.2506283,-0.19576372,0.14816174,0.6470082,-0.25513867,0.25330943,0.15503491,-0.0030220244,-0.0053314976,0.0009055792,-0.0012440314,-0.0001416259,0.4010773,4.7006135,-0.88850546,2.9923215,0.0,0.2604816,0.0030220244,0.005147875,0.003521287,0.025936114,0.017056564,inf,inf,inf,inf,1,1,1,1,2,1,2,3,0,0,0
49194470,0,0.0,0.0,1.0264683,0.2598755,-0.19427876,0.14816174,0.6470082,-0.25513867,0.2468259,0.15087277,0.029071182,0.02725912,0.0009055792,-0.0012440314,-0.0001416259,1.1154729,-1.1937908,1.0184655,3.0006607,0.0,0.25899664,-0.029071182,0.005120302,0.0035038348,0.02589617,0.017047241,inf,inf,inf,inf,1,1,1,1,2,1,2,3,0,0,0
49297670,0,0.0,0.0,1.0501043,0.2686494,-0.18991463,0.14816174,0.6470082,-0.25513867,0.2191199,0.13624962,0.0347673,0.033908144,0.0009055792,-0.0012440314,-0.0001416259,-1.100473,1.8960942,-3.3677156,3.0136397,0.0,0.2546325,-0.0347673,0.005339389,0.0036447616,0.026651645,0.017551174,inf,inf,inf,inf,1,1,1,1,2,1,2,3,0,0,0
49401670,0,0.0,0.0,1.0700759,0.27868992,-0.1830043,0.14816174,0.6470082,-0.25513867,0.19681455,0.15613489,0.066977255,0.06725702,0.0009055792,-0.0012440314,-0.0001416259,3.8933845,2.6305146,-0.77638686,3.0301871,0.0,0.24772218,-0.066977255,0.0050781467,0.0034824763,0.025851823,0.017136244,inf,inf,inf,inf,1,1,1,1,2,1,2,3,0,0,0
49505669,0,0.0,0.0,1.0853862,0.29193467,-0.17321041,0.14816174,0.6470082,-0.25513867,0.13808168,0.15865202,0.09720352,0.09856114,0.0009055792,-0.0012440314,-0.0001416259,1.0460371,0.6732575,2.1317184,3.0468454,0.0,0.23792829,-0.09720352,0.0051416075,0.003528172,0.025829135,0.017144136,inf,inf,inf,inf,1,1,1,1,2,1,2,3,0,0,0
49601714,0,0.0,0.0,1.094372,0.30681887,-0.16211157,0.14816174,0.6470082,-0.25513867,0.12038148,0.1919968,0.10903311,0.11123749,0.0009055792,-0.0012440314,-0.0001416259,3.0443642,5.3879294,-1.4799596,3.0603294,0.0,0.22682944,-0.10903311,0.005437857,0.0037222852,0.026530584,0.017579062,inf,inf,inf,inf,1,1,1,1,2,1,2,3,0,0,0
49705678,0,0.0,0.0,1.0985826,0.32658273,-0.14786293,0.14816174,0.6470082,-0.25513867,0.072546296,0.19344904,0.13171293,0.13457146,0.0009055792,-0.0012440314,-0.0001416259,-3.283963,-1.9227216,0.67861843,3.0734324,0.0,0.2125808,-0.13171293,0.0049285386,0.0033922137,0.025340334,0.016870653,inf,inf,inf,inf,1,1,1,1,2,1,2,3,0,0,0
49809680,0,0.0,0.0,1.0975208,0.34952,-0.13059506,0.14816174,0.6470082,-0.25513867,0.043656353,0.22540635,0.16907324,0.17222694,0.0009055792,-0.0012440314,-0.0001416259,-1.5559367,0.21691966,-0.4251996,3.0820115,0.0,0.19531293,-0.16907324,0.0048730215,0.003355015,0.025272934,0.016828062,inf,inf,inf,inf,1,1,1,1,2,1,2,3,0,0,0
49905670,0,0.0,0.0,1.0923102,0.37181905,-0.11241229,0.14816174,0.6470082,-0.25513867,-0.001378366,0.21297026,0.17866886,0.1820863,0.0009055792,-0.0012440314,-0.0001416259,0.96421057,-1.7480245,-1.9707047,3.0850716,0.0,0.17713016,-0.17866886,0.0050222175,0.0034513257,0.025686096,0.017063133,inf,inf,inf,inf,1,1,1,1,2,1,2,3,0,0,0
50009670,0,0.0,0.0,1.0830288,0.3968857,-0.091967724,0.14816174,0.6470082,-0.25513867,-0.036377948,0.22156568,0.18990228,0.19346479,0.0009055792,-0.0012440314,-0.0001416259,5.547066,-0.22085996,-1.045668,3.084196,0.0,0.15668559,-0.18990228,0.0052705565,0.003612619,0.026279096,0.017405637,inf,inf,inf,inf,1,1,1,1,2,1,2,3,0,0,0
50113670,0,0.0,0.0,1.0715749,0.42299727,-0.07360068,0.14816174,0.6470082,-0.25513867,-0.09149441,0.22129056,0.1753983,0.17835917,0.0009055792,-0.0012440314,-0.0001416259,-0.7594723,-0.86993086,3.6164422,3.0818098,0.0,0.13831855,-0.1753983,0.005104644,0.003506362,0.025778199,0.017096205,inf,inf,inf,inf,1,1,1,1,2,1,2,3,0,0,0
50209670,0,0.0,0.0,1.0587839,0.44673878,-0.060447197,0.14816174,0.6470082,-0.25513867,-0.101899505,0.23492676,0.124812245,0.12609667,0.0009055792,-0.0012440314,-0.0001416259,4.785068,3.8257759,-1.811401,3.0789914,0.0,0.12516508,-0.124812245,0.0052249576,0.0035818596,0.026197845,0.017337898,inf,inf,inf,inf,1,1,1,1,2,1,2,3,0,0,0
50313676,0,0.0,0.0,1.0426197,0.47148588,-0.053238716,0.14816174,0.6470082,-0.25513867,-0.15226257,0.1991244,0.07522369,0.073252246,0.0009055792,-0.0012440314,-0.0001416259,1.5714743,-3.3929563,0.6090604,3.0713425,0.0,0.11795659,-0.07522369,0.0051180404,0.003511081,0.02593704,0.01716139,inf,inf,inf,inf,1,1,1,1,2,1,2,3,0,0,0
50417678,0,0.0,0.0,1.0244569,0.49313676,-0.054030415,0.14816174,0.6470082,-0.25513867,-0.18897937,0.20718431,0.019912869,0.013355437,0.0009055792,-0.0012440314,-0.0001416259,-6.1868234,-0.07617374,2.381595,3.0649588,0.0,0.11874829,-0.019912869,0.0049886927,0.003425911,0.025622716,0.016926024,inf,inf,inf,inf,1,1,1,1,2,1,2,3,0,0,0
50513669,0,0.0,0.0,1.0057817,0.5112404,-0.061109107,0.14816174,0.6470082,-0.25513867,-0.19316638,0.19100758,-0.02028765,-0.0317777,0.0009055792,-0.0012440314,-0.0001416259,4.9689755,-1.7161549,0.83543175,3.0604026,0.0,0.12582698,0.02028765,0.0050744847,0.0034785024,0.025931919,0.017113531,inf,inf,inf,inf,1,1,1,1,2,1,2,3,0,0,0
50617692,0,0.0,0.0,0.9846217,0.5269771,-0.07466817,0.14816174,0.6470082,-0.25513867,-0.20698114,0.1763572,-0.060531877,-0.076964,0.0009055792,-0.0012440314,-0.0001416259,2.633581,4.4904985,3.7017925,3.056953,0.0,0.13938604,0.060531877,0.005279861,0.003609833,0.026388498,0.017365396,inf,inf,inf,inf,1,1,1,1,2,1,2,3,0,0,0
50721670,0,0.0,0.0,0.9631954,0.5385675,-0.0916622,0.14816174,0.6470082,-0.25513867,-0.19930772,0.130007,-0.10347647,-0.1235902,0.0009055792,-0.0012440314,-0.0001416259,5.399172,3.6316316,-2.493594,3.0554168,0.0,0.15638007,0.10347647,0.00510168,0.0034961116,0.025930831,0.01712285,inf,inf,inf,inf,1,1,1,1,2,1,2,3,0,0,0
50825676,0,0.0,0.0,0.94266295,0.54604423,-0.10959362,0.14816174,0.6470082,-0.25513867,-0.19984761,0.08507357,-0.100113764,-0.12205781,0.0009055792,-0.0012440314,-0.0001416259,4.25863,-2.3447745,-0.96742004,3.048801,0.0,0.17431149,0.100113764,0.0049971873,0.0034296853,0.025659204,0.01702015,inf,inf,inf,inf,1,1,1,1,2,1,2,3,0,0,0
50929670,0,0.0,0.0,0.9243973,0.5494956,-0.12629257,0.14816174,0.6470082,-0.25513867,-0.16949502,0.055510763,-0.1181364,-0.13968946,0.0009055792,-0.0012440314,-0.0001416259,3.7700436,4.2511125,-1.9290363,3.0439472,0.0,0.19101045,0.1181364,0.0052568126,0.0035990924,0.026309095,0.017429516,inf,inf,inf,inf,1,1,1,1,2,1,2,3,0,0,0
51025670,0,0.0,0.0,0.91031873,0.54972494,-0.13928874,0.14816174,0.6470082,-0.25513867,-0.14056166,0.00629164,-0.108574286,-0.12793167,0.0009055792,-0.0012440314,-0.0001416259,-1.8372504,0.11832133,-0.4770486,3.0396357,0.0,0.20400661,0.108574286,0.005046011,0.0034649675,0.025745813,0.017127985,inf,inf,inf,inf,1,1,1,1,2,1,2,3,0,0,0
51129670,0,0.0,0.0,0.8997594,0.5458852,-0.14996564,0.14816174,0.6470082,-0.25513867,-0.10949369,-0.029762844,-0.07907404,-0.09481678,0.0009055792,-0.0012440314,-0.0001416259,-1.2903253,-4.4438615,1.6131445,3.0360181,0.0,0.21468352,0.07907404,0.0052903187,0.003626207,0.026284149,0.017441776,inf,inf,inf,inf,1,1,1,1,2,1,2,3,0,0,0
51233670,0,0.0,0.0,0.89478046,0.5384304,-0.15600955,0.14816174,0.6470082,-0.25513867,-0.07411533,-0.051647954,-0.062463555,-0.07372789,0.0009055792,-0.0012440314,-0.0001416259,-2.146748,2.9670155,2.4978385,3.031716,0.0,0.22072743,0.062463555,0.005154938,0.0035406826,0.025895456,0.01722878,inf,inf,inf,inf,1,1,1,1,2,1,2,3,0,0,0
51336899,0,0.0,0.0,0.8949973,0.52702606,-0.15856795,0.14816174,0.6470082,-0.25513867,-0.056548927,-0.06782623,-0.04634058,-0.052919112,0.0009055792,-0.0012440314,-0.0001416259,-4.900978,3.7109995,1.3547981,3.0268548,0.0,0.22328582,0.04634058,0.005249585,0.0036062223,0.025974508,0.017269745,inf,inf,inf,inf,1,1,1,1,2,1,2,3,0,0,0
51432907,0,0.0,0.0,0.8995199,0.5153419,-0.15921566,0.14816174,0.6470082,-0.25513867,-0.02553603,-0.09168435,-0.038191516,-0.040682018,0.0009055792,-0.0012440314,-0.0001416259,-2.793751,2.562305,3.0909488,3.022992,0.0,0.22393353,0.038191516,0.005284821,0.0036274618,0.026185162,0.017372256,inf,inf,inf,inf,1,1,1,1,2,1,2,3,0,0,0
51536870,0,0.0,0.0,0.9078025,0.5009246,-0.1581132,0.14816174,0.6470082,-0.25513867,0.011970415,-0.13885832,-0.035590384,-0.03474484,0.0009055792,-0.0012440314,-0.0001416259,-0.30087417,0.68603474,-2.7437031,3.0244403,0.0,0.22283107,0.035590384,0.0050984025,0.003505675,0.02572738,0.017095957,inf,inf,inf,inf,1,1,1,1,2,1,2,3,0,0,0
51640878,0,0.0,0.0,0.9192129,0.48514572,-0.15602724,0.14816174,0.6470082,-0.25513867,0.009876117,-0.1293301,0.021882059,0.024667742,0.0009055792,-0.0012440314,-0.0001416259,-1.0053124,5.174637,4.320192,3.0250673,0.0,0.22074512,-0.021882059,0.0051965113,0.003569457,0.02591816,0.017221114,inf,inf,inf,inf,1,1,1,1,2,1,2,3,0,0,0
51736877,0,0.0,0.0,0.92993075,0.4710313,-0.14961915,0.14816174,0.6470082,-0.25513867,0.035390664,-0.13344482,0.06177601,0.06541015,0.0009055792,-0.0012440314,-0.0001416259,1.2591796,2.3349106,2.6438718,3.0225112,0.0,0.21433702,-0.06177601,0.0052247755,0.003586901,0.026062353,0.01731524,inf,inf,inf,inf,1,1,1,1,2,1,2,3,0,0,0
51840870,0,0.0,0.0,0.9402687,0.45668826,-0.13816454,0.14816174,0.6470082,-0.25513867,0.053935256,-0.14428315,0.089595184,0.09433017,0.0009055792,-0.0012440314,-0.0001416259,6.4522967,3.1612062,-1.441285,3.0208237,0.0,0.20288241,-0.089595184,0.0051055276,0.0035085157,0.02582412,0.017174244,inf,inf,inf,inf,1,1,1,1,2,1,2,3,0,0,0
51944870,0,0.0,0.0,0.9489806,0.44428933,-0.12554035,0.14816174,0.6470082,-0.25513867,0.05595022,-0.14154214,0.10300793,0.10932672,0.0009055792,-0.0012440314,-0.0001416259,3.4251883,-4.7820115,1.4344112,3.018321,0.0,0.19025822,-0.10300793,0.004990522,0.003434048,0.025510618,0.016993921,inf,inf,inf,inf,1,1,1,1,2,1,2,3,0,0,0
52040878,0,0.0,0.0,0.95584357,0.43479228,-0.1131819,0.14816174,0.6470082,-0.25513867,0.051129397,-0.14580259,0.097773954,0.10504668,0.0009055792,-0.0012440314,-0.0001416259,-4.482648,-2.8052979,1.0549663,3.0131903,0.0,0.17789978,-0.097773954,0.005075462,0.0034898014,0.025720486,0.017139083,inf,inf,inf,inf,1,1,1,1,2,1,2,3,0,0,0
52144887,0,0.0,0.0,0.96155405,0.42635855,-0.10130997,0.14816174,0.6470082,-0.25513867,0.058109973,-0.11783069,0.09274117,0.09969454,0.0009055792,-0.0012440314,-0.0001416259,-3.987625,1.768868,-1.5206492,3.0081425,0.0,0.16602784,-0.09274117,0.0053553577,0.0036707104,0.026502097,0.017603705,inf,inf,inf,inf,1,1,1,1,2,1,2,3,0,0,0
52248914,0,0.0,0.0,0.96565974,0.42072514,-0.091561034,0.14816174,0.6470082,-0.25513867,0.06482432,-0.093978584,0.0899851,0.095233954,0.0009055792,-0.0012440314,-0.0001416259,-4.2568593,0.6944851,2.9846766,3.0025377,0.0,0.15627891,-0.0899851,0.0051439423,0.003536303,0.025813166,0.01715377,inf,inf,inf,inf,1,1,1,1,2,1,2,3,0,0,0
52344870,0,0.0,0.0,0.96918374,0.41786394,-0.084819615,0.14816174,0.6470082,-0.25513867,0.09192497,-0.06342721,0.07893813,0.08169844,0.0009055792,-0.0012440314,-0.0001416259,2.0660481,1.182372,2.3559117,2.9951973,0.0,0.14953749,-0.07893813,0.0051060305,0.0035116456,0.02563287,0.01701654,inf,inf,inf,inf,1,1,1,1,2,1,2,3,0,0,0
52448877,0,0.0,0.0,0.97547734,0.41789624,-0.08066823,0.14816174,0.6470082,-0.25513867,0.10138903,-0.06417693,0.059188224,0.0586525,0.0009055792,-0.0012440314,-0.0001416259,-1.785792,-2.565816,-0.68682694,2.9840183,0.0,0.1453861,-0.059188224,0.0051824935,0.0035604632,0.025830124,0.01710649,inf,inf,inf,inf,1,1,1,1,2,1,2,3,0,0,0
52552870,0,0.0,0.0,0.9856052,0.41997114,-0.07999329,0.14816174,0.6470082,-0.25513867,0.119605616,-0.022669816,0.02551516,0.02146282,0.0009055792,-0.0012440314,-0.0001416259,1.2438945,5.579004,-1.5751928,2.974744,0.0,0.14471117,-0.02551516,0.0053216475,0.0036471484,0.02635254,0.017432477,inf,inf,inf,inf,1,1,1,1,2,1,2,3,0,0,0
52648870,0,0.0,0.0,0.99729425,0.42329165,-0.082238495,0.14816174,0.6470082,-0.25513867,0.13076764,-0.039747406,0.02270752,0.015589835,0.0009055792,-0.0012440314,-0.0001416259,0.3279829,-6.6034374,0.2017719,2.969331,0.0,0.14695637,-0.02270752,0.0053418092,0.0036578698,0.026478056,0.017495243,inf,inf,inf,inf,1,1,1,1,2,1,2,3,0,0,0
52752870,0,0.0,0.0,1.0119072,0.42853618,-0.086881734,0.14816174,0.6470082,-0.25513867,0.15212837,0.00483917,-0.008009444,-0.018000685,0.0009055792,-0.0012440314,-0.0001416259,1.2460879,5.453504,-1.4246814,2.964386,0.0,0.15159962,0.008009444,0.0051923282,0.0035578196,0.026224423,0.01728107,inf,inf,inf,inf,1,1,1,1,2,1,2,3,0,0,0
52856869,0,0.0,0.0,1.0278543,0.4332782,-0.09370983,0.14816174,0.6470082,-0.25513867,0.16823788,-0.002289953,-0.03049244,-0.0426208,0.0009055792,-0.0012440314,-0.0001416259,2.2763598,-1.1272098,-0.52270687,2.962161,0.0,0.1584277,0.03049244,0.005073993,0.0034785282,0.025897874,0.01707913,inf,inf,inf,inf,1,1,1,1,2,1,2,3,0,0,0
52960878,0,0.0,0.0,1.0449013,0.4374846,-0.10095664,0.14816174,0.6470082,-0.25513867,0.14172535,0.01119286,-0.014809141,-0.028378824,0.0009055792,-0.0012440314,-0.0001416259,-6.500354,2.3431795,3.4128146,2.9622402,0.0,0.16567451,0.014809141,0.0052254447,0.0035756945,0.026192578,0.01723167,inf,inf,inf,inf,1,1,1,1,2,1,2,3,0,0,0
53064870,0,0.0,0.0,1.0616521,0.44116944,-0.10689861,0.14816174,0.6470082,-0.25513867,0.13408086,0.0066253347,-0.0031870832,-0.017354105,0.0009055792,-0.0012440314,-0.0001416259,0.21739388,-0.9089357,2.067853,2.9636528,0.0,0.1716165,0.0031870832,0.005358775,0.0036609485,0.026500324,0.017436171,inf,inf,inf,inf,1,1,1,1,2,1,2,3,0,0,0
53160902,0,0.0,0.0,1.0738142,0.44323558,-0.11058712,0.14816174,0.6470082,-0.25513867,0.09620063,0.012537624,-0.013472205,-0.027095027,0.0009055792,-0.0012440314,-0.0001416259,-3.4113417,-0.7644989,0.86289144,2.9709973,0.0,0.175305,0.013472205,0.0050956537,0.003489321,0.025944997,0.017101621,inf,inf,inf,inf,1,1,1,1,2,1,2,3,0,0,0
53264876,0,0.0,0.0,1.0808614,0.44407058,-0.11280473,0.14816174,0.6470082,-0.25513867,0.0715351,0.0054888716,-0.002106016,-0.014180192,0.0009055792,-0.0012440314,-0.0001416259,3.2466903,-2.994995,-2.4743016,2.9827113,0.0,0.1775226,0.002106016,0.004954347,0.0033989998,0.025492072,0.016854553,inf,inf,inf,inf,1,1,1,1,2,1,2,3,0,0,0
53368870,0,0.0,0.0,1.0816487,0.44443703,-0.11431865,0.14816174,0.6470082,-0.25513867,0.0122708585,0.014183063,-0.015935354,-0.025977205,0.0009055792,-0.0012440314,-0.0001416259,2.5016866,-1.9725332,-0.6249789,2.9953527,0.0,0.17903653,0.015935354,0.005171759,0.0035383874,0.02608123,0.017204719,inf,inf,inf,inf,1,1,1,1,2,1,2,3,0,0,0
53464870,0,0.0,0.0,1.0764239,0.44398263,-0.11616558,0.14816174,0.6470082,-0.25513867,-0.025015907,0.01664243,-0.02531788,-0.033704598,0.0009055792,-0.0012440314,-0.0001416259,0.50062007,-5.679987,-0.66304964,3.0104437,0.0,0.18088345,0.02531788,0.005301977,0.0036215086,0.02644937,0.017434957,inf,inf,inf,inf,1,1,1,1,2,1,2,3,0,0,0
53568870,0,0.0,0.0,1.0669476,0.44476917,-0.11919265,0.14816174,0.6470082,-0.25513867,-0.059566658,0.037330564,-0.016232885,-0.023674654,0.0009055792,-0.0012440314,-0.0001416259,0.9960093,3.1611404,2.8891497,3.0253353,0.0,0.18391052,0.016232885,0.0051147398,0.0035055685,0.025775984,0.017060678,inf,inf,inf,inf,1,1,1,1,2,1,2,3,0,0,0
53672875,0,0.0,0.0,1.0546395,0.44720754,-0.12322993,0.14816174,0.6470082,-0.25513867,-0.073633134,0.041438416,-0.041831844,-0.04899402,0.0009055792,-0.0012440314,-0.0001416259,-2.694322,-3.2720034,1.6544744,3.033125,0.0,0.18794781,0.041831844,0.005273296,0.0036109963,0.026205486,0.017331159,inf,inf,inf,inf,1,1,1,1,2,1,2,3,0,0,0
53768870,0,0.0,0.0,1.042163,0.45064974,-0.12740877,0.14816174,0.6470082,-0.25513867,-0.08767202,0.02953079,-0.032996375,-0.040065836,0.0009055792,-0.0012440314,-0.0001416259,0.09778038,-1.4200187,2.6715739,3.035038,0.0,0.19212665,0.032996375,0.005219416,0.0035780398,0.025990007,0.017220898,inf,inf,inf,inf,1,1,1,1,2,1,2,3,0,0,0
53872087,0,0.0,0.0,1.0300058,0.45812264,-0.13161138,0.14816174,0.6470082,-0.25513867,-0.071110226,0.07203646,-0.028377613,-0.03529013,0.0009055792,-0.0012440314,-0.0001416259,0.037977498,-5.445904,-0.30721146,3.0333817,0.0,0.19632925,0.028377613,0.005354849,0.0036666158,0.026346153,0.017425615,inf,inf,inf,inf,1,1,1,1,2,1,2,3,0,0,0
53976078,0,0.0,0.0,1.0207843,0.46729842,-0.13477866,0.14816174,0.6470082,-0.25513867,-0.057368036,0.0879126,-0.02450381,-0.030910717,0.0009055792,-0.0012440314,-0.0001416259,-1.6582744,1.8552207,0.76945883,3.0289612,0.0,0.19949654,0.02450381,0.005121919,0.0035186317,0.025736643,0.017078847,inf,inf,inf,inf,1,1,1,1,2,1,2,3,0,0,0
54080070,0,0.0,0.0,1.0163759,0.4780615,-0.13620734,0.14816174,0.6470082,-0.25513867,-0.019889673,0.102873966,0.0017627504,-0.003734674,0.0009055792,-0.0012440314,-0.0001416259,2.0252507,7.351568,-0.6944252,3.0210588,0.0,0.20092522,-0.0017627504,0.0052770237,0.0036185978,0.026196528,0.01736081,inf,inf,inf,inf,1,1,1,1,2,1,2,3,0,0,0
54176076,0,0.0,0.0,1.0165219,0.48909453,-0.13514486,0.14816174,0.6470082,-0.25513867,0.011729625,0.10180185,0.0069157206,0.0025639357,0.0009055792,-0.0012440314,-0.0001416259,2.998128,3.6025782,-4.098596,3.01362,0.0,0.19986273,-0.0069157206,0.0049518957,0.0034079005,0.025387239,0.016891396,inf,inf,inf,inf,1,1,1,1,2,1,2,3,0,0,0
54280070,0,0.0,0.0,1.0192264,0.5003821,-0.13187647,0.14816174,0.6470082,-0.25513867,0.0019298594,0.11185861,0.032007165,0.02921726,0.0009055792,-0.0012440314,-0.0001416259,-0.9775762,7.5564713,3.629334,3.0095758,0.0,0.19659434,-0.032007165,0.0051405123,0.0035298935,0.025884375,0.017186875,inf,inf,inf,inf,1,1,1,1,2,1,2,3,0,0,0
54384092,0,0.0,0.0,1.0236272,0.5116841,-0.12807968,0.14816174,0.6470082,-0.25513867,0.014429149,0.09835177,0.01751078,0.016333094,0.0009055792,-0.0012440314,-0.0001416259,4.1604133,4.10659,-1.3118124,3.0083137,0.0,0.19279756,-0.01751078,0.005013461,0.0034472127,0.025528628,0.016968349,inf,inf,inf,inf,1,1,1,1,2,1,2,3,0,0,0
54480113,0,0.0,0.0,1.0283499,0.52049965,-0.12566477,0.14816174,0.6470082,-0.25513867,-0.0021373476,0.082964726,0.0006095404,0.00040966796,0.0009055792,-0.0012440314,-0.0001416259,-2.332773,-1.1963708,-0.7212796,3.0091283,0.0,0.19038264,-0.0006095404,0.0050249654,0.0034554757,0.025493784,0.016938718,inf,inf,inf,inf,1,1,1,1,2,1,2,3,0,0,0
54584070,0,0.0,0.0,1.0325154,0.52876467,-0.12503742,0.14816174,0.6470082,-0.25513867,-0.033454057,0.0832452,-0.0075186836,-0.0077308007,0.0009055792,-0.0012440314,-0.0001416259,-0.7545594,0.49211162,0.0149923675,3.0110815,0.0,0.18975529,0.0075186836,0.0049387785,0.0033974813,0.025387669,0.016882945,inf,inf,inf,inf,1,1,1,1,2,1,2,3,0,0,0
54688084,0,0.0,0.0,1.0325962,0.5356818,-0.12616049,0.14816174,0.6470082,-0.25513867,-0.057880208,0.08655192,-0.009624799,-0.010858008,0.0009055792,-0.0012440314,-0.0001416259,8.513576,2.8293796,-0.46213174,3.0159626,0.0,0.19087836,0.009624799,0.005113773,0.0035112882,0.025832245,0.017129181,inf,inf,inf,inf,1,1,1,1,2,1,2,3,0,0,0
54792076,0,0.0,0.0,1.0264908,0.54136825,-0.12851986,0.14816174,0.6470082,-0.25513867,-0.11750233,0.0801249,-0.020793147,-0.023485571,0.0009055792,-0.0012440314,-0.0001416259,4.1666937,3.9989386,-0.032983102,3.0196936,0.0,0.19323774,0.020793147,0.0053319666,0.0036512795,0.026391676,0.017452404,inf,inf,inf,inf,1,1,1,1,2,1,2,3,0,0,0
54896069,0,0.0,0.0,1.013379,0.54741776,-0.13281548,0.14816174,0.6470082,-0.25513867,-0.15802392,0.08331263,-0.033509783,-0.037440993,0.0009055792,-0.0012440314,-0.0001416259,-0.97008747,0.23225658,-1.0005382,3.0207093,0.0,0.19753335,0.033509783,0.0050993487,0.0035027838,0.025661388,0.017025368,inf,inf,inf,inf,1,1,1,1,2,1,2,3,0,0,0
55000080,0,0.0,0.0,0.99264127,0.5543739,-0.1390945,0.14816174,0.6470082,-0.25513867,-0.1964495,0.08475899,-0.05869196,-0.0636154,0.0009055792,-0.0012440314,-0.0001416259,-1.7141932,-0.23125988,-4.55664,3.019561,0.0,0.20381238,0.05869196,0.0052585574,0.0036049786,0.026169797,0.01733024,inf,inf,inf,inf,1,1,1,1,2,1,2,3,0,0,0
55096076,0,0.0,0.0,0.9667055,0.56193966,-0.14483903,0.14816174,0.6470082,-0.25513867,-0.26501703,0.10991254,-0.037588783,-0.043232076,0.0009055792,-0.0012440314,-0.0001416259,-7.489195,1.7679758,4.0647564,3.018451,0.0,0.2095569,0.037588783,0.005241849,0.0035953063,0.02608272,0.017277366,inf,inf,inf,inf,1,1,1,1,2,1,2,3,0,0,0
55200075,0,0.0,0.0,0.93218285,0.5724862,-0.15095897,0.14816174,0.6470082,-0.25513867,-0.29054716,0.123577826,-0.049344487,-0.05534349,0.0009055792,-0.0012440314,-0.0001416259,-4.2512693,0.0006405324,-0.16747066,3.0194843,0.0,0.21567684,0.049344487,0.005047929,0.0034698925,0.025602926,0.017018478,inf,inf,inf,inf,1,1,1,1,2,1,2,3,0,0,0
55304070,0,0.0,0.0,0.89360243,0.5859878,-0.15730493,0.14816174,0.6470082,-0.25513867,-0.30271795,0.13693225,-0.055483226,-0.061248805,0.0009055792,-0.0012440314,-0.0001416259,1.2726858,-0.8967019,-1.6534888,3.0190406,0.0,0.2220228,0.055483226,0.005192749,0.0035648264,0.025946092,0.01722772,inf,inf,inf,inf,1,1,1,1,2,1,2,3,0,0,0
55400076,0,0.0,0.0,0.856076,0.6003198,-0.16224924,0.14816174,0.6470082,-0.25513867,-0.37093785,0.13169707,-0.03810985,-0.043429337,0.0009055792,-0.0012440314,-0.0001416259,-9.644846,-1.9139156,1.4340578,3.0184278,0.0,0.22696711,0.03810985,0.005172797,0.0035534415,0.025845973,0.017175555,inf,inf,inf,inf,1,1,1,1,2,1,2,3,0,0,0
55504078,0,0.0,0.0,0.8158846,0.6176683,-0.1661274,0.14816174,0.6470082,-0.25513867,-0.34136918,0.14123745,-0.031867944,-0.036493618,0.0009055792,-0.0012440314,-0.0001416259,-7.507242,-2.795611,0.24040954,3.0164447,0.0,0.23084527,0.031867944,0.0052987537,0.0036362892,0.026185624,0.017404504,inf,inf,inf,inf,1,1,1,1,2,1,2,3,0,0,0
55608071,0,0.0,0.0,0.77911985,0.63488,-0.16804533,0.14816174,0.6470082,-0.25513867,-0.29938897,0.13344176,-0.015028897,-0.018557504,0.0009055792,-0.0012440314,-0.0001416259,-3.5209687,-3.132467,1.0290228,3.0142558,0.0,0.2327632,0.015028897,0.0053847204,0.0036946232,0.02633866,0.017519211,inf,inf,inf,inf,1,1,1,1,2,1,2,3,0,0,0
55711297,0,0.0,0.0,0.7477467,0.648961,-0.16619,0.14816174,0.6470082,-0.25513867,-0.23957434,0.119265266,0.030724643,0.028673861,0.0009055792,-0.0012440314,-0.0001416259,6.8648715,2.608839,-0.3418885,3.014509,0.0,0.23090787,-0.030724643,0.0054583945,0.0037440795,0.026527641,0.017642807,inf,inf,inf,inf,1,1,1,1,2,1,2,3,0,0,0
55811276,0,0.0,0.0,0.7242544,0.6607249,-0.16101444,0.14816174,0.6470082,-0.25513867,-0.21387559,0.08458232,0.047108494,0.046806496,0.0009055792,-0.0012440314,-0.0001416259,-2.3075292,-4.818078,2.235972,3.0128095,0.0,0.22573231,-0.047108494,0.0050360286,0.0034699666,0.025475712,0.016988385,inf,inf,inf,inf,1,1,1,1,2,1,2,3,0,0,0
55907270,0,0.0,0.0,0.7095467,0.6682707,-0.15484026,0.14816174,0.6470082,-0.25513867,-0.10319337,0.062404748,0.035729025,0.03726603,0.0009055792,-0.0012440314,-0.0001416259,8.291587,0.73886853,-0.35649735,3.012536,0.0,0.21955813,-0.035729025,0.005323537,0.003657038,0.026200417,0.017407482,inf,inf,inf,inf,1,1,1,1,2,1,2,3,0,0,0
56011269,0,0.0,0.0,0.7041637,0.671745,-0.1491564,0.14816174,0.6470082,-0.25513867,-0.040684145,0.02001908,0.021868985,0.024683665,0.0009055792,-0.0012440314,-0.0001416259,5.998273,-1.7399486,-2.1463726,3.011467,0.0,0.21387428,-0.021868985,0.0050833775,0.0035008762,0.025707327,0.017130747,inf,inf,inf,inf,1,1,1,1,2,1,2,3,0,0,0
56115278,0,0.0,0.0,0.71058875,0.6703708,-0.14577727,0.14816174,0.6470082,-0.25513867,0.01809291,-0.018278636,0.0152530745,0.017841363,0.0009055792,-0.0012440314,-0.0001416259,0.99965864,-5.2465277,-0.6595209,3.0097375,0.0,0.21049514,-0.0152530745,0.0051298263,0.0035309608,0.025756557,0.017127393,inf,inf,inf,inf,1,1,1,1,2,1,2,3,0,0,0
56219318,0,0.0,0.0,0.7277968,0.6640097,-0.14531185,0.14816174,0.6470082,-0.25513867,0.06963886,-0.057037905,0.005321022,0.0061914744,0.0009055792,-0.0012440314,-0.0001416259,-4.0109177,-4.3647842,-0.8763603,3.0100985,0.0,0.21002972,-0.005321022,0.0052138916,0.003584513,0.02596878,0.017235864,inf,inf,inf,inf,1,1,1,1,2,1,2,3,0,0,0
56323344,0,0.0,0.0,0.7535558,0.65464836,-0.14688492,0.14816174,0.6470082,-0.25513867,0.12083491,-0.057911627,0.0026660024,0.0010016762,0.0009055792,-0.0012440314,-0.0001416259,-5.0680666,-0.9546124,2.427595,3.0109167,0.0,0.21160279,-0.0026660024,0.0052788113,0.0036249054,0.026136562,0.01731899,inf,inf,inf,inf,1,1,1,1,2,1,2,3,0,0,0
56419324,0,0.0,0.0,0.7817011,0.64452934,-0.14936773,0.14816174,0.6470082,-0.25513867,0.19028027,-0.08322717,-0.00014688738,-0.0041518295,0.0009055792,-0.0012440314,-0.0001416259,8.017856,-1.7560167,-0.6020619,3.0125494,0.0,0.21408561,0.00014688738,0.0052129934,0.0035802778,0.025991295,0.017229123,inf,inf,inf,inf,1,1,1,1,2,1,2,3,0,0,0
56523286,0,0.0,0.0,0.8138715,0.6328837,-0.15272787,0.14816174,0.6470082,-0.25513867,0.21605013,-0.08603221,-0.0050495337,-0.010987743,0.0009055792,-0.0012440314,-0.0001416259,9.251013,-1.8055898,-2.2846088,3.0133314,0.0,0.21744575,0.0050495337,0.005268018,0.0036151756,0.026103051,0.017286718,inf,inf,inf,inf,1,1,1,1,2,1,2,3,0,0,0
56627316,0,0.0,0.0,0.84518206,0.62183505,-0.15682694,0.14816174,0.6470082,-0.25513867,0.23439223,-0.0957359,-0.020495053,-0.027550103,0.0009055792,-0.0012440314,-0.0001416259,8.365797,-2.417039,-3.2920573,3.0137658,0.0,0.22154482,0.020495053,0.0053386874,0.003660532,0.026281497,0.017394176,inf,inf,inf,inf,1,1,1,1,2,1,2,3,0,0,0
56731270,0,0.0,0.0,0.87309825,0.6119021,-0.16112512,0.14816174,0.6470082,-0.25513867,0.22263485,-0.09408367,-0.031394403,-0.03897086,0.0009055792,-0.0012440314,-0.0001416259,4.5443897,-3.2921662,-4.6625977,3.0138373,0.0,0.225843,0.031394403,0.0054045715,0.0037031996,0.026453367,0.01749951,inf,inf,inf,inf,1,1,1,1,2,1,2,3,0,0,0
56835315,0,0.0,0.0,0.89572704,0.60439336,-0.16571516,0.14816174,0.6470082,-0.25513867,0.19343588,-0.084667936,-0.0401038,-0.047888495,0.0009055792,-0.0012440314,-0.0001416259,1.1421558,-4.2325816,-2.7492158,3.0118794,0.0,0.23043303,0.0401038,0.0051153903,0.0035163248,0.025709705,0.017068693,inf,inf,inf,inf,1,1,1,1,2,1,2,3,0,0,0
56939276,0,0.0,0.0,0.9122697,0.5996553,-0.17179222,0.14816174,0.6470082,-0.25513867,0.17007235,-0.07102862,-0.045693073,-0.05349614,0.0009055792,-0.0012440314,-0.0001416259,0.7626154,-3.187321,0.2873184,3.0077016,0.0,0.2365101,0.045693073,0.0051876223,0.0035633415,0.025874326,0.017163225,inf,inf,inf,inf,1,1,1,1,2,1,2,3,0,0,0
57035270,0,0.0,0.0,0.92227244,0.5976685,-0.17846456,0.14816174,0.6470082,-0.25513867,0.14918172,-0.054725934,-0.05990595,-0.067858174,0.0009055792,-0.0012440314,-0.0001416259,1.5188724,3.9547698,-2.9704657,3.0010738,0.0,0.24318244,0.05990595,0.0051383893,0.0035306045,0.025810009,0.017130861,inf,inf,inf,inf,1,1,1,1,2,1,2,3,0,0,0
57139291,0,0.0,0.0,0.9285765,0.59684056,-0.1863403,0.14816174,0.6470082,-0.25513867,0.12720262,-0.05200029,-0.053176392,-0.06143622,0.0009055792,-0.0012440314,-0.0001416259,4.6789136,-4.887808,-1.5546175,2.9940019,0.0,0.25105816,0.053176392,0.0051830704,0.0035603137,0.025853617,0.017157359,inf,inf,inf,inf,1,1,1,1,2,1,2,3,0,0,0
57243308,0,0.0,0.0,0.93104696,0.5978477,-0.19335347,0.14816174,0.6470082,-0.25513867,0.103221454,-0.032230776,-0.043058258,-0.051487353,0.0009055792,-0.0012440314,-0.0001416259,2.301892,2.8145401,2.9537537,2.989946,0.0,0.25807136,0.043058258,0.005265045,0.003612984,0.02609378,0.017300846,inf,inf,inf,inf,1,1,1,1,2,1,2,3,0,0,0
57339279,0,0.0,0.0,0.93107855,0.5988959,-0.19830315,0.14816174,0.6470082,-0.25513867,0.07284415,-0.026878985,-0.030823484,-0.0388714,0.0009055792,-0.0012440314,-0.0001416259,-5.3525033,3.1008854,2.4575388,2.985617,0.0,0.26302102,0.030823484,0.005187293,0.0035633014,0.025871173,0.017192947,inf,inf,inf,inf,1,1,1,1,2,1,2,3,0,0,0
57443289,0,0.0,0.0,0.9306664,0.60029584,-0.20261426,0.14816174,0.6470082,-0.25513867,0.08039364,-0.021890478,-0.03524985,-0.04213823,0.0009055792,-0.0012440314,-0.0001416259,1.3240517,6.588943,0.557433,2.984146,0.0,0.26733214,0.03524985,0.0052503096,0.0036049495,0.026020491,0.01726908,inf,inf,inf,inf,1,1,1,1,2,1,2,3,0,0,0
57547276,0,0.0,0.0,0.9306583,0.5999122,-0.20427625,0.14816174,0.6470082,-0.25513867,0.06451258,-0.04319586,-0.0014818276,-0.006805622,0.0009055792,-0.0012440314,-0.0001416259,2.107717,-1.6540358,-0.03663858,2.9851217,0.0,0.26899412,0.0014818276,0.00532821,0.003655859,0.02624415,0.017415598,inf,inf,inf,inf,1,1,1,1,2,1,2,3,0,0,0
57643276,0,0.0,0.0,0.9323099,0.59956795,-0.20287687,0.14816174,0.6470082,-0.25513867,0.096699454,-0.04513934,0.019560559,0.015857298,0.0009055792,-0.0012440314,-0.0001416259,5.4359384,-7.015331,-1.9015242,2.9890873,0.0,0.26759475,-0.019560559,0.005263082,0.0036140475,0.026078697,0.017314503,inf,inf,inf,inf,1,1,1,1,2,1,2,3,0,0,0
57747271,0,0.0,0.0,0.93626195,0.59729767,-0.19704314,0.14816174,0.6470082,-0.25513867,0.08261665,-0.04223883,0.050099544,0.04851602,0.0009055792,-0.0012440314,-0.0001416259,-0.23541555,-3.655329,-0.8581777,2.9988592,0.0,0.261761,-0.050099544,0.005335215,0.0036611208,0.02623884,0.01740048,inf,inf,inf,inf,1,1,1,1,2,1,2,3,0,0,0
57851285,0,0.0,0.0,0.94229823,0.59436005,-0.18864284,0.14816174,0.6470082,-0.25513867,0.073361814,-0.014212513,0.060294,0.061195336,0.0009055792,-0.0012440314,-0.0001416259,-1.2577565,6.771286,1.5497309,3.0072856,0.0,0.25336072,-0.060294,0.005396292,0.0037008652,0.026345128,0.017458204,inf,inf,inf,inf,1,1,1,1,2,1,2,3,0,0,0
57954488,0,0.0,0.0,0.95033497,0.5914869,-0.18028767,0.14816174,0.6470082,-0.25513867,0.07446929,-0.0176677,0.05564379,0.058683444,0.0009055792,-0.0012440314,-0.0001416259,-1.1943681,3.321617,1.5699097,3.0148768,0.0,0.24500555,-0.05564379,0.00546079,0.0037424173,0.026534555,0.017575642,inf,inf,inf,inf,1,1,1,1,2,1,2,3,0,0,0
58050500,0,0.0,0.0,0.9603428,0.5890502,-0.1737126,0.14816174,0.6470082,-0.25513867,0.11424795,-0.01721833,0.044529993,0.048299793,0.0009055792,-0.0012440314,-0.0001416259,5.6055975,2.9403944,-0.7923219,3.0203264,0.0,0.23843047,-0.044529993,0.005383971,0.0036921173,0.026355043,0.017457364,inf,inf,inf,inf,1,1,1,1,2,1,2,3,0,0,0
58154519,0,0.0,0.0,0.973414,0.5872056,-0.16823083,0.14816174,0.6470082,-0.25513867,0.099996924,0.007811898,0.050147343,0.05301448,0.0009055792,-0.0012440314,-0.0001416259,0.7464059,5.252463,2.406851,3.0263083,0.0,0.2329487,-0.050147343,0.005109603,0.0035131054,0.02571269,0.017065238,inf,inf,inf,inf,1,1,1,1,2,1,2,3,0,0,0
58258470,0,0.0,0.0,0.98734015,0.5863375,-0.16436154,0.14816174,0.6470082,-0.25513867,0.08800688,-0.006253478,0.03576638,0.03666374,0.0009055792,-0.0012440314,-0.0001416259,-4.9588447,-4.5279818,0.30717748,3.0339081,0.0,0.22907941,-0.03576638,0.005160187,0.003545501,0.025809128,0.017113477,inf,inf,inf,inf,1,1,1,1,2,1,2,3,0,0,0
58354480,0,0.0,0.0,0.9997477,0.5871554,-0.16316678,0.14816174,0.6470082,-0.25513867,0.087331206,0.009180337,0.02615783,0.024931783,0.0009055792,-0.0012440314,-0.0001416259,-3.255596,-0.31203458,2.4021695,3.03612,0.0,0.22788465,-0.02615783,0.0051254756,0.003521255,0.025766872,0.017078353,inf,inf,inf,inf,1,1,1,1,2,1,2,3,0,0,0
58458493,0,0.0,0.0,1.011458,0.58819675,-0.16429834,0.14816174,0.6470082,-0.25513867,0.091879666,0.01686698,0.0031062856,-0.00040901476,0.0009055792,-0.0012440314,-0.0001416259,1.4473253,-4.2535806,-0.2759549,3.0385847,0.0,0.22901621,-0.0031062856,0.005211409,0.0035761518,0.02599313,0.017197765,inf,inf,inf,inf,1,1,1,1,2,1,2,3,0,0,0
58562469,0,0.0,0.0,1.0207038,0.5908406,-0.16754289,0.14816174,0.6470082,-0.25513867,0.06322996,0.021885449,-0.0040346202,-0.00975426,0.0009055792,-0.0012440314,-0.0001416259,0.689197,-0.93677104,-3.7020862,3.0410838,0.0,0.23226076,0.0040346202,0.005268558,0.003612549,0.026135132,0.017278131,inf,inf,inf,inf,1,1,1,1,2,1,2,3,0,0,0
58666497,0,0.0,0.0,1.0274047,0.5944991,-0.17114848,0.14816174,0.6470082,-0.25513867,0.04014579,0.013427585,0.0017868979,-0.0058226986,0.0009055792,-0.0012440314,-0.0001416259,-1.2016041,-4.515229,-0.25063783,3.0429401,0.0,0.23586635,-0.0017868979,0.005236545,0.0035936427,0.025928937,0.017131766,inf,inf,inf,inf,1,1,1,1,2,1,2,3,0,0,0
58770469,0,0.0,0.0,1.0301218,0.59865016,-0.17318925,0.14816174,0.6470082,-0.25513867,0.0245048,0.033618085,0.020502854,0.01174819,0.0009055792,-0.0012440314,-0.0001416259,2.9992557,6.1385884,-0.3029027,3.0449977,0.0,0.23790713,-0.020502854,0.00525281,0.0036023455,0.0260375,0.017206633,inf,inf,inf,inf,1,1,1,1,2,1,2,3,0,0,0
58866470,0,0.0,0.0,1.029335,0.60170937,-0.17376322,0.14816174,0.6470082,-0.25513867,0.0014843915,0.021467693,0.022973804,0.014147276,0.0009055792,-0.0012440314,-0.0001416259,0.07851536,-3.4378493,-1.0472513,3.0410023,0.0,0.23848109,-0.022973804,0.005481339,0.0037499566,0.026571944,0.017529996,inf,inf,inf,inf,1,1,1,1,2,1,2,3,0,0,0
58970470,0,0.0,0.0,1.0251845,0.6044725,-0.1729252,0.14816174,0.6470082,-0.25513867,-0.030923747,0.02736451,0.017768597,0.0097811315,0.0009055792,-0.0012440314,-0.0001416259,-0.85968864,-0.03357905,-2.8926477,3.0351791,0.0,0.23764308,-0.017768597,0.0054747663,0.00374595,0.026570013,0.017534688,inf,inf,inf,inf,1,1,1,1,2,1,2,3,0,0,0
59074476,0,0.0,0.0,1.018168,0.605722,-0.17189875,0.14816174,0.6470082,-0.25513867,-0.06725286,0.008161688,0.011127355,0.004308878,0.0009055792,-0.0012440314,-0.0001416259,-0.8155262,0.8135779,2.4784636,3.0291457,0.0,0.23661663,-0.011127355,0.0055269185,0.0037787682,0.026758173,0.017646225,inf,inf,inf,inf,1,1,1,1,2,1,2,3,0,0,0
59170478,0,0.0,0.0,1.0106931,0.6048812,-0.17569529,0.14816174,0.6470082,-0.25513867,-0.049982205,0.0019231061,-0.06749486,-0.07364327,0.0009055792,-0.0012440314,-0.0001416259,0.41009253,0.18807022,-0.88850266,3.0209646,0.0,0.24041316,0.06749486,0.0054209735,0.003710266,0.026521146,0.017516013,inf,inf,inf,inf,1,1,1,1,2,1,2,3,0,0,0
59274470,0,0.0,0.0,1.0015241,0.60226464,-0.1883304,0.14816174,0.6470082,-0.25513867,-0.0637507,-0.013267258,-0.15271108,-0.15966038,0.0009055792,-0.0012440314,-0.0001416259,-0.2680047,-1.6746985,-1.6550068,3.0122437,0.0,0.25304827,0.15271108,0.0054987534,0.0037592365,0.026800409,0.017649803,inf,inf,inf,inf,1,1,1,1,2,1,2,3,0,0,0
59378504,0,0.0,0.0,0.9922082,0.5981351,-0.2112536,0.14816174,0.6470082,-0.25513867,-0.08277315,-0.023561606,-0.1999632,-0.21021333,0.0009055792,-0.0012440314,-0.0001416259,-6.7603345,0.02712093,3.1664486,3.0066824,0.0,0.27597147,0.1999632,0.005206052,0.003568595,0.026163658,0.017210975,inf,inf,inf,inf,1,1,1,1,2,1,2,3,0,0,0
59474470,0,0.0,0.0,0.9850198,0.5943168,-0.23842902,0.14816174,0.6470082,-0.25513867,-0.06014793,-0.016488498,-0.23123085,-0.24607098,0.0009055792,-0.0012440314,-0.0001416259,3.6931598,0.5026618,-1.5742999,3.00406,0.0,0.3031469,0.23123085,0.005140858,0.0035232068,0.026006632,0.017080164,inf,inf,inf,inf,1,1,1,1,2,1,2,3,0,0,0
59578470,0,0.0,0.0,0.97802126,0.5894141,-0.27000085,0.14816174,0.6470082,-0.25513867,-0.057651516,-0.028427051,-0.2374619,-0.25681683,0.0009055792,-0.0012440314,-0.0001416259,6.103595,0.19468048,-2.9087734,3.0020688,0.0,0.3347187,0.2374619,0.0051963134,0.0035562897,0.02607922,0.017123293,inf,inf,inf,inf,1,1,1,1,2,1,2,3,0,0,0
59682476,0,0.0,0.0,0.9720319,0.5852253,-0.30018046,0.14816174,0.6470082,-0.25513867,-0.05469079,-0.016486427,-0.21114221,-0.23252901,0.0009055792,-0.0012440314,-0.0001416259,6.272522,2.7723901,0.36912692,2.99775,0.0,0.36489832,0.21114221,0.0052634333,0.0035994286,0.026142726,0.017239967,inf,inf,inf,inf,1,1,1,1,2,1,2,3,0,0,0
59778470,0,0.0,0.0,0.96692103,0.58124197,-0.32375574,0.14816174,0.6470082,-0.25513867,-0.09271163,-0.03116159,-0.1919285,-0.21231616,0.0009055792,-0.0012440314,-0.0001416259,-9.774146,-1.3645291,0.48754355,2.995187,0.0,0.38847363,0.1919285,0.005189144,0.0035548715,0.02591111,0.017139362,inf,inf,inf,inf,1,1,1,1,2,1,2,3,0,0,0
59882470,0,0.0,0.0,0.9611667,0.57691467,-0.3428719,0.14816174,0.6470082,-0.25513867,-0.10187715,-0.02505757,-0.15029266,-0.1667854,0.0009055792,-0.0012440314,-0.0001416259,-7.7784505,5.456878,5.1161056,2.9911923,0.0,0.4075898,0.15029266,0.0052871164,0.003621372,0.026154665,0.017324131,inf,inf,inf,inf,1,1,1,1,2,1,2,3,0,0,0
59986476,0,0.0,0.0,0.9546286,0.5725489,-0.3548692,0.14816174,0.6470082,-0.25513867,-0.095366664,-0.03198957,-0.12137376,-0.13209838,0.0009055792,-0.0012440314,-0.0001416259,-2.1080241,-0.2840215,-1.5932875,2.9884937,0.0,0.41958708,0.12137376,0.005330812,0.0036542276,0.0261856,0.017368656,inf,inf,inf,inf,1,1,1,1,2,1,2,3,0,0,0
60090476,0,0.0,0.0,0.9470579,0.5688841,-0.35983214,0.14816174,0.6470082,-0.25513867,-0.09701518,-0.04254863,-0.08595037,-0.090176605,0.0009055792,-0.0012440314,-0.0001416259,-0.6054943,1.4140123,0.043051403,2.9849868,0.0,0.42455,0.08595037,0.0054123234,0.003708531,0.026423011,0.017508872,inf,inf,inf,inf,1,1,1,1,2,1,2,3,0,0,0
60194482,0,0.0,0.0,0.93840885,0.565318,-0.36073023,0.14816174,0.6470082,-0.25513867,-0.11186829,-0.035286464,-0.054428536,-0.052648187,0.0009055792,-0.0012440314,-0.0001416259,-6.1845694,3.0314746,2.2375805,2.978434,0.0,0.42544812,0.054428536,0.0050977073,0.0035061385,0.025579717,0.01700125,inf,inf,inf,inf,1,1,1,1,2,1,2,3,0,0,0
60297670,0,0.0,0.0,0.92863953,0.5614777,-0.35885468,0.14816174,0.6470082,-0.25513867,-0.107048124,-0.040489916,-0.055169072,-0.04894,0.0009055792,-0.0012440314,-0.0001416259,0.117125265,-2.2309163,-1.1295114,2.9736855,0.0,0.42357254,0.055169072,0.005174213,0.0035551933,0.025796397,0.01712707,inf,inf,inf,inf,1,1,1,1,2,1,2,3,0,0,0
60401712,0,0.0,0.0,0.9184329,0.5557809,-0.3579099,0.14816174,0.6470082,-0.25513867,-0.103492625,-0.050069973,-0.042289425,-0.03371199,0.0009055792,-0.0012440314,-0.0001416259,-2.30135,4.515835,-1.0234758,2.9692543,0.0,0.42262775,0.042289425,0.005238449,0.0035968348,0.025976894,0.017238075,inf,inf,inf,inf,1,1,1,1,2,1,2,3,0,0,0
60497674,0,0.0,0.0,0.90955704,0.5499056,-0.35873032,0.14816174,0.6470082,-0.25513867,-0.10316874,-0.048155285,-0.046173733,-0.037377864,0.0009055792,-0.0012440314,-0.0001416259,0.32680082,2.4153926,1.7169734,2.9664693,0.0,0.4234482,0.046173733,0.0051410953,0.003533872,0.025713518,0.017059641,inf,inf,inf,inf,1,1,1,1,2,1,2,3,0,0,0
60601670,0,0.0,0.0,0.900114,0.5429783,-0.36318982,0.14816174,0.6470082,-0.25513867,-0.09684813,-0.060454544,-0.059176516,-0.05198902,0.0009055792,-0.0012440314,-0.0001416259,-4.988908,0.9468731,1.0826902,2.966469,0.0,0.4279077,0.059176516,0.005211036,0.0035780587,0.025950558,0.017183531,inf,inf,inf,inf,1,1,1,1,2,1,2,3,0,0,0
60705711,0,0.0,0.0,0.89224154,0.5372812,-0.37132758,0.14816174,0.6470082,-0.25513867,-0.08680421,-0.060043827,-0.08103778,-0.076892786,0.0009055792,-0.0012440314,-0.0001416259,-3.468987,2.8606973,1.6703147,2.9647229,0.0,0.43604547,0.08103778,0.00531418,0.0036419292,0.026297996,0.017364053,inf,inf,inf,inf,1,1,1,1,2,1,2,3,0,0,0
60801669,0,0.0,0.0,0.88609403,0.5313216,-0.38249257,0.14816174,0.6470082,-0.25513867,-0.059921466,-0.052568674,-0.09771757,-0.09695579,0.0009055792,-0.0012440314,-0.0001416259,3.6667352,4.463423,-1.136318,2.9671056,0.0,0.44721043,0.09771757,0.0052453913,0.0035963797,0.026095979,0.017233934,inf,inf,inf,inf,1,1,1,1,2,1,2,3,0,0,0
60905670,0,0.0,0.0,0.8814711,0.5268626,-0.39725056,0.14816174,0.6470082,-0.25513867,-0.0529371,-0.054300424,-0.114130415,-0.11712806,0.0009055792,-0.0012440314,-0.0001416259,2.477542,-0.075123675,-0.5083118,2.9698517,0.0,0.46196842,0.114130415,0.005334244,0.0036523107,0.026353993,0.017386224,inf,inf,inf,inf,1,1,1,1,2,1,2,3,0,0,0
61009672,0,0.0,0.0,0.87883025,0.5225617,-0.41388398,0.14816174,0.6470082,-0.25513867,-0.037440322,-0.044073794,-0.116929844,-0.12316859,0.0009055792,-0.0012440314,-0.0001416259,4.7595506,3.5682013,-1.3825697,2.9746764,0.0,0.47860187,0.116929844,0.005425111,0.0037099645,0.026562897,0.01750475,inf,inf,inf,inf,1,1,1,1,2,1,2,3,0,0,0
61105670,0,0.0,0.0,0.87679565,0.52054393,-0.42895794,0.14816174,0.6470082,-0.25513867,-0.057275772,-0.00550811,-0.11574536,-0.124036916,0.0009055792,-0.0012440314,-0.0001416259,-5.3172483,4.2778544,0.77404976,2.9821188,0.0,0.49367583,0.11574536,0.005329374,0.0036490192,0.026288347,0.017357588,inf,inf,inf,inf,1,1,1,1,2,1,2,3,0,0,0
61209713,0,0.0,0.0,0.87522,0.52278733,-0.44449517,0.14816174,0.6470082,-0.25513867,-0.028040309,-0.0032886504,-0.1124432,-0.121721216,0.0009055792,-0.0012440314,-0.0001416259,3.213007,-1.3791285,-0.40313172,2.9878306,0.0,0.50921303,0.1124432,0.0053973612,0.00369374,0.026420228,0.017450038,inf,inf,inf,inf,1,1,1,1,2,1,2,3,0,0,0
61313670,0,0.0,0.0,0.87455505,0.52730304,-0.45901573,0.14816174,0.6470082,-0.25513867,-0.009454098,0.033420015,-0.11700123,-0.12606277,0.0009055792,-0.0012440314,-0.0001416259,5.7881045,2.0915275,-1.3943348,2.9924073,0.0,0.5237336,0.11700123,0.005081647,0.003490929,0.025578696,0.016960856,inf,inf,inf,inf,1,1,1,1,2,1,2,3,0,0,0
61409670,0,0.0,0.0,0.8742902,0.535148,-0.47132647,0.14816174,0.6470082,-0.25513867,-0.021745155,0.05114503,-0.10937318,-0.11774269,0.0009055792,-0.0012440314,-0.0001416259,-1.9876757,-4.0924053,0.65292937,2.994771,0.0,0.53604436,0.10937318,0.005058463,0.0034752358,0.025603369,0.016992439,inf,inf,inf,inf,1,1,1,1,2,1,2,3,0,0,0
61513670,0,0.0,0.0,0.8737117,0.5463473,-0.48364016,0.14816174,0.6470082,-0.25513867,-0.015877903,0.09479297,-0.10232513,-0.109741226,0.0009055792,-0.0012440314,-0.0001416259,-1.6672349,3.5992787,0.3597512,2.9962993,0.0,0.548358,0.10232513,0.0051189708,0.003516202,0.02569272,0.01704152,inf,inf,inf,inf,1,1,1,1,2,1,2,3,0,0,0
61617670,0,0.0,0.0,0.8732211,0.5613163,-0.49436504,0.14816174,0.6470082,-0.25513867,-0.011497084,0.1336894,-0.09366475,-0.10003567,0.0009055792,-0.0012440314,-0.0001416259,-0.004793608,1.7135164,2.36279,2.9990137,0.0,0.5590829,0.09366475,0.005187441,0.0035610327,0.025850551,0.017131064,inf,inf,inf,inf,1,1,1,1,2,1,2,3,0,0,0
61713695,0,0.0,0.0,0.8725325,0.57770777,-0.50404733,0.14816174,0.6470082,-0.25513867,-0.01092947,0.14218894,-0.09864088,-0.10404286,0.0009055792,-0.0012440314,-0.0001416259,-1.654122,2.659066,-0.09125884,2.9997995,0.0,0.5687652,0.09864088,0.0054709516,0.0037442849,0.026553648,0.017546332,inf,inf,inf,inf,1,1,1,1,2,1,2,3,0,0,0
61817669,0,0.0,0.0,0.8719315,0.59716165,-0.51422775,0.14816174,0.6470082,-0.25513867,-0.022768531,0.16530348,-0.10019365,-0.10468354,0.0009055792,-0.0012440314,-0.0001416259,-3.1964223,1.0999086,0.10479426,2.9989398,0.0,0.57894564,0.10019365,0.005117266,0.0035171735,0.025621762,0.016998036,inf,inf,inf,inf,1,1,1,1,2,1,2,3,0,0,0
61921670,0,0.0,0.0,0.87057775,0.6169138,-0.52516806,0.14816174,0.6470082,-0.25513867,-0.009124112,0.14762522,-0.106811,-0.11085727,0.0009055792,-0.0012440314,-0.0001416259,2.952133,-2.069516,1.3669466,2.9959772,0.0,0.58988595,0.106811,0.005195775,0.0035668241,0.025896898,0.017162234,inf,inf,inf,inf,1,1,1,1,2,1,2,3,0,0,0
62025692,0,0.0,0.0,0.86934316,0.63597083,-0.5358191,0.14816174,0.6470082,-0.25513867,-0.0021111735,0.15804817,-0.08559494,-0.08974219,0.0009055792,-0.0012440314,-0.0001416259,1.0527261,4.7687874,1.9514909,2.9910016,0.0,0.600537,0.08559494,0.0052855974,0.0036239473,0.02615563,0.017300371,inf,inf,inf,inf,1,1,1,1,2,1,2,3,0,0,0
62129669,0,0.0,0.0,0.8669474,0.65266335,-0.54500264,0.14816174,0.6470082,-0.25513867,-0.016843455,0.13959196,-0.070568405,-0.07500993,0.0009055792,-0.0012440314,-0.0001416259,0.30002216,0.6576659,2.0921838,2.988298,0.0,0.6097205,0.070568405,0.0053598657,0.0036718284,0.026314758,0.01740319,inf,inf,inf,inf,1,1,1,1,2,1,2,3,0,0,0
62225680,0,0.0,0.0,0.8635784,0.66488177,-0.5523346,0.14816174,0.6470082,-0.25513867,-0.021976715,0.117865235,-0.071247615,-0.07560455,0.0009055792,-0.0012440314,-0.0001416259,3.0411239,1.44505,-0.08597452,2.9887936,0.0,0.6170525,0.071247615,0.005309932,0.0036395807,0.026201058,0.017350405,inf,inf,inf,inf,1,1,1,1,2,1,2,3,0,0,0
62328876,0,0.0,0.0,0.8582392,0.6755989,-0.55964893,0.14816174,0.6470082,-0.25513867,-0.03411802,0.11244529,-0.06768753,-0.07156284,0.0009055792,-0.0012440314,-0.0001416259,-0.022285463,0.58115727,1.3967371,2.9911287,0.0,0.6243668,0.06768753,0.0053908564,0.0036927643,0.02638478,0.017469121,inf,inf,inf,inf,1,1,1,1,2,1,2,3,0,0,0
62432870,0,0.0,0.0,0.8508426,0.6817676,-0.5660162,0.14816174,0.6470082,-0.25513867,-0.05805988,0.059320983,-0.050315917,-0.053698435,0.0009055792,-0.0012440314,-0.0001416259,-3.1730833,-0.4432987,1.4822212,2.9993207,0.0,0.6307341,0.050315917,0.0054256655,0.00371688,0.026428854,0.01747693,inf,inf,inf,inf,1,1,1,1,2,1,2,3,0,0,0
62528869,0,0.0,0.0,0.8429263,0.68335515,-0.5711691,0.14816174,0.6470082,-0.25513867,-0.056644604,0.05116003,-0.040741593,-0.043899786,0.0009055792,-0.0012440314,-0.0001416259,2.105839,-1.0467037,1.8981227,3.0102687,0.0,0.63588697,0.040741593,0.005327645,0.0036521093,0.026203115,0.017339218,inf,inf,inf,inf,1,1,1,1,2,1,2,3,0,0,0
62632876,0,0.0,0.0,0.8339174,0.68220323,-0.57534647,0.14816174,0.6470082,-0.25513867,-0.0482918,0.027653806,-0.037719496,-0.04084764,0.0009055792,-0.0012440314,-0.0001416259,1.8405465,-2.6168337,-0.53986466,3.0223386,0.0,0.64006436,0.037719496,0.0050621065,0.0034805737,0.025555836,0.0169666,inf,inf,inf,inf,1,1,1,1,2,1,2,3,0,0,0
62736868,0,0.0,0.0,0.8258483,0.6784288,-0.57782984,0.14816174,0.6470082,-0.25513867,-0.036405917,0.0069930023,-0.007974721,-0.01117462,0.0009055792,-0.0012440314,-0.0001416259,2.627905,-1.3071707,-2.0227404,3.0320697,0.0,0.6425477,0.007974721,0.005133075,0.0035267498,0.02573249,0.017074814,inf,inf,inf,inf,1,1,1,1,2,1,2,3,0,0,0
62840869,0,0.0,0.0,0.8192876,0.67396957,-0.57738894,0.14816174,0.6470082,-0.25513867,-0.028269036,-0.002041752,0.018176898,0.0150212655,0.0009055792,-0.0012440314,-0.0001416259,1.6538452,-5.285661,-0.5015994,3.0400004,0.0,0.64210683,-0.018176898,0.005229724,0.0035885843,0.026019922,0.017240824,inf,inf,inf,inf,1,1,1,1,2,1,2,3,0,0,0
62936877,0,0.0,0.0,0.81501704,0.66978204,-0.57427084,0.14816174,0.6470082,-0.25513867,-0.03542856,-0.019370854,0.0393078,0.036544953,0.0009055792,-0.0012440314,-0.0001416259,-5.52934,-1.9605695,0.7462598,3.0449076,0.0,0.63898873,-0.0393078,0.005172277,0.003552125,0.025844462,0.017141681,inf,inf,inf,inf,1,1,1,1,2,1,2,3,0,0,0
63040901,0,0.0,0.0,0.81258845,0.66544825,-0.5689062,0.14816174,0.6470082,-0.25513867,-0.022335649,-0.006175795,0.056599725,0.05455599,0.0009055792,-0.0012440314,-0.0001416259,-6.599648,1.3532807,0.97189873,3.047916,0.0,0.6336241,-0.056599725,0.005245194,0.0035994386,0.026020478,0.017233435,inf,inf,inf,inf,1,1,1,1,2,1,2,3,0,0,0
63144870,0,0.0,0.0,0.8134423,0.66201395,-0.5622905,0.14816174,0.6470082,-0.25513867,0.006948038,-0.017108947,0.056545682,0.055163693,0.0009055792,-0.0012440314,-0.0001416259,-4.8991137,3.2877965,-1.9264137,3.0434346,0.0,0.6270084,-0.056545682,0.00530835,0.0036401222,0.026182434,0.017326497,inf,inf,inf,inf,1,1,1,1,2,1,2,3,0,0,0
63240893,0,0.0,0.0,0.8168886,0.6591926,-0.5566927,0.14816174,0.6470082,-0.25513867,0.024836138,-0.019053036,0.047934633,0.04666295,0.0009055792,-0.0012440314,-0.0001416259,-2.3168695,0.6738722,0.787515,3.0356386,0.0,0.6214106,-0.047934633,0.0052248864,0.003584941,0.026011407,0.017190913,inf,inf,inf,inf,1,1,1,1,2,1,2,3,0,0,0
63344870,0,0.0,0.0,0.8233701,0.6575358,-0.5544003,0.14816174,0.6470082,-0.25513867,0.03954585,-0.02480105,0.008545696,0.0065458636,0.0009055792,-0.0012440314,-0.0001416259,1.262284,3.7466795,-2.5103097,3.026457,0.0,0.6191182,-0.008545696,0.0052804425,0.0036200886,0.026135074,0.017263662,inf,inf,inf,inf,1,1,1,1,2,1,2,3,0,0,0
63448899,0,0.0,0.0,0.83126277,0.65501785,-0.55775654,0.14816174,0.6470082,-0.25513867,0.05030812,-0.058630798,-0.03307344,-0.037237916,0.0009055792,-0.0012440314,-0.0001416259,-0.535897,-2.51536,0.82289606,3.0185242,0.0,0.62247443,0.03307344,0.005341587,0.003657333,0.026348388,0.017353315,inf,inf,inf,inf,1,1,1,1,2,1,2,3,0,0,0
63544911,0,0.0,0.0,0.83867764,0.65011585,-0.56586826,0.14816174,0.6470082,-0.25513867,0.057013676,-0.07810458,-0.06368681,-0.07112073,0.0009055792,-0.0012440314,-0.0001416259,2.24151,-0.8141928,-0.9099458,3.0121043,0.0,0.63058615,0.06368681,0.00525943,0.0036022519,0.026198499,0.01725213,inf,inf,inf,inf,1,1,1,1,2,1,2,3,0,0,0
63648870,0,0.0,0.0,0.84542894,0.6413004,-0.5792198,0.14816174,0.6470082,-0.25513867,0.0275257,-0.11925169,-0.083562,-0.09517986,0.0009055792,-0.0012440314,-0.0001416259,-3.986365,-0.16333006,1.8371401,3.006552,0.0,0.6439377,0.083562,0.00535484,0.003661559,0.02645255,0.01742027,inf,inf,inf,inf,1,1,1,1,2,1,2,3,0,0,0
63752868,0,0.0,0.0,0.8493897,0.62788826,-0.5966763,0.14816174,0.6470082,-0.25513867,0.019069115,-0.1440837,-0.13111703,-0.14649794,0.0009055792,-0.0012440314,-0.0001416259,-1.5652704,-0.5404932,-3.3330584,3.004455,0.0,0.6613942,0.13111703,0.005472754,0.0037356312,0.026776392,0.017602157,inf,inf,inf,inf,1,1,1,1,2,1,2,3,0,0,0
63848883,0,0.0,0.0,0.85060865,0.6115501,-0.6160209,0.14816174,0.6470082,-0.25513867,0.0061877966,-0.1885458,-0.14783306,-0.16568322,0.0009055792,-0.0012440314,-0.0001416259,-4.122447,-0.03166115,1.4548517,3.0039968,0.0,0.6807388,0.14783306,0.005369143,0.0036714457,0.026419338,0.01740118,inf,inf,inf,inf,1,1,1,1,2,1,2,3,0,0,0
63952899,0,0.0,0.0,0.8494516,0.588455,-0.63853264,0.14816174,0.6470082,-0.25513867,-0.0074456423,-0.22082795,-0.16522811,-0.18464349,0.0009055792,-0.0012440314,-0.0001416259,-1.4944521,-1.0136827,-0.61878973,3.0013762,0.0,0.7032505,0.16522811,0.0050655813,0.0034769604,0.025645671,0.016962944,inf,inf,inf,inf,1,1,1,1,2,1,2,3,0,0,0
64056872,0,0.0,0.0,0.846169,0.5615545,-0.6607981,0.14816174,0.6470082,-0.25513867,-0.028248591,-0.23819554,-0.16717048,-0.18705067,0.0009055792,-0.0012440314,-0.0001416259,-0.6595219,-4.2805586,0.2517539,2.9978485,0.0,0.72551596,0.16717048,0.005169113,0.0035438119,0.025939045,0.017158354,inf,inf,inf,inf,1,1,1,1,2,1,2,3,0,0,0
64160876,0,0.0,0.0,0.84067667,0.53275067,-0.6810018,0.14816174,0.6470082,-0.25513867,-0.05048693,-0.27261153,-0.14418235,-0.1630898,0.0009055792,-0.0012440314,-0.0001416259,-3.162893,-3.6997519,2.7855573,2.9893773,0.0,0.7457197,0.14418235,0.0052352464,0.00358829,0.026038496,0.017217845,inf,inf,inf,inf,1,1,1,1,2,1,2,3,0,0,0
64264904,0,0.0,0.0,0.8332519,0.5020831,-0.6978885,0.14816174,0.6470082,-0.25513867,-0.055940602,-0.26224157,-0.14243457,-0.15899137,0.0009055792,-0.0012440314,-0.0001416259,-1.0526018,2.9021926,-0.6249846,2.9780297,0.0,0.7626064,0.14243457,0.005291954,0.003626261,0.026126985,0.017280774,inf,inf,inf,inf,1,1,1,1,2,1,2,3,0,0,0
64360873,0,0.0,0.0,0.8253428,0.4740885,-0.71038157,0.14816174,0.6470082,-0.25513867,-0.06532325,-0.25522158,-0.12858728,-0.14192188,0.0009055792,-0.0012440314,-0.0001416259,-2.127887,1.4285399,1.5723951,2.9693305,0.0,0.77509946,0.12858728,0.005213887,0.0035774386,0.025924882,0.017190885,inf,inf,inf,inf,1,1,1,1,2,1,2,3,0,0,0
64464876,0,0.0,0.0,0.8165046,0.4440006,-0.7210907,0.14816174,0.6470082,-0.25513867,-0.077061124,-0.25605246,-0.11489678,-0.124310695,0.0009055792,-0.0012440314,-0.0001416259,-4.467761,3.3784676,-0.6365327,2.9627953,0.0,0.78580856,0.11489678,0.00527829,0.00362093,0.026089752,0.01729695,inf,inf,inf,inf,1,1,1,1,2,1,2,3,0,0,0
64564870,0,0.0,0.0,0.80832046,0.4173478,-0.7276458,0.14816174,0.6470082,-0.25513867,-0.06566736,-0.24756123,-0.07852288,-0.08448053,0.0009055792,-0.0012440314,-0.0001416259,2.6575816,1.7253821,0.27763295,2.9588552,0.0,0.7923637,0.07852288,0.005233809,0.0035912837,0.026038354,0.017253352,inf,inf,inf,inf,1,1,1,1,2,1,2,3,0,0,0
64668089,0,0.0,0.0,0.80053896,0.39291814,-0.73093086,0.14816174,0.6470082,-0.25513867,-0.06936783,-0.25686386,-0.05201978,-0.05468825,0.0009055792,-0.0012440314,-0.0001416259,3.4830067,-3.2181592,1.5593293,2.9564254,0.0,0.79564875,0.05201978,0.0053513567,0.0036677707,0.026344344,0.017446484,inf,inf,inf,inf,1,1,1,1,2,1,2,3,0,0,0
64772078,0,0.0,0.0,0.79356617,0.3715765,-0.73223156,0.14816174,0.6470082,-0.25513867,-0.061565015,-0.22004235,-0.043640606,-0.043228,0.0009055792,-0.0012440314,-0.0001416259,4.4644065,-1.7590709,-0.6318917,2.9562082,0.0,0.79694945,0.043640606,0.0054316693,0.0037225008,0.026553372,0.017595246,inf,inf,inf,inf,1,1,1,1,2,1,2,3,0,0,0
64868076,0,0.0,0.0,0.78816193,0.35629535,-0.7326232,0.14816174,0.6470082,-0.25513867,-0.06319134,-0.19282874,-0.035523556,-0.032931,0.0009055792,-0.0012440314,-0.0001416259,-1.5490441,-5.360643,1.5839479,2.9575531,0.0,0.7973411,0.035523556,0.0053351955,0.003660076,0.02631848,0.017444747,inf,inf,inf,inf,1,1,1,1,2,1,2,3,0,0,0
64972087,0,0.0,0.0,0.7837651,0.34443715,-0.7331299,0.14816174,0.6470082,-0.25513867,-0.04176434,-0.14945762,-0.03406214,-0.030373689,0.0009055792,-0.0012440314,-0.0001416259,4.5679736,-4.5968933,-2.3068929,2.9571283,0.0,0.7978478,0.03406214,0.0054225777,0.0037152965,0.026554843,0.017569255,inf,inf,inf,inf,1,1,1,1,2,1,2,3,0,0,0
