timestamp,x,y,z,yaw,yawspeed,vx,vy,vz,acc_x,acc_y,acc_z,jerk_x,jerk_y,jerk_z,thrust[0],thrust[1],thrust[2]
51576523,nan,nan,nan,3.0243998,0.0,nan,nan,-0.18638001,0.0,0.0,0.0,0.0,0.0,0.0,-0.03207317,-0.00991281,-0.5304556
51596596,nan,nan,nan,3.0243998,0.0,nan,nan,-0.38671002,0.0,0.0,0.0,0.0,0.0,0.0,-0.034755167,-0.010726624,-0.57444346
51696648,nan,nan,nan,3.0243998,0.0,nan,nan,-0.42971858,0.0,0.0,0.0,0.0,0.0,0.0,-0.02893101,-0.0119552715,-0.5955331
51797127,nan,nan,nan,3.0243998,0.0,nan,nan,-0.42971858,0.0,0.0,0.0,0.0,0.0,0.0,-0.022759385,-0.003940752,-0.6055133
51897348,nan,nan,nan,3.0243998,0.0,nan,nan,-0.42971897,0.0,0.0,0.0,0.0,0.0,0.0,-0.014245417,0.0015913941,-0.6055654
51997333,nan,nan,nan,3.0243998,0.0,nan,nan,-0.42971897,0.0,0.0,0.0,0.0,0.0,0.0,-0.01681569,0.0019830859,-0.61116856
52097394,nan,nan,nan,3.0243998,0.0,nan,nan,-0.42971897,0.0,0.0,0.0,0.0,0.0,0.0,-0.025274143,0.002975659,-0.6127042
52197382,nan,nan,nan,3.0243998,0.0,nan,nan,-0.42971897,0.0,0.0,0.0,0.0,0.0,0.0,-0.025897134,0.003048931,-0.61035347
52297447,nan,nan,nan,3.0012016,0.0,0.0321683,-0.035908796,-0.18782999,0.0,0.0,0.0,0.0,0.0,0.0,-0.00727057,0.0055733346,-0.56104493
52397454,0.96788955,0.41841412,nan,3.0012016,0.0,-0.0035434992,0.0006272286,-0.42971897,0.0,0.0,0.0,0.0,0.0,0.0,-0.008348758,0.0017542031,-0.6081868
52499010,0.96788955,0.41841412,nan,3.0012016,0.0,-0.011215767,-0.0001034528,-0.42971858,0.0,0.0,0.0,0.0,0.0,0.0,-0.013843194,0.003939843,-0.6039716
52618959,0.96788955,0.41841412,nan,3.0012016,0.0,-0.02406413,-0.0035365627,-0.42971897,0.0,0.0,0.0,0.0,0.0,0.0,-0.01848499,0.006866527,-0.5983956
52717992,0.96788955,0.41841412,nan,3.0012016,0.0,-0.03623011,-0.0075867367,-0.42971897,0.0,0.0,0.0,0.0,0.0,0.0,-0.020694852,-0.0040273126,-0.59712946
52818914,0.96788955,0.41841412,nan,3.0012016,0.0,-0.050977938,-0.012552358,-0.42971897,0.0,0.0,0.0,0.0,0.0,0.0,-0.023899054,0.005831025,-0.5912734
52917953,0.96788955,0.41841412,nan,3.0012016,0.0,-0.06575419,-0.01642207,-0.42971897,0.0,0.0,0.0,0.0,0.0,0.0,-0.022530634,0.0015177862,-0.59221965
53019477,nan,nan,nan,3.0012016,0.0,-0.23042122,0.03256329,-0.42971897,0.0,0.0,0.0,0.0,0.0,0.0,-0.035968717,0.008477185,-0.59375674
53118158,nan,nan,nan,3.0012016,0.0,-0.36762482,0.051953003,-0.42971858,0.0,0.0,0.0,0.0,0.0,0.0,-0.044806924,0.005155375,-0.59762603
53219534,nan,nan,nan,3.0012016,0.0,-0.35686785,0.050432816,-0.42971858,0.0,0.0,0.0,0.0,0.0,0.0,-0.04007488,0.0044521373,-0.59780353
53318499,nan,nan,nan,3.0012016,0.0,-0.34901595,0.049323186,-0.42971897,0.0,0.0,0.0,0.0,0.0,0.0,-0.03809408,0.005815777,-0.59662366
53418641,nan,nan,nan,3.0012016,0.0,-0.34883708,0.049297903,-0.42971897,0.0,0.0,0.0,0.0,0.0,0.0,-0.030464327,0.004312616,-0.59793144
53518728,nan,nan,nan,3.0012016,0.0,-0.28708124,0.040570527,-0.42971897,0.0,0.0,0.0,0.0,0.0,0.0,-0.026911814,0.0015321479,-0.594889
53618735,nan,nan,nan,3.0012016,0.0,-0.21009985,0.02969146,-0.42971897,0.0,0.0,0.0,0.0,0.0,0.0,-0.016953837,-0.001712526,-0.5979996
53718790,nan,nan,nan,3.0012016,0.0,-0.13040353,0.01842872,-0.42971897,0.0,0.0,0.0,0.0,0.0,0.0,-0.012290664,-0.0038826899,-0.59707355
53818823,nan,nan,nan,3.0012016,0.0,-0.044783432,0.0063288263,-0.42971897,0.0,0.0,0.0,0.0,0.0,0.0,-0.004021935,-0.0039112605,-0.5989856
53918968,1.0316914,0.45675686,nan,3.0012016,0.0,0.0053781867,-0.0045670136,-0.42971858,0.0,0.0,0.0,0.0,0.0,0.0,-0.0011487287,-0.011748028,-0.60136676
54019026,1.0316914,0.45675686,nan,3.0012016,0.0,0.012446046,-0.013680712,-0.42971858,0.0,0.0,0.0,0.0,0.0,0.0,-0.007677352,-0.0065553,-0.60366774
54139307,nan,nan,nan,3.0012016,0.0,-0.17045502,0.024088826,-0.42971897,0.0,0.0,0.0,0.0,0.0,0.0,-0.022793716,-0.006979966,-0.6098072
54239501,nan,nan,nan,3.0012016,0.0,-0.37722483,0.053309683,-0.42971897,0.0,0.0,0.0,0.0,0.0,0.0,-0.03909911,-0.0034711366,-0.6150252
54339552,nan,nan,nan,3.0012016,0.0,-0.3755907,0.05307875,-0.42971897,0.0,0.0,0.0,0.0,0.0,0.0,-0.042782485,0.00054100086,-0.61554956
54439523,nan,nan,nan,3.0012016,0.0,-0.43251148,0.06112283,-0.42971897,0.0,0.0,0.0,0.0,0.0,0.0,-0.051628068,-0.0013355121,-0.6126253
54539598,nan,nan,nan,3.0012016,0.0,-0.5415282,0.07652916,-0.42971858,0.0,0.0,0.0,0.0,0.0,0.0,-0.058587357,-0.001102339,-0.6100918
54639690,nan,nan,nan,3.0012016,0.0,-0.536314,0.075792275,-0.42971858,0.0,0.0,0.0,0.0,0.0,0.0,-0.05094332,-0.00098358,-0.61166006
54739806,nan,nan,nan,3.0012016,0.0,-0.53666645,0.07584208,-0.42971897,0.0,0.0,0.0,0.0,0.0,0.0,-0.056076847,-0.0027054497,-0.611581
54839841,nan,nan,nan,3.0012016,0.0,-0.5646616,0.079798386,-0.42971897,0.0,0.0,0.0,0.0,0.0,0.0,-0.04647282,0.001653184,-0.60828465
54940637,nan,nan,nan,3.0012016,0.0,-0.675038,0.09539685,-0.42971897,0.0,0.0,0.0,0.0,0.0,0.0,-0.05616012,0.0020223726,-0.6060804
55040798,nan,nan,nan,3.0012016,0.0,-0.6706857,0.094781786,-0.42971897,0.0,0.0,0.0,0.0,0.0,0.0,-0.053521365,0.0017452962,-0.6055954
55140575,nan,nan,nan,3.0012016,0.0,-0.6708376,0.094803244,-0.42971897,0.0,0.0,0.0,0.0,0.0,0.0,-0.051706914,-0.003584438,-0.60583186
55240593,nan,nan,nan,3.0012016,0.0,-0.6597547,0.093237005,-0.42971897,0.0,0.0,0.0,0.0,0.0,0.0,-0.042097807,-0.005357126,-0.60831153
55360568,nan,nan,nan,3.0012016,0.0,-0.3620522,0.051165476,-0.42971897,0.0,0.0,0.0,0.0,0.0,0.0,-0.016276624,-0.0076098675,-0.6070588
55460592,0.8341114,0.6095279,nan,3.0012016,0.0,0.0,0.0,-0.42971897,0.0,0.0,0.0,0.0,0.0,0.0,0.00751183,-0.016290667,-0.61052746
55560623,0.8341114,0.6095279,nan,3.0012016,0.0,0.034010038,-0.015352463,-0.42971897,0.0,0.0,0.0,0.0,0.0,0.0,0.01933743,-0.013680486,-0.61644596
55660939,0.8341114,0.6095279,nan,3.0012016,0.0,0.066619806,-0.030750057,-0.42971897,0.0,0.0,0.0,0.0,0.0,0.0,0.017931828,-0.0065785144,-0.62230504
55760803,0.8341114,0.6095279,nan,3.0012016,0.0,0.09279104,-0.042598996,-0.42971897,0.0,0.0,0.0,0.0,0.0,0.0,0.003796528,-0.01693041,-0.62827927
55861386,0.8341114,0.6095279,nan,3.0012016,0.0,0.112441584,-0.052739695,-0.42971858,0.0,0.0,0.0,0.0,0.0,0.0,0.0035712142,-0.009850262,-0.6316426
55961098,0.8341114,0.6095279,nan,3.0012016,0.0,0.12206904,-0.05787196,-0.42971858,0.0,0.0,0.0,0.0,0.0,0.0,-0.0029245773,-0.0085301865,-0.6297457
56061432,0.8341114,0.6095279,nan,3.0012016,0.0,0.12195375,-0.058982704,-0.42971897,0.0,0.0,0.0,0.0,0.0,0.0,-0.01030483,-0.0020611202,-0.6280222
56161325,0.8341114,0.6095279,nan,3.0012016,0.0,0.11211979,-0.056073118,-0.42971897,0.0,0.0,0.0,0.0,0.0,0.0,-0.013651206,-0.005082225,-0.6280329
56261312,0.8341114,0.6095279,nan,3.0012016,0.0,0.09242106,-0.048477292,-0.42971897,0.0,0.0,0.0,0.0,0.0,0.0,-0.023505632,-0.0028809397,-0.6276023
56361434,0.8341114,0.6095279,nan,3.0012016,0.0,0.06789646,-0.039863247,-0.42971897,0.0,0.0,0.0,0.0,0.0,0.0,-0.020989366,0.0016452521,-0.62741053
56461569,0.8341114,0.6095279,nan,3.0012016,0.0,0.038043845,-0.028898608,-0.42971897,0.0,0.0,0.0,0.0,0.0,0.0,-0.022992512,0.002639369,-0.62663877
56561843,0.8341114,0.6095279,nan,3.0012016,0.0,0.00991165,-0.018952588,-0.42971897,0.0,0.0,0.0,0.0,0.0,0.0,-0.038401403,0.0026934505,-0.62629944
56681926,0.8341114,0.6095279,nan,3.0012016,0.0,-0.023272067,-0.0071071563,-0.42971897,0.0,0.0,0.0,0.0,0.0,0.0,-0.035991833,0.0071359016,-0.6241955
56781989,0.8341114,0.6095279,nan,3.0012016,0.0,-0.047698252,0.00138928,-0.42971897,0.0,0.0,0.0,0.0,0.0,0.0,-0.036671884,0.0069130673,-0.6238549
56882006,0.8341114,0.6095279,nan,3.0012016,0.0,-0.065320395,0.0069482117,-0.42971897,0.0,0.0,0.0,0.0,0.0,0.0,-0.034265786,0.0016714743,-0.6239096
56982103,0.8341114,0.6095279,nan,3.0012016,0.0,-0.078773506,0.010266572,-0.42971897,0.0,0.0,0.0,0.0,0.0,0.0,-0.033375245,-0.00059449574,-0.61998105
57082232,0.8341114,0.6095279,nan,3.0012016,0.0,-0.08647844,0.01182363,-0.42971897,0.0,0.0,0.0,0.0,0.0,0.0,-0.028815567,0.0061990917,-0.62188244
57182153,0.8341114,0.6095279,nan,3.0012016,0.0,-0.09106593,0.011666951,-0.42971897,0.0,0.0,0.0,0.0,0.0,0.0,-0.027195577,-0.0047092536,-0.62230706
57282510,0.8341114,0.6095279,nan,3.0012016,0.0,-0.09223222,0.010857901,-0.42971897,0.0,0.0,0.0,0.0,0.0,0.0,-0.03071132,0.0011108948,-0.6251124
57382539,0.8341114,0.6095279,nan,3.0012016,0.0,-0.09192815,0.009484759,-0.42971858,0.0,0.0,0.0,0.0,0.0,0.0,-0.034762487,0.004684759,-0.6260328
57482685,0.8341114,0.6095279,nan,3.0012016,0.0,-0.091676675,0.008700794,-0.42971858,0.0,0.0,0.0,0.0,0.0,0.0,-0.031783786,0.0014381923,-0.6301661
57582698,0.8341114,0.6095279,nan,3.0012016,0.0,-0.091978766,0.009219644,-0.42971897,0.0,0.0,0.0,0.0,0.0,0.0,-0.031397562,0.0018873636,-0.6364207
57682787,0.8341114,0.6095279,nan,3.0012016,0.0,-0.09417744,0.010004458,-0.42971897,0.0,0.0,0.0,0.0,0.0,0.0,-0.037818313,0.0074539995,-0.64340264
57782839,0.8341114,0.6095279,nan,3.0012016,0.0,-0.09865887,0.012438458,-0.42971897,0.0,0.0,0.0,0.0,0.0,0.0,-0.03545683,0.0065181674,-0.649445
57903004,0.8341114,0.6095279,nan,3.0012016,0.0,-0.10603731,0.015664691,-0.42971858,0.0,0.0,0.0,0.0,0.0,0.0,-0.036792293,0.0039935093,-0.65135556
58003051,0.8341114,0.6095279,nan,3.0012016,0.0,-0.11419321,0.01809903,-0.42971858,0.0,0.0,0.0,0.0,0.0,0.0,-0.03775672,0.002750773,-0.65053594
58103388,0.8341114,0.6095279,nan,3.0012016,0.0,-0.12545495,0.020492544,-0.42971897,0.0,0.0,0.0,0.0,0.0,0.0,-0.040038962,-0.0016018215,-0.65176845
58204931,0.8341114,0.6095279,nan,3.0012016,0.0,-0.13848746,0.021636868,-0.42971897,0.0,0.0,0.0,0.0,0.0,0.0,-0.041045636,0.002066015,-0.65237546
58303528,0.8341114,0.6095279,nan,3.0012016,0.0,-0.15052173,0.021828994,-0.42971897,0.0,0.0,0.0,0.0,0.0,0.0,-0.044447847,-0.0060194745,-0.6493673
58403858,0.8341114,0.6095279,nan,3.0012016,0.0,-0.16262072,0.02097255,-0.42971897,0.0,0.0,0.0,0.0,0.0,0.0,-0.039828714,0.0063302987,-0.6484281
58503850,0.8341114,0.6095279,nan,3.0012016,0.0,-0.17227745,0.01939018,-0.42971897,0.0,0.0,0.0,0.0,0.0,0.0,-0.039380595,-0.0062277876,-0.64468277
58604734,0.8341114,0.6095279,nan,3.0012016,0.0,-0.17996784,0.016668584,-0.43530953,0.0,0.0,0.0,0.0,0.0,0.0,-0.040923014,-0.0021367709,-0.64634573
58703685,0.8341114,0.6095279,nan,3.0012016,0.0,-0.18491545,0.012983638,-0.43768975,0.0,0.0,0.0,0.0,0.0,0.0,-0.039117094,0.00148403,-0.64787674
58804385,0.8341114,0.6095279,nan,3.0012016,0.0,-0.18623854,0.0092925755,-0.44334185,0.0,0.0,0.0,0.0,0.0,0.0,-0.04001947,-0.0038987324,-0.65259635
58903961,0.8341114,0.6095279,nan,3.0012016,0.0,-0.18458477,0.006633437,-0.44572997,0.0,0.0,0.0,0.0,0.0,0.0,-0.040300906,-0.00042942326,-0.6562529
59004116,0.8341114,0.6095279,nan,3.0012016,0.0,-0.17972708,0.0042590615,-0.5888523,0.0,0.0,0.0,0.0,0.0,0.0,-0.034678947,0.0005904265,-0.6839219
59124374,0.8341114,0.6095279,nan,3.0012016,0.0,-0.17141654,0.0038051605,-0.7587538,0.0,0.0,0.0,0.0,0.0,0.0,-0.03625128,0.00061312964,-0.70832527
59224403,0.8341114,0.6095279,nan,3.0012016,0.0,-0.1637326,0.0053289235,-0.7590228,0.0,0.0,0.0,0.0,0.0,0.0,-0.031396568,0.0039928895,-0.6976677
59325025,0.8341114,0.6095279,nan,3.0012016,0.0,-0.15485191,0.008511102,-0.7478552,0.0,0.0,0.0,0.0,0.0,0.0,-0.024888381,0.004546282,-0.67978746
59424539,0.8341114,0.6095279,nan,3.0012016,0.0,-0.14721203,0.012445989,-0.72857827,0.0,0.0,0.0,0.0,0.0,0.0,-0.036245417,0.0031278916,-0.66694945
59525795,0.8341114,0.6095279,nan,3.0012016,0.0,-0.14019984,0.01646638,-0.70201445,0.0,0.0,0.0,0.0,0.0,0.0,-0.034379955,0.004347772,-0.660514
59624605,0.8341114,0.6095279,nan,3.0012016,0.0,-0.1344559,0.020728668,-0.7027949,0.0,0.0,0.0,0.0,0.0,0.0,-0.027154934,0.0039079725,-0.66407657
59725045,0.8341114,0.6095279,nan,3.0012016,0.0,-0.12898242,0.024628902,-0.7028112,0.0,0.0,0.0,0.0,0.0,0.0,-0.02475563,0.008261737,-0.66684693
59825142,0.8341114,0.6095279,nan,3.0012016,0.0,-0.12412603,0.028375342,-0.7028112,0.0,0.0,0.0,0.0,0.0,0.0,-0.034726713,0.005236604,-0.6739446
59925038,0.8341114,0.6095279,nan,3.0012016,0.0,-0.118427865,0.032779872,-0.7028112,0.0,0.0,0.0,0.0,0.0,0.0,-0.031014126,0.010665379,-0.6815744
60025214,0.8341114,0.6095279,nan,3.0012016,0.0,-0.11238049,0.03616341,-0.7028112,0.0,0.0,0.0,0.0,0.0,0.0,-0.026422024,0.00678354,-0.6939859
60125255,0.8341114,0.6095279,nan,3.0012016,0.0,-0.10489836,0.039679047,-0.7028112,0.0,0.0,0.0,0.0,0.0,0.0,-0.022883521,0.007953772,-0.701591
60225263,0.8341114,0.6095279,nan,3.0012016,0.0,-0.09707672,0.0428546,-0.7028112,0.0,0.0,0.0,0.0,0.0,0.0,-0.02725534,0.007780439,-0.7095319
60345329,0.8341114,0.6095279,nan,3.0012016,0.0,-0.08602375,0.04743019,-0.7028112,0.0,0.0,0.0,0.0,0.0,0.0,-0.02664698,0.011206817,-0.7106328
60445411,0.8341114,0.6095279,nan,3.0012016,0.0,-0.07652495,0.05341256,-0.7028112,0.0,0.0,0.0,0.0,0.0,0.0,-0.026484793,0.013469904,-0.71613705
60546177,0.8341114,0.6095279,nan,3.0012016,0.0,-0.0681421,0.059143517,-0.7028112,0.0,0.0,0.0,0.0,0.0,0.0,-0.022661848,0.013133057,-0.7126022
60646001,0.8341114,0.6095279,nan,3.0012016,0.0,-0.05962211,0.06528749,-0.7028112,0.0,0.0,0.0,0.0,0.0,0.0,-0.029584538,0.013000245,-0.71034217
60746092,0.8341114,0.6095279,nan,3.0012016,0.0,-0.05311251,0.0705962,-0.7028112,0.0,0.0,0.0,0.0,0.0,0.0,-0.019738091,0.013345854,-0.70793813
60846163,0.8341114,0.6095279,nan,3.0012016,0.0,-0.047463942,0.076001175,-0.7028112,0.0,0.0,0.0,0.0,0.0,0.0,-0.020013737,0.0083569875,-0.7070446
60946143,0.8341114,0.6095279,nan,3.0012016,0.0,-0.044096656,0.0798573,-0.7028112,0.0,0.0,0.0,0.0,0.0,0.0,-0.027023684,0.013657206,-0.7028221
61046168,0.8341114,0.6095279,nan,3.0012016,0.0,-0.041798044,0.08358709,-0.7028112,0.0,0.0,0.0,0.0,0.0,0.0,-0.028058894,0.013495508,-0.70320165
61146187,0.8341114,0.6095279,nan,3.0012016,0.0,-0.039901692,0.08416856,-0.7028112,0.0,0.0,0.0,0.0,0.0,0.0,-0.022096248,0.0073175775,-0.7046696
61246242,0.8341114,0.6095279,nan,3.0012016,0.0,-0.038825944,0.081443794,-0.7028112,0.0,0.0,0.0,0.0,0.0,0.0,-0.03067177,0.009842366,-0.70529795
61346404,0.8341114,0.6095279,nan,3.0012016,0.0,-0.03834356,0.076484516,-0.7028112,0.0,0.0,0.0,0.0,0.0,0.0,-0.024081048,0.005858944,-0.7074437
61446571,0.8341114,0.6095279,nan,3.0012016,0.0,-0.037982013,0.067712605,-0.7028112,0.0,0.0,0.0,0.0,0.0,0.0,-0.023304034,0.0015741794,-0.7103814
61547075,0.8341114,0.6095279,nan,3.0012016,0.0,-0.037491817,0.056074362,-0.7028112,0.0,0.0,0.0,0.0,0.0,0.0,-0.028486513,-0.0057419827,-0.7126349
61646721,0.8341114,0.6095279,nan,3.0012016,0.0,-0.037016228,0.04203751,-0.7028112,0.0,0.0,0.0,0.0,0.0,0.0,-0.02909622,-0.007096707,-0.71421933
61766799,0.8341114,0.6095279,nan,3.0012016,0.0,-0.03621805,0.02187735,-0.7028112,0.0,0.0,0.0,0.0,0.0,0.0,-0.02604863,-0.011351651,-0.71617323
61867070,0.8341114,0.6095279,nan,3.0012016,0.0,-0.035376158,0.0029938458,-0.7028112,0.0,0.0,0.0,0.0,0.0,0.0,-0.028785245,-0.008182129,-0.7152317
61966925,0.8341114,0.6095279,nan,3.0012016,0.0,-0.034203522,-0.014155594,-0.7028112,0.0,0.0,0.0,0.0,0.0,0.0,-0.025833413,-0.012689944,-0.7185079
62067041,0.8341114,0.6095279,nan,3.0012016,0.0,-0.032802295,-0.0314693,-0.7028112,0.0,0.0,0.0,0.0,0.0,0.0,-0.023580905,-0.010883392,-0.72333866
62167388,0.8341114,0.6095279,nan,3.0012016,0.0,-0.030202782,-0.04525655,-0.7028112,0.0,0.0,0.0,0.0,0.0,0.0,-0.025260814,-0.01219341,-0.7275475
62267521,0.8341114,0.6095279,nan,3.0012016,0.0,-0.026278483,-0.056644287,-0.7028112,0.0,0.0,0.0,0.0,0.0,0.0,-0.020962805,-0.017382884,-0.7285068
62367571,0.8341114,0.6095279,nan,3.0012016,0.0,-0.020962358,-0.06515358,-0.7028112,0.0,0.0,0.0,0.0,0.0,0.0,-0.021094162,-0.010104542,-0.7311548
62467678,0.8341114,0.6095279,nan,3.0012016,0.0,-0.01344088,-0.06942702,-0.7028112,0.0,0.0,0.0,0.0,0.0,0.0,-0.01964449,-0.011443432,-0.7343745
62567642,0.8341114,0.6095279,nan,3.0012016,0.0,-0.005793923,-0.07009072,-0.7028112,0.0,0.0,0.0,0.0,0.0,0.0,-0.022552783,-0.008511055,-0.73823
62687771,0.8341114,0.6095279,nan,3.0012016,0.0,0.003938228,-0.06760428,-0.7028112,0.0,0.0,0.0,0.0,0.0,0.0,-0.020609606,-0.002801102,-0.7435199
62787839,0.8341114,0.6095279,nan,3.0012016,0.0,0.010915488,-0.06341266,-0.7028112,0.0,0.0,0.0,0.0,0.0,0.0,-0.02133998,-0.0050655184,-0.7501762
62888005,0.8341114,0.6095279,nan,3.0012016,0.0,0.015984675,-0.05964391,-0.7028112,0.0,0.0,0.0,0.0,0.0,0.0,-0.019349279,-0.0067426725,-0.7580472
62988214,0.8341114,0.6095279,nan,3.0012016,0.0,0.019561242,-0.055158917,-0.7028112,0.0,0.0,0.0,0.0,0.0,0.0,-0.02012067,-0.007183885,-0.7623273
63088353,0.8341114,0.6095279,nan,3.0012016,0.0,0.020522838,-0.051966883,-0.7028112,0.0,0.0,0.0,0.0,0.0,0.0,-0.027405813,4.7430687e-05,-0.76512533
63188401,nan,nan,nan,3.0012016,0.0,-0.008672379,-0.061366655,-0.7028112,0.0,0.0,0.0,0.0,0.0,0.0,-0.032405213,-0.0009578453,-0.76814353
63288484,nan,nan,nan,3.0012016,0.0,-0.0076014698,-0.05378879,-0.7028112,0.0,0.0,0.0,0.0,0.0,0.0,-0.031995613,-0.0023220514,-0.76269066
63388520,nan,nan,nan,3.0012016,0.0,-0.0075841066,-0.053665925,-0.7028112,0.0,0.0,0.0,0.0,0.0,0.0,-0.02862943,0.002407619,-0.7580712
63488580,nan,nan,nan,3.0012016,0.0,-0.011007162,-0.07788782,-0.7028112,0.0,0.0,0.0,0.0,0.0,0.0,-0.029436477,0.0035181493,-0.7523648
63588776,nan,nan,nan,3.0012016,0.0,-0.025231356,-0.1785397,-0.7028112,0.0,0.0,0.0,0.0,0.0,0.0,-0.03096328,-0.004384943,-0.7455673
63689347,nan,nan,nan,3.0012016,0.0,-0.031040085,-0.21964286,-0.7028112,0.0,0.0,0.0,0.0,0.0,0.0,-0.026744692,-0.008026596,-0.7405238
63789558,nan,nan,nan,3.0012016,0.0,-0.038283054,-0.27089486,-0.7028112,0.0,0.0,0.0,0.0,0.0,0.0,-0.027074153,-0.007282,-0.7335097
63909346,nan,nan,nan,3.0012016,0.0,-0.035573512,-0.25172186,-0.7028112,0.0,0.0,0.0,0.0,0.0,0.0,-0.029700141,-0.0013051085,-0.7293221
64009355,0.8486922,0.58050394,nan,3.0012016,0.0,0.00045327842,0.0039352835,-0.7028112,0.0,0.0,0.0,0.0,0.0,0.0,-0.021913566,0.022157045,-0.7297339
64109321,0.8486922,0.58050394,nan,3.0012016,0.0,0.004543316,0.030338908,-0.7028112,0.0,0.0,0.0,0.0,0.0,0.0,-0.02089056,0.027901327,-0.7326069
64209377,0.8486922,0.58050394,nan,3.0012016,0.0,0.01016561,0.056489192,-0.7028112,0.0,0.0,0.0,0.0,0.0,0.0,-0.01898858,0.032433186,-0.7356349
64309423,0.8486922,0.58050394,nan,3.0012016,0.0,0.017724346,0.08566099,-0.7028112,0.0,0.0,0.0,0.0,0.0,0.0,-0.015506642,0.03015358,-0.7401673
64409796,0.8486922,0.58050394,nan,3.0012016,0.0,0.025964389,0.114184454,-0.7028112,0.0,0.0,0.0,0.0,0.0,0.0,-0.0115887085,0.03508585,-0.7444122
64509747,0.8486922,0.58050394,nan,3.0012016,0.0,0.034008283,0.14089501,-0.7028112,0.0,0.0,0.0,0.0,0.0,0.0,-0.019869994,0.04117856,-0.7503572
64609915,0.8486922,0.58050394,nan,3.0012016,0.0,0.041243296,0.16421083,-0.7028112,0.0,0.0,0.0,0.0,0.0,0.0,-0.00891553,0.038573608,-0.760637
64709825,0.8486922,0.58050394,nan,3.0012016,0.0,0.04836557,0.18661991,-0.7028112,0.0,0.0,0.0,0.0,0.0,0.0,-0.007534912,0.041231915,-0.7633996
64809936,0.8486922,0.58050394,nan,3.0012016,0.0,0.054232143,0.20374118,-0.7028112,0.0,0.0,0.0,0.0,0.0,0.0,-0.01727349,0.03729064,-0.76901215
64909962,0.8486922,0.58050394,nan,3.0012016,0.0,0.059199918,0.21785489,-0.7028112,0.0,0.0,0.0,0.0,0.0,0.0,-0.01381771,0.034612566,-0.77161604
65010006,0.8486922,0.58050394,nan,3.0012016,0.0,0.06273509,0.22688018,-0.7028112,0.0,0.0,0.0,0.0,0.0,0.0,-0.017952498,0.03515344,-0.7724681
65130133,0.8486922,0.58050394,nan,3.0012016,0.0,0.065799035,0.23243684,-0.7028112,0.0,0.0,0.0,0.0,0.0,0.0,-0.016753525,0.02790754,-0.771407
65231384,0.8486922,0.58050394,nan,3.0012016,0.0,0.0666112,0.23300014,-0.7028112,0.0,0.0,0.0,0.0,0.0,0.0,-0.014420626,0.029030524,-0.7673818
65330396,0.8486922,0.58050394,nan,3.0012016,0.0,0.065794505,0.23074882,-0.7028112,0.0,0.0,0.0,0.0,0.0,0.0,-0.02166121,0.03030713,-0.76333404
65430649,0.8486922,0.58050394,nan,3.0012016,0.0,0.06397743,0.22614527,-0.7028112,0.0,0.0,0.0,0.0,0.0,0.0,-0.018788423,0.02844271,-0.7603665
65530776,0.8486922,0.58050394,nan,3.0012016,0.0,0.061692808,0.22111079,-0.7028112,0.0,0.0,0.0,0.0,0.0,0.0,-0.017022599,0.025343258,-0.757776
65630819,0.8486922,0.58050394,nan,3.0012016,0.0,0.059857212,0.2158349,-0.7028112,0.0,0.0,0.0,0.0,0.0,0.0,-0.015840793,0.026490584,-0.75774384
65730788,0.8486922,0.58050394,nan,3.0012016,0.0,0.05957188,0.21163991,-0.7028112,0.0,0.0,0.0,0.0,0.0,0.0,-0.014873336,0.025148854,-0.7576462
65830890,0.8486922,0.58050394,nan,3.0012016,0.0,0.06043716,0.2078256,-0.7028112,0.0,0.0,0.0,0.0,0.0,0.0,-0.011563011,0.026832249,-0.75485206
65930893,0.8486922,0.58050394,nan,3.0012016,0.0,0.06212995,0.20498012,-0.7028112,0.0,0.0,0.0,0.0,0.0,0.0,-0.014372895,0.021319715,-0.75605357
66031036,0.8486922,0.58050394,nan,3.0012016,0.0,0.06494384,0.20078598,-0.6718267,0.0,0.0,0.0,0.0,0.0,0.0,-0.013496876,0.021530246,-0.75001895
66131147,0.8486922,0.58050394,nan,3.0012016,0.0,0.068520576,0.19657886,-0.6707439,0.0,0.0,0.0,0.0,0.0,0.0,-0.011952965,0.0209346,-0.75050044
66231350,0.8486922,0.58050394,nan,3.0012016,0.0,0.073444694,0.19041038,-0.3687466,0.0,0.0,0.0,0.0,0.0,0.0,-0.013011094,0.016374514,-0.6903839
66331449,0.8486922,0.58050394,nan,3.0012016,0.0,0.07868494,0.18221948,-0.3816657,0.0,0.0,0.0,0.0,0.0,0.0,-0.008210845,0.017948572,-0.699947
66431575,0.8486922,0.58050394,nan,3.0012016,0.0,0.08442694,0.17179945,-0.38153377,0.0,0.0,0.0,0.0,0.0,0.0,-0.013031636,0.015699739,-0.7077256
66552194,0.8486922,0.58050394,nan,3.0012016,0.0,0.09002704,0.15850429,-0.38152623,0.0,0.0,0.0,0.0,0.0,0.0,-0.011964443,0.010589173,-0.719643
66651658,0.8486922,0.58050394,nan,3.0012016,0.0,0.09268499,0.14601927,-0.38990387,0.0,0.0,0.0,0.0,0.0,0.0,-0.012235675,0.010283688,-0.727921
66751755,0.8486922,0.58050394,nan,3.0012016,0.0,0.09337122,0.13229172,-0.3912096,0.0,0.0,0.0,0.0,0.0,0.0,-0.013047819,0.011499053,-0.734238
66851828,0.8486922,0.58050394,nan,3.0012016,0.0,0.09269824,0.119657375,-0.39774585,0.0,0.0,0.0,0.0,0.0,0.0,-0.01595822,0.008391341,-0.7421843
66952263,0.8486922,0.58050394,nan,3.0012016,0.0,0.090540394,0.107468545,-0.39759803,0.0,0.0,0.0,0.0,0.0,0.0,-0.016145408,0.009644963,-0.7455623
67053347,0.8486922,0.58050394,nan,3.0012016,0.0,0.08669481,0.09680107,-0.39759052,0.0,0.0,0.0,0.0,0.0,0.0,-0.0139684,0.008694457,-0.74616945
67152219,0.8486922,0.58050394,nan,3.0012016,0.0,0.082210205,0.087285794,-0.39759052,0.0,0.0,0.0,0.0,0.0,0.0,-0.0222993,0.008260889,-0.74640465
67252485,0.8486922,0.58050394,nan,3.0012016,0.0,0.07625275,0.07817246,-0.39759052,0.0,0.0,0.0,0.0,0.0,0.0,-0.018734178,0.009175776,-0.7427616
67352375,0.8486922,0.58050394,nan,3.0012016,0.0,0.07023115,0.07091256,-0.3975901,0.0,0.0,0.0,0.0,0.0,0.0,-0.016760666,0.008213564,-0.7356738
67453346,0.8486922,0.58050394,nan,3.0012016,0.0,0.062815726,0.06465585,-0.3975901,0.0,0.0,0.0,0.0,0.0,0.0,-0.024782542,0.006726298,-0.7294725
67552553,0.8486922,0.58050394,nan,3.0012016,0.0,0.055382468,0.060142543,-0.39759052,0.0,0.0,0.0,0.0,0.0,0.0,-0.024538672,0.017414603,-0.7259991
67652658,0.8486922,0.58050394,nan,3.0012016,0.0,0.047805272,0.056569204,-0.39759052,0.0,0.0,0.0,0.0,0.0,0.0,-0.021668822,0.01258663,-0.72700477
67772806,0.8486922,0.58050394,nan,3.0012016,0.0,0.03997417,0.052492358,-0.39759052,0.0,0.0,0.0,0.0,0.0,0.0,-0.019619197,0.011167834,-0.728788
67872964,0.8486922,0.58050394,nan,3.0012016,0.0,0.034597177,0.048951123,-0.38940197,0.0,0.0,0.0,0.0,0.0,0.0,-0.024276461,0.007900347,-0.7303325
67973363,0.8486922,0.58050394,nan,3.0012016,0.0,0.02995188,0.04346818,-0.38955063,0.0,0.0,0.0,0.0,0.0,0.0,-0.024418384,0.010262364,-0.7352884
68073243,0.8486922,0.58050394,nan,3.0012016,0.0,0.026736066,0.037703365,-0.38955778,0.0,0.0,0.0,0.0,0.0,0.0,-0.02356388,0.008198787,-0.7411928
68173273,0.8486922,0.58050394,nan,3.0012016,0.0,0.023995275,0.031269018,-0.38137007,0.0,0.0,0.0,0.0,0.0,0.0,-0.017073678,0.012657831,-0.7454746
68273368,0.8486922,0.58050394,nan,3.0012016,0.0,0.022194957,0.024498777,-0.18308766,0.0,0.0,0.0,0.0,0.0,0.0,-0.024339043,0.008895061,-0.7115114
68373449,0.8486922,0.58050394,nan,3.0012016,0.0,0.021316826,0.017766193,-0.117991045,0.0,0.0,0.0,0.0,0.0,0.0,-0.02063982,0.0026897835,-0.70881027
68473588,0.8486922,0.58050394,nan,3.0012016,0.0,0.021488002,0.012303465,-0.11646676,0.0,0.0,0.0,0.0,0.0,0.0,-0.02559986,0.009213721,-0.71392304
68573835,0.8486922,0.58050394,nan,3.0012016,0.0,0.021650344,0.007521081,-0.116465166,0.0,0.0,0.0,0.0,0.0,0.0,-0.023952989,0.009683932,-0.7222579
68673847,0.8486922,0.58050394,nan,3.0012016,0.0,0.020729065,0.0052871346,-0.11646596,0.0,0.0,0.0,0.0,0.0,0.0,-0.019304369,0.0076296767,-0.7286279
68773999,0.8486922,0.58050394,nan,3.0012016,0.0,0.017672535,0.0051189032,-0.12510347,0.0,0.0,0.0,0.0,0.0,0.0,-0.02239468,0.0119694555,-0.7342218
68874161,0.8486922,0.58050394,nan,3.0012016,0.0,0.013017839,0.0064696786,-0.12450544,0.0,0.0,0.0,0.0,0.0,0.0,-0.029978458,0.015528394,-0.7387057
68974149,0.8486922,0.58050394,nan,3.0012016,0.0,0.006090918,0.009480852,-0.124497086,0.0,0.0,0.0,0.0,0.0,0.0,-0.027288556,0.014472635,-0.7409048
69074127,0.8486922,0.58050394,nan,3.0012016,0.0,-0.0016070574,0.013591048,-0.12449789,0.0,0.0,0.0,0.0,0.0,0.0,-0.030272696,0.018264636,-0.73774713
69174147,0.8486922,0.58050394,nan,3.0012016,0.0,-0.011392378,0.018676544,-0.12449789,0.0,0.0,0.0,0.0,0.0,0.0,-0.030141046,0.015567841,-0.737581
69294225,0.8486922,0.58050394,nan,3.0012016,0.0,-0.023848673,0.025915295,-0.13287592,0.0,0.0,0.0,0.0,0.0,0.0,-0.030537065,0.020771375,-0.7334051
69394711,0.8486922,0.58050394,nan,3.0012016,0.0,-0.033689428,0.032683272,-0.13247737,0.0,0.0,0.0,0.0,0.0,0.0,-0.030320844,0.020249067,-0.7295798
69494820,0.8486922,0.58050394,nan,3.0012016,0.0,-0.044190142,0.040555198,-0.13252941,0.0,0.0,0.0,0.0,0.0,0.0,-0.03034103,0.022894379,-0.7268492
69594915,0.8486922,0.58050394,nan,3.0012016,0.0,-0.0529808,0.0471328,-0.1325306,0.0,0.0,0.0,0.0,0.0,0.0,-0.03488657,0.024393346,-0.72789204
69694964,0.8486922,0.58050394,nan,3.0012016,0.0,-0.06001514,0.054431576,-0.13253021,0.0,0.0,0.0,0.0,0.0,0.0,-0.032472588,0.027106445,-0.7291891
69794935,0.8486922,0.58050394,nan,3.0012016,0.0,-0.063811235,0.060935173,-0.13253021,0.0,0.0,0.0,0.0,0.0,0.0,-0.029653545,0.020516623,-0.7312714
69894948,0.8486922,0.58050394,nan,3.0012016,0.0,-0.06532996,0.06689981,-0.13253021,0.0,0.0,0.0,0.0,0.0,0.0,-0.026626531,0.031111961,-0.7290868
69994987,0.8486922,0.58050394,nan,3.0012016,0.0,-0.06482572,0.07286786,-0.13253021,0.0,0.0,0.0,0.0,0.0,0.0,-0.028254047,0.026866231,-0.727981
70095349,0.8486922,0.58050394,nan,3.0012016,0.0,-0.06304896,0.07820165,-0.13253021,0.0,0.0,0.0,0.0,0.0,0.0,-0.022857394,0.03149391,-0.72868484
70196477,0.8486922,0.58050394,nan,3.0012016,0.0,-0.05912851,0.084027685,-0.13253021,0.0,0.0,0.0,0.0,0.0,0.0,-0.019394632,0.027541647,-0.7325512
70295412,0.8486922,0.58050394,nan,3.0012016,0.0,-0.053846303,0.08926419,-0.13253021,0.0,0.0,0.0,0.0,0.0,0.0,-0.020312876,0.033109125,-0.730176
70396506,0.8486922,0.58050394,nan,3.0012016,0.0,-0.04585043,0.095124565,-0.13253021,0.0,0.0,0.0,0.0,0.0,0.0,-0.02045007,0.024732277,-0.7289338
70495581,0.8486922,0.58050394,nan,3.0012016,0.0,-0.038366664,0.10065318,-0.13253021,0.0,0.0,0.0,0.0,0.0,0.0,-0.020252671,0.030888382,-0.73030174
70596603,0.8486922,0.58050394,nan,3.0012016,0.0,-0.030701812,0.106762245,-0.13253021,0.0,0.0,0.0,0.0,0.0,0.0,-0.01623895,0.024130326,-0.7339779
70717105,0.8486922,0.58050394,nan,3.0012016,0.0,-0.0228005,0.11105751,-0.13253021,0.0,0.0,0.0,0.0,0.0,0.0,-0.019589517,0.02374513,-0.7336295
70815800,0.8486922,0.58050394,nan,3.0012016,0.0,-0.01704961,0.11131462,-0.13253021,0.0,0.0,0.0,0.0,0.0,0.0,-0.015986701,0.018820291,-0.7333139
70915990,0.8486922,0.58050394,nan,3.0012016,0.0,-0.01159968,0.10626777,-0.13253021,0.0,0.0,0.0,0.0,0.0,0.0,-0.01886604,0.017496867,-0.7313639
71016114,0.8486922,0.58050394,nan,3.0012016,0.0,-0.007672551,0.09690897,-0.13253021,0.0,0.0,0.0,0.0,0.0,0.0,-0.0193942,0.01304476,-0.72673756
71116284,0.8486922,0.58050394,nan,3.0012016,0.0,-0.0047145486,0.082147494,-0.13253021,0.0,0.0,0.0,0.0,0.0,0.0,-0.020134676,0.0033731954,-0.72340935
71216316,0.8486922,0.58050394,nan,3.0012016,0.0,-0.0031096428,0.06526009,-0.13253021,0.0,0.0,0.0,0.0,0.0,0.0,-0.017758138,0.00407321,-0.72116566
71316362,0.8486922,0.58050394,nan,3.0012016,0.0,-0.0011123866,0.044082727,-0.13253021,0.0,0.0,0.0,0.0,0.0,0.0,-0.018322244,0.0002365075,-0.72134227
71416472,0.8486922,0.58050394,nan,3.0012016,0.0,0.0016873508,0.023390071,-0.13253021,0.0,0.0,0.0,0.0,0.0,0.0,-0.016433483,-0.0023281537,-0.72093177
71516475,0.8486922,0.58050394,nan,3.0012016,0.0,0.0057959617,0.00047536194,-0.13253021,0.0,0.0,0.0,0.0,0.0,0.0,-0.014426501,-0.006639028,-0.7183082
71616561,0.8486922,0.58050394,nan,3.0012016,0.0,0.010784515,-0.019948328,-0.13253021,0.0,0.0,0.0,0.0,0.0,0.0,-0.014070962,-0.010466321,-0.7215904
71716791,0.8486922,0.58050394,nan,3.0012016,0.0,0.017513873,-0.041102923,-0.13253021,0.0,0.0,0.0,0.0,0.0,0.0,-0.012795579,-0.0068367533,-0.7230129
71816907,0.8486922,0.58050394,nan,3.0012016,0.0,0.024570862,-0.057984587,-0.13253021,0.0,0.0,0.0,0.0,0.0,0.0,-0.011173178,-0.009603145,-0.7234538
71936988,0.8486922,0.58050394,nan,3.0012016,0.0,0.03385885,-0.07614104,-0.13253021,0.0,0.0,0.0,0.0,0.0,0.0,-0.008669658,-0.0054239165,-0.7219119
72037088,0.8486922,0.58050394,nan,3.0012016,0.0,0.04240953,-0.08854688,-0.13253021,0.0,0.0,0.0,0.0,0.0,0.0,-0.008534067,-0.012067659,-0.7177012
72137164,0.8486922,0.58050394,nan,3.0012016,0.0,0.05030711,-0.09813107,-0.13253021,0.0,0.0,0.0,0.0,0.0,0.0,-0.008196751,-0.010108308,-0.7170432
72237189,0.8486922,0.58050394,nan,3.0012016,0.0,0.058744542,-0.10639642,-0.13253021,0.0,0.0,0.0,0.0,0.0,0.0,-0.0061984444,-0.0064124335,-0.7132806
72337370,0.8486922,0.58050394,nan,3.0012016,0.0,0.06602265,-0.112687446,-0.13253021,0.0,0.0,0.0,0.0,0.0,0.0,-0.009102313,-0.0069738114,-0.7161388
72437461,0.8486922,0.58050394,nan,3.0012016,0.0,0.072801895,-0.11745053,-0.13253021,0.0,0.0,0.0,0.0,0.0,0.0,-0.006771628,-0.004468861,-0.7142241
72537613,0.8486922,0.58050394,nan,3.0012016,0.0,0.07768824,-0.121499285,-0.13253021,0.0,0.0,0.0,0.0,0.0,0.0,-0.0075648557,-0.009284709,-0.71615386
72638016,0.8486922,0.58050394,nan,3.0012016,0.0,0.08120218,-0.12577873,-0.13253021,0.0,0.0,0.0,0.0,0.0,0.0,-0.006564673,-0.0011602212,-0.71809506
72738125,0.8486922,0.58050394,nan,3.0012016,0.0,0.08234396,-0.13028026,-0.13253021,0.0,0.0,0.0,0.0,0.0,0.0,-0.015154581,-0.009655696,-0.7211708
72838168,0.8486922,0.58050394,nan,3.0012016,0.0,0.08111713,-0.13452438,-0.13253021,0.0,0.0,0.0,0.0,0.0,0.0,-0.015405031,-0.0065247063,-0.72058487
72958245,0.8486922,0.58050394,nan,3.0012016,0.0,0.07584274,-0.13815315,-0.13253021,0.0,0.0,0.0,0.0,0.0,0.0,-0.021205442,-0.005000964,-0.7227472
73058018,0.8486922,0.58050394,nan,3.0012016,0.0,0.06981677,-0.14047073,-0.13253021,0.0,0.0,0.0,0.0,0.0,0.0,-0.019123876,-0.0027934276,-0.72047687
73159546,0.8486922,0.58050394,nan,3.0012016,0.0,0.06217417,-0.14100532,-0.13253021,0.0,0.0,0.0,0.0,0.0,0.0,-0.021202845,-0.0006614486,-0.7197023
73258624,0.8486922,0.58050394,nan,3.0012016,0.0,0.05377643,-0.14042588,-0.13253021,0.0,0.0,0.0,0.0,0.0,0.0,-0.022091912,-0.0042231404,-0.7184837
73359558,0.8486922,0.58050394,nan,3.0012016,0.0,0.044588383,-0.13873462,-0.13253021,0.0,0.0,0.0,0.0,0.0,0.0,-0.019054316,-0.0030204612,-0.71958417
73458667,0.8486922,0.58050394,nan,3.0012016,0.0,0.0368241,-0.13610357,-0.13253021,0.0,0.0,0.0,0.0,0.0,0.0,-0.01958755,-0.0024095597,-0.71833414
73559945,0.8486922,0.58050394,nan,3.0012016,0.0,0.029892366,-0.13383797,-0.13253021,0.0,0.0,0.0,0.0,0.0,0.0,-0.023053927,-0.007243261,-0.7178272
73658795,0.8486922,0.58050394,nan,3.0012016,0.0,0.024747303,-0.13208391,-0.13253021,0.0,0.0,0.0,0.0,0.0,0.0,-0.020103369,-0.0038580457,-0.71574605
73759626,0.8486922,0.58050394,nan,3.0012016,0.0,0.021132287,-0.13144338,-0.13253021,0.0,0.0,0.0,0.0,0.0,0.0,-0.019896394,-0.005083906,-0.7146461
73879434,0.8486922,0.58050394,nan,3.0012016,0.0,0.01889936,-0.13089763,-0.14954615,0.0,0.0,0.0,0.0,0.0,0.0,-0.01609012,-0.0055672396,-0.7103869
73979017,0.8486922,0.58050394,nan,3.0012016,0.0,0.017636409,-0.13104276,-0.14859445,0.0,0.0,0.0,0.0,0.0,0.0,-0.02129545,-0.002054199,-0.706185
74079055,0.8486922,0.58050394,nan,3.0012016,0.0,0.016315417,-0.13029645,-0.15723117,0.0,0.0,0.0,0.0,0.0,0.0,-0.020580098,-0.0032996712,-0.7075846
74179388,0.8486922,0.58050394,nan,3.0012016,0.0,0.014304289,-0.12917954,-0.15663393,0.0,0.0,0.0,0.0,0.0,0.0,-0.023303881,-0.0026352229,-0.70438385
74279540,0.8486922,0.58050394,nan,3.0012016,0.0,0.0114635555,-0.1259174,-0.15662558,0.0,0.0,0.0,0.0,0.0,0.0,-0.025660664,0.0016840114,-0.7065306
74379568,0.8486922,0.58050394,nan,3.0012016,0.0,0.007973113,-0.1206908,-0.15662637,0.0,0.0,0.0,0.0,0.0,0.0,-0.024963966,0.0023853823,-0.7100042
74479546,0.8486922,0.58050394,nan,3.0012016,0.0,0.0023935705,-0.113889985,-0.15662637,0.0,0.0,0.0,0.0,0.0,0.0,-0.028484514,0.002088825,-0.7124169
74579578,0.8486922,0.58050394,nan,3.0012016,0.0,-0.0049337414,-0.10611489,-0.15662637,0.0,0.0,0.0,0.0,0.0,0.0,-0.024616448,0.006368524,-0.7173383
74679704,0.8486922,0.58050394,nan,3.0012016,0.0,-0.014394832,-0.09724699,-0.15662637,0.0,0.0,0.0,0.0,0.0,0.0,-0.025493335,0.003395544,-0.7223297
74779854,0.8486922,0.58050394,nan,3.0012016,0.0,-0.023608472,-0.08875831,-0.15662637,0.0,0.0,0.0,0.0,0.0,0.0,-0.030559056,0.0041041886,-0.72312355
74879963,0.8486922,0.58050394,nan,3.0012016,0.0,-0.034039933,-0.0791128,-0.15662637,0.0,0.0,0.0,0.0,0.0,0.0,-0.032694224,0.0027517325,-0.72517335
74979975,0.8486922,0.58050394,nan,3.0012016,0.0,-0.04394955,-0.070730515,-0.15662637,0.0,0.0,0.0,0.0,0.0,0.0,-0.031689834,0.009848952,-0.72575676
75080406,0.8486922,0.58050394,nan,3.0012016,0.0,-0.053986166,-0.061558664,-0.15662637,0.0,0.0,0.0,0.0,0.0,0.0,-0.03475927,0.010107867,-0.72351784
75180284,0.8486922,0.58050394,nan,3.0012016,0.0,-0.06357398,-0.051873114,-0.15662637,0.0,0.0,0.0,0.0,0.0,0.0,-0.029427389,0.014233772,-0.72346514
75300562,0.8486922,0.58050394,nan,3.0012016,0.0,-0.07431818,-0.039874796,-0.15662637,0.0,0.0,0.0,0.0,0.0,0.0,-0.02878087,0.016952805,-0.7227346
75400600,0.8486922,0.58050394,nan,3.0012016,0.0,-0.08065259,-0.028436553,-0.15662637,0.0,0.0,0.0,0.0,0.0,0.0,-0.032244306,0.01264561,-0.7251401
75500551,0.8486922,0.58050394,nan,3.0012016,0.0,-0.08476516,-0.014962152,-0.15662637,0.0,0.0,0.0,0.0,0.0,0.0,-0.032896873,0.022569086,-0.72543144
75600591,0.8486922,0.58050394,nan,3.0012016,0.0,-0.08620246,-0.0005848169,-0.15662637,0.0,0.0,0.0,0.0,0.0,0.0,-0.0276643,0.015440421,-0.7279493
75700768,0.8486922,0.58050394,nan,3.0012016,0.0,-0.08504987,0.016064685,-0.15662637,0.0,0.0,0.0,0.0,0.0,0.0,-0.027399486,0.019879205,-0.7275116
75800953,0.8486922,0.58050394,nan,3.0012016,0.0,-0.08197743,0.031563353,-0.15662637,0.0,0.0,0.0,0.0,0.0,0.0,-0.02490329,0.021698765,-0.73156327
75901039,0.8486922,0.58050394,nan,3.0012016,0.0,-0.07699522,0.047433194,-0.15662637,0.0,0.0,0.0,0.0,0.0,0.0,-0.023553977,0.02423489,-0.7345451
76002255,0.8486922,0.58050394,nan,3.0012016,0.0,-0.07111647,0.06126252,-0.15662637,0.0,0.0,0.0,0.0,0.0,0.0,-0.026641823,0.02406903,-0.7321896
76101194,0.8486922,0.58050394,nan,3.0012016,0.0,-0.06561104,0.071303494,-0.15662637,0.0,0.0,0.0,0.0,0.0,0.0,-0.021720951,0.01712858,-0.7330023
76201801,0.8486922,0.58050394,nan,3.0012016,0.0,-0.060910992,0.077536345,-0.15662637,0.0,0.0,0.0,0.0,0.0,0.0,-0.024178166,0.018833034,-0.73489946
76301363,0.8486922,0.58050394,nan,3.0012016,0.0,-0.057061043,0.07913265,-0.15662637,0.0,0.0,0.0,0.0,0.0,0.0,-0.021446362,0.016025396,-0.7353038
76401392,0.8486922,0.58050394,nan,3.0012016,0.0,-0.053890076,0.07569223,-0.21792658,0.0,0.0,0.0,0.0,0.0,0.0,-0.026669808,0.010163467,-0.7430518
76501754,0.8486922,0.58050394,nan,3.0012016,0.0,-0.05138031,0.06899792,-0.42903435,0.0,0.0,0.0,0.0,0.0,0.0,-0.02446989,0.008812355,-0.7806742
76601805,0.8486922,0.58050394,nan,3.0012016,0.0,-0.049492795,0.0576693,-0.42987162,0.0,0.0,0.0,0.0,0.0,0.0,-0.026354633,0.0059419447,-0.7706923
76721809,0.8486922,0.58050394,nan,3.0012016,0.0,-0.04870968,0.041739497,-0.4297202,0.0,0.0,0.0,0.0,0.0,0.0,-0.028968757,-0.0047912244,-0.7659574
76821962,0.8486922,0.58050394,nan,3.0012016,0.0,-0.04938436,0.026878307,-0.42971897,0.0,0.0,0.0,0.0,0.0,0.0,-0.030663766,-0.0029783305,-0.76127505
76922171,0.8486922,0.58050394,nan,3.0012016,0.0,-0.05188778,0.011266955,-0.42971897,0.0,0.0,0.0,0.0,0.0,0.0,-0.031822734,-0.0022789417,-0.7560303
77022157,0.8486922,0.58050394,nan,3.0012016,0.0,-0.056193046,-0.0030677973,-0.42971858,0.0,0.0,0.0,0.0,0.0,0.0,-0.03421195,-0.0070661204,-0.74999785
77122948,0.8486922,0.58050394,nan,3.0012016,0.0,-0.0630972,-0.017163878,-0.42971897,0.0,0.0,0.0,0.0,0.0,0.0,-0.037793964,-0.0014097327,-0.7468549
77222258,0.8486922,0.58050394,nan,3.0012016,0.0,-0.07109472,-0.027523767,-0.42971897,0.0,0.0,0.0,0.0,0.0,0.0,-0.036895536,-0.0069264723,-0.7439748
77322491,0.8486922,0.58050394,nan,3.0012016,0.0,-0.08189526,-0.03700762,-0.42971897,0.0,0.0,0.0,0.0,0.0,0.0,-0.04018431,-0.005076777,-0.7407297
77422763,0.8486922,0.58050394,nan,3.0012016,0.0,-0.0937856,-0.04343115,-0.42971897,0.0,0.0,0.0,0.0,0.0,0.0,-0.04257296,-0.0057771727,-0.73816586
77522752,0.8486922,0.58050394,nan,3.0012016,0.0,-0.10750705,-0.048457813,-0.42971897,0.0,0.0,0.0,0.0,0.0,0.0,-0.043053098,-7.363036e-05,-0.74140424
77622779,0.8486922,0.58050394,nan,3.0012016,0.0,-0.11976369,-0.05019652,-0.42971897,0.0,0.0,0.0,0.0,0.0,0.0,-0.045175117,-0.0052301115,-0.7469425
77722822,0.8486922,0.58050394,nan,3.0012016,0.0,-0.13139915,-0.049870986,-0.42971858,0.0,0.0,0.0,0.0,0.0,0.0,-0.041496232,-0.005961712,-0.7543318
77822882,0.8486922,0.58050394,nan,3.0012016,0.0,-0.1399799,-0.047901534,-0.42971858,0.0,0.0,0.0,0.0,0.0,0.0,-0.04900344,-0.00072927214,-0.76181173
77922961,0.8486922,0.58050394,nan,3.0012016,0.0,-0.14581352,-0.045025636,-0.42971897,0.0,0.0,0.0,0.0,0.0,0.0,-0.041187275,-0.0029701688,-0.77047193
78023222,0.8486922,0.58050394,nan,3.0012016,0.0,-0.14646335,-0.042054553,-0.42971897,0.0,0.0,0.0,0.0,0.0,0.0,-0.04083144,0.0020752945,-0.77659607
78143808,0.8486922,0.58050394,nan,3.0012016,0.0,-0.14173022,-0.038551483,-0.42971897,0.0,0.0,0.0,0.0,0.0,0.0,-0.034298297,0.0025463281,-0.776482
78244167,0.8486922,0.58050394,nan,3.0012016,0.0,-0.13384318,-0.036259726,-0.42971897,0.0,0.0,0.0,0.0,0.0,0.0,-0.034145538,0.004468904,-0.77838856
78343989,0.8486922,0.58050394,nan,3.0012016,0.0,-0.12461855,-0.034076005,-0.42971858,0.0,0.0,0.0,0.0,0.0,0.0,-0.028065888,0.0026978722,-0.7829366
78443992,0.8486922,0.58050394,nan,3.0012016,0.0,-0.11326564,-0.032136787,-0.42971858,0.0,0.0,0.0,0.0,0.0,0.0,-0.023619367,0.004659467,-0.7861006
78543953,0.8486922,0.58050394,nan,3.0012016,0.0,-0.10217105,-0.029991062,-0.42971897,0.0,0.0,0.0,0.0,0.0,0.0,-0.037043866,0.0015177738,-0.78569424
78643781,0.8486922,0.58050394,nan,3.0012016,0.0,-0.09082584,-0.02925019,-0.42971897,0.0,0.0,0.0,0.0,0.0,0.0,-0.029972779,0.00013095653,-0.7877567
78743843,0.8486922,0.58050394,nan,3.0012016,0.0,-0.08145104,-0.028988924,-0.42971897,0.0,0.0,0.0,0.0,0.0,0.0,-0.030153908,0.0008302601,-0.78984606
78843941,0.8486922,0.58050394,nan,3.0012016,0.0,-0.073787384,-0.0296734,-0.42971897,0.0,0.0,0.0,0.0,0.0,0.0,-0.031468827,-0.0034015384,-0.789863
78945330,0.8486922,0.58050394,nan,3.0012016,0.0,-0.06896989,-0.03142632,-0.42971897,0.0,0.0,0.0,0.0,0.0,0.0,-0.025299072,0.006460162,-0.7911256
79044253,nan,nan,nan,3.0012016,0.0,-0.00017928594,-0.0012686459,-0.42971897,0.0,0.0,0.0,0.0,0.0,0.0,-0.023693632,0.003693167,-0.79056764
79145419,nan,nan,nan,3.0012016,0.0,-0.017954133,-0.12704532,-0.42971858,0.0,0.0,0.0,0.0,0.0,0.0,-0.021234894,0.00030237436,-0.78306407
79264571,nan,nan,nan,3.0012016,0.0,-0.018938499,-0.13401078,-0.42971897,0.0,0.0,0.0,0.0,0.0,0.0,-0.021982,0.0009520482,-0.7751033
79364556,nan,nan,nan,3.0012016,0.0,-0.01896038,-0.13416563,-0.42971897,0.0,0.0,0.0,0.0,0.0,0.0,-0.024967786,0.0009165264,-0.7703136
79465096,nan,nan,nan,3.0012016,0.0,-0.014882573,-0.10531063,-0.42971897,0.0,0.0,0.0,0.0,0.0,0.0,-0.025399532,0.012839581,-0.76234734
79565184,nan,nan,nan,3.0012016,0.0,-0.010303502,-0.07290865,-0.42971897,0.0,0.0,0.0,0.0,0.0,0.0,-0.023144461,0.011218328,-0.7586618
79665002,nan,nan,nan,3.0012016,0.0,-0.0022352876,-0.015817128,-0.42805958,0.0,0.0,0.0,0.0,0.0,0.0,-0.019337395,0.017388787,-0.75763553
79764786,nan,nan,nan,3.0012016,0.0,-0.031483185,-0.07558551,-0.40473193,0.0,0.0,0.0,0.0,0.0,0.0,-0.024085008,0.013919694,-0.7588252
79865104,0.8813446,0.5298978,nan,3.0012016,0.0,0.0060455617,0.016976224,-0.19623089,0.0,0.0,0.0,0.0,0.0,0.0,-0.019985896,0.0272189,-0.7210993
79965044,0.8813446,0.5298978,nan,3.0012016,0.0,0.013235673,0.036865693,-0.1337398,0.0,0.0,0.0,0.0,0.0,0.0,-0.019374926,0.024651216,-0.7146024
80065272,0.8813446,0.5298978,nan,3.0012016,0.0,0.020305457,0.055634193,-0.13254611,0.0,0.0,0.0,0.0,0.0,0.0,-0.023324287,0.029157668,-0.72324777
80165193,0.8813446,0.5298978,nan,3.0012016,0.0,0.02582243,0.07066277,-0.13252981,0.0,0.0,0.0,0.0,0.0,0.0,-0.020701079,0.021759646,-0.729361
80265212,0.8813446,0.5298978,nan,3.0012016,0.0,0.030514216,0.08262136,-0.13253021,0.0,0.0,0.0,0.0,0.0,0.0,-0.021590734,0.023218725,-0.73689103
80365395,0.8813446,0.5298978,nan,3.0012016,0.0,0.03370336,0.08938772,-0.13253021,0.0,0.0,0.0,0.0,0.0,0.0,-0.01858907,0.018153016,-0.7428078
80465580,0.8813446,0.5298978,nan,3.0012016,0.0,0.035597954,0.09231724,-0.13253021,0.0,0.0,0.0,0.0,0.0,0.0,-0.024097439,0.014873855,-0.7451015
80585739,0.8813446,0.5298978,nan,3.0012016,0.0,0.035309795,0.08837029,-0.13253021,0.0,0.0,0.0,0.0,0.0,0.0,-0.024587393,0.0071413573,-0.752491
80685849,0.8813446,0.5298978,nan,3.0012016,0.0,0.03365506,0.08047965,-0.13253021,0.0,0.0,0.0,0.0,0.0,0.0,-0.029576069,0.0051104156,-0.7582515
80785846,0.8813446,0.5298978,nan,3.0012016,0.0,0.030614385,0.06745629,-0.13253021,0.0,0.0,0.0,0.0,0.0,0.0,-0.031871002,0.0030387742,-0.7587185
80885905,0.8813446,0.5298978,nan,3.0012016,0.0,0.027062505,0.05188744,-0.13253021,0.0,0.0,0.0,0.0,0.0,0.0,-0.02439203,-0.0040254127,-0.75887394
80985946,0.8813446,0.5298978,nan,3.0012016,0.0,0.022316813,0.033017214,-0.13253021,0.0,0.0,0.0,0.0,0.0,0.0,-0.025399355,-0.0054422645,-0.76343113
81086058,0.8813446,0.5298978,nan,3.0012016,0.0,0.016786646,0.014314198,-0.13253021,0.0,0.0,0.0,0.0,0.0,0.0,-0.033577643,-0.0092964815,-0.7635876
81186159,nan,nan,nan,3.0012016,0.0,-0.0023890194,-0.016904948,-0.13253021,0.0,0.0,0.0,0.0,0.0,0.0,-0.029011449,-0.0061545214,-0.7648001
81286772,nan,nan,nan,3.0012016,0.0,-0.035634223,-0.25215146,-0.13253021,0.0,0.0,0.0,0.0,0.0,0.0,-0.03415883,-0.026959576,-0.7649288
81387197,nan,nan,nan,3.0012016,0.0,-0.037892953,-0.26813444,-0.13253021,0.0,0.0,0.0,0.0,0.0,0.0,-0.037296005,-0.027574904,-0.7620465
81506992,nan,nan,nan,3.0012016,0.0,-0.03792134,-0.2683353,-0.13253021,0.0,0.0,0.0,0.0,0.0,0.0,-0.036400564,-0.02446908,-0.7652925
81606923,nan,nan,nan,3.0012016,0.0,-0.0379215,-0.26833647,-0.13253021,0.0,0.0,0.0,0.0,0.0,0.0,-0.037681036,-0.023453321,-0.76810217
81706984,nan,nan,nan,3.0012016,0.0,-0.0379215,-0.26833647,-0.13253021,0.0,0.0,0.0,0.0,0.0,0.0,-0.035759255,-0.018647958,-0.7674024
81807029,nan,nan,nan,3.0012016,0.0,-0.0379215,-0.26833647,-0.13253021,0.0,0.0,0.0,0.0,0.0,0.0,-0.037623014,-0.01513293,-0.7679824
81906935,nan,nan,nan,3.0012016,0.0,-0.0379215,-0.26833647,-0.13253021,0.0,0.0,0.0,0.0,0.0,0.0,-0.03867992,-0.009262795,-0.76897144
82006989,nan,nan,nan,3.0012016,0.0,-0.0379215,-0.26833647,-0.13253021,0.0,0.0,0.0,0.0,0.0,0.0,-0.03873819,-0.004970279,-0.77152276
82107337,nan,nan,nan,3.0012016,0.0,-0.0379215,-0.26833647,-0.13253021,0.0,0.0,0.0,0.0,0.0,0.0,-0.03817688,-0.0043888604,-0.7719619
82207403,nan,nan,nan,3.0012016,0.0,-0.028687045,-0.2029925,-0.13253021,0.0,0.0,0.0,0.0,0.0,0.0,-0.036305305,0.0072694654,-0.7678121
82307467,nan,nan,nan,3.0012016,0.0,-0.017027354,-0.120487325,-0.13253021,0.0,0.0,0.0,0.0,0.0,0.0,-0.034488577,0.015264803,-0.7673458
82407548,nan,nan,nan,3.0012016,0.0,-0.0067850864,-0.048011977,-0.13253021,0.0,0.0,0.0,0.0,0.0,0.0,-0.032999743,0.023947805,-0.76825833
82507634,nan,nan,nan,3.0012016,0.0,-0.0029278968,-0.020718101,-0.13253021,0.0,0.0,0.0,0.0,0.0,0.0,-0.029767623,0.020173064,-0.7709743
82607638,nan,nan,nan,3.0012016,0.0,-0.038830217,0.0054875137,-0.13253021,0.0,0.0,0.0,0.0,0.0,0.0,-0.033256494,0.02546475,-0.7701531
82727787,nan,nan,nan,3.0012016,0.0,-0.16277085,0.023002893,-0.13253021,0.0,0.0,0.0,0.0,0.0,0.0,-0.041747447,0.021973278,-0.77565396
82828004,nan,nan,nan,3.0012016,0.0,-0.20770545,0.029353082,-0.13253021,0.0,0.0,0.0,0.0,0.0,0.0,-0.04869401,0.01618503,-0.77880776
82927999,nan,nan,nan,3.0012016,0.0,-0.26182324,0.037001047,-0.13253021,0.0,0.0,0.0,0.0,0.0,0.0,-0.049527116,0.0107460385,-0.77814794
83028429,nan,nan,nan,3.0012016,0.0,-0.27366492,0.038674522,-0.13253021,0.0,0.0,0.0,0.0,0.0,0.0,-0.051780857,0.016003177,-0.7742723
83128383,nan,nan,nan,3.0012016,0.0,-0.3005092,0.042468175,-0.13253021,0.0,0.0,0.0,0.0,0.0,0.0,-0.049073093,0.008068168,-0.76972204
83228492,nan,nan,nan,3.0012016,0.0,-0.3225399,0.045581568,-0.13253021,0.0,0.0,0.0,0.0,0.0,0.0,-0.04805205,0.010765785,-0.7652614
83328516,nan,nan,nan,3.0012016,0.0,-0.3680513,0.05201327,-0.13253021,0.0,0.0,0.0,0.0,0.0,0.0,-0.050818034,0.010269383,-0.7591233
83428564,nan,nan,nan,3.0012016,0.0,-0.37549284,0.053064916,-0.13253021,0.0,0.0,0.0,0.0,0.0,0.0,-0.053765174,0.010892153,-0.7541973
83528627,nan,nan,nan,3.0012016,0.0,-0.37567148,0.053090163,-0.13253021,0.0,0.0,0.0,0.0,0.0,0.0,-0.048784457,0.005037357,-0.7504484
83628591,nan,nan,nan,3.0012016,0.0,-0.4030263,0.056955963,-0.13253021,0.0,0.0,0.0,0.0,0.0,0.0,-0.050676607,0.013367482,-0.74692535
83728884,nan,nan,nan,3.0012016,0.0,-0.4025299,0.056885812,-0.13253021,0.0,0.0,0.0,0.0,0.0,0.0,-0.04829516,0.016855247,-0.74226534
83829151,nan,nan,nan,3.0012016,0.0,-0.39141855,0.055315547,-0.13253021,0.0,0.0,0.0,0.0,0.0,0.0,-0.043964136,0.007694893,-0.7389141
83949359,nan,nan,nan,3.0012016,0.0,-0.108139284,0.015282323,-0.13253021,0.0,0.0,0.0,0.0,0.0,0.0,-0.008736003,0.007493581,-0.73769563
84049347,0.7602986,0.30097812,nan,3.0012016,0.0,0.009718957,0.0024489209,-0.13253021,0.0,0.0,0.0,0.0,0.0,0.0,-0.0047439598,0.008259953,-0.7357205
84149330,0.7602986,0.30097812,nan,3.0012016,0.0,0.0414006,0.011849281,-0.13253021,0.0,0.0,0.0,0.0,0.0,0.0,-0.0030965172,0.013058562,-0.7344514
84249344,0.7602986,0.30097812,nan,3.0012016,0.0,0.0704462,0.021322178,-0.13253021,0.0,0.0,0.0,0.0,0.0,0.0,0.0051752552,0.013731543,-0.73900944
84349405,0.7602986,0.30097812,nan,3.0012016,0.0,0.10077928,0.032758098,-0.123891905,0.0,0.0,0.0,0.0,0.0,0.0,0.0021303147,0.019313635,-0.7404297
84449469,0.7602986,0.30097812,nan,3.0012016,0.0,0.12640674,0.043830495,-0.12450544,0.0,0.0,0.0,0.0,0.0,0.0,0.002202345,0.018384514,-0.7427613
84549547,0.7602986,0.30097812,nan,3.0012016,0.0,0.15050565,0.055941846,-0.11612065,0.0,0.0,0.0,0.0,0.0,0.0,0.0014520083,0.019366544,-0.7419692
84650209,0.7602986,0.30097812,nan,3.0012016,0.0,0.1698353,0.06782629,-0.116519205,0.0,0.0,0.0,0.0,0.0,0.0,0.004552383,0.018799212,-0.7410385
84769911,0.7602986,0.30097812,-0.9925482,3.0012016,0.0,0.18404558,0.079265386,0.0,0.0,0.0,0.0,0.0,0.0,0.0,-0.0001723282,0.021855645,-0.71678
84869920,0.7602986,0.30097812,-0.9925482,3.0012016,0.0,0.19074109,0.08745027,0.0051984787,0.0,0.0,0.0,0.0,0.0,0.0,-0.0018046238,0.024208877,-0.71976364
84970710,0.7602986,0.30097812,-0.9925482,3.0012016,0.0,0.19284554,0.09418878,0.009041429,0.0,0.0,0.0,0.0,0.0,0.0,-0.0037949309,0.019700326,-0.72307587
85070251,0.7602986,0.30097812,-0.9925482,3.0012016,0.0,0.19191281,0.09790644,0.01064074,0.0,0.0,0.0,0.0,0.0,0.0,-0.009144984,0.019331748,-0.7246769
85170117,0.7602986,0.30097812,-0.9925482,3.0012016,0.0,0.18986323,0.100535154,0.010106564,0.0,0.0,0.0,0.0,0.0,0.0,-0.006881524,0.017998938,-0.73053175
85270394,0.7602986,0.30097812,-0.9925482,3.0012016,0.0,0.18843794,0.101143844,0.0072388053,0.0,0.0,0.0,0.0,0.0,0.0,-0.007972933,0.020491634,-0.73458487
85370739,0.7602986,0.30097812,-0.9925482,3.0012016,0.0,0.18803914,0.099452615,0.0025523305,0.0,0.0,0.0,0.0,0.0,0.0,-0.011338024,0.013695433,-0.7371323
85470535,0.7602986,0.30097812,-0.9925482,3.0012016,0.0,0.18928409,0.0961732,-0.0030071735,0.0,0.0,0.0,0.0,0.0,0.0,-0.004091693,0.019617677,-0.74005187
85570830,0.7602986,0.30097812,-0.9925482,3.0012016,0.0,0.19356386,0.09289699,-0.008353472,0.0,0.0,0.0,0.0,0.0,0.0,-0.0054792054,0.017442366,-0.7404903
85670709,0.7602986,0.30097812,-0.9925482,3.0012016,0.0,0.20024572,0.09039729,-0.01131469,0.0,0.0,0.0,0.0,0.0,0.0,0.0020289775,0.012638748,-0.7385699
85770774,0.7602986,0.30097812,-0.9925482,3.0012016,0.0,0.209249,0.087139904,-0.012212157,0.0,0.0,0.0,0.0,0.0,0.0,0.0012331028,0.01890016,-0.73735857
85891595,0.7602986,0.30097812,-0.9925482,3.0012016,0.0,0.2213125,0.08597222,-0.0100874305,0.0,0.0,0.0,0.0,0.0,0.0,0.0018858574,0.021518394,-0.73431796
85990943,0.7602986,0.30097812,-0.9925482,3.0012016,0.0,0.23132527,0.08653259,-0.007633269,0.0,0.0,0.0,0.0,0.0,0.0,0.0035301652,0.01777564,-0.7347051
86091035,0.7602986,0.30097812,-0.9925482,3.0012016,0.0,0.24101672,0.088947,-0.0049708486,0.0,0.0,0.0,0.0,0.0,0.0,-0.0015708655,0.020122383,-0.73477477
86191371,0.7602986,0.30097812,-0.9925482,3.0012016,0.0,0.24719591,0.09269749,-0.0014525652,0.0,0.0,0.0,0.0,0.0,0.0,-0.0014250241,0.022757329,-0.7298187
86291406,0.7602986,0.30097812,-0.9925482,3.0012016,0.0,0.25080046,0.097996116,0.0030570626,0.0,0.0,0.0,0.0,0.0,0.0,-0.00061417,0.02594503,-0.72575104
86391503,0.7602986,0.30097812,-0.9925482,3.0012016,0.0,0.25044233,0.1039785,0.00857532,0.0,0.0,0.0,0.0,0.0,0.0,-0.002409365,0.025822425,-0.72366303
86491777,0.7602986,0.30097812,-0.9925482,3.0012016,0.0,0.24588189,0.11052434,0.015374184,0.0,0.0,0.0,0.0,0.0,0.0,-0.006417766,0.02329551,-0.7191747
86591596,0.7602986,0.30097812,-0.9925482,3.0012016,0.0,0.23729344,0.11527126,0.021921158,0.0,0.0,0.0,0.0,0.0,0.0,-0.008921006,0.024821993,-0.71845293
86691647,0.7602986,0.30097812,-0.9925482,3.0012016,0.0,0.22362651,0.118668176,0.028814912,0.0,0.0,0.0,0.0,0.0,0.0,-0.016553791,0.023831721,-0.71787554
86791782,0.7602986,0.30097812,-0.9925482,3.0012016,0.0,0.20848735,0.11880129,0.033153534,0.0,0.0,0.0,0.0,0.0,0.0,-0.015411584,0.019216347,-0.7226517
86891984,0.7602986,0.30097812,-0.9925482,3.0012016,0.0,0.19035463,0.11594539,0.035671353,0.0,0.0,0.0,0.0,0.0,0.0,-0.016951313,0.01634972,-0.7215643
86991993,0.7602986,0.30097812,-0.9925482,3.0012016,0.0,0.17162848,0.10857639,0.037371755,0.0,0.0,0.0,0.0,0.0,0.0,-0.022881929,0.010002416,-0.7213742
87092415,0.7602986,0.30097812,-0.9925482,3.0012016,0.0,0.15039761,0.09652363,0.038380384,0.0,0.0,0.0,0.0,0.0,0.0,-0.026591396,0.004464738,-0.72300404
87192505,0.7602986,0.30097812,-0.9925482,3.0012016,0.0,0.13119061,0.08105561,0.03687942,0.0,0.0,0.0,0.0,0.0,0.0,-0.024757022,0.004428286,-0.72729313
87312610,0.7602986,0.30097812,-0.9925482,3.0012016,0.0,0.10983426,0.05747621,0.031561375,0.0,0.0,0.0,0.0,0.0,0.0,-0.028275846,-0.00255825,-0.73469687
87412594,0.7602986,0.30097812,-0.9925482,3.0012016,0.0,0.09401289,0.03375044,0.024698496,0.0,0.0,0.0,0.0,0.0,0.0,-0.028793857,-0.005836064,-0.73816866
87512534,0.7602986,0.30097812,-0.9925482,3.0012016,0.0,0.081695154,0.0105886515,0.018211246,0.0,0.0,0.0,0.0,0.0,0.0,-0.025397342,-0.0044957427,-0.7380562
87612591,0.7602986,0.30097812,-0.9925482,3.0012016,0.0,0.07023324,-0.013813525,0.012215614,0.0,0.0,0.0,0.0,0.0,0.0,-0.022249836,-0.010136355,-0.7403686
87712749,0.7602986,0.30097812,-0.9925482,3.0012016,0.0,0.060893383,-0.0349301,0.008082628,0.0,0.0,0.0,0.0,0.0,0.0,-0.02982979,-0.009360891,-0.73845947
87812969,0.7602986,0.30097812,-0.9925482,3.0012016,0.0,0.052139815,-0.055004105,0.005094826,0.0,0.0,0.0,0.0,0.0,0.0,-0.027124038,-0.016897563,-0.73902726
87914602,0.7602986,0.30097812,-0.9925482,3.0012016,0.0,0.04391648,-0.07275116,0.004051447,0.0,0.0,0.0,0.0,0.0,0.0,-0.024674026,-0.014675963,-0.73583835
88013112,0.7602986,0.30097812,-0.9925482,3.0012016,0.0,0.035687875,-0.08648589,0.0044624805,0.0,0.0,0.0,0.0,0.0,0.0,-0.031169115,-0.012483217,-0.73521674
88113359,0.7602986,0.30097812,-0.9925482,3.0012016,0.0,0.026055213,-0.097964935,0.0055478215,0.0,0.0,0.0,0.0,0.0,0.0,-0.033146076,-0.01420449,-0.7327026
88213305,0.7602986,0.30097812,-0.9925482,3.0012016,0.0,0.014123884,-0.109354764,0.006531656,0.0,0.0,0.0,0.0,0.0,0.0,-0.032957554,-0.015845392,-0.73550797
88313467,0.7602986,0.30097812,-0.9925482,3.0012016,0.0,0.0015358239,-0.11890792,0.0068253875,0.0,0.0,0.0,0.0,0.0,0.0,-0.034871258,-0.014383607,-0.73352915
88413451,0.7602986,0.30097812,-0.9925482,3.0012016,0.0,-0.011428505,-0.12911671,0.005383432,0.0,0.0,0.0,0.0,0.0,0.0,-0.03180652,-0.021894205,-0.7382892
88513725,0.7602986,0.30097812,-0.9925482,3.0012016,0.0,-0.024792433,-0.13937762,0.0018243194,0.0,0.0,0.0,0.0,0.0,0.0,-0.03300289,-0.019806635,-0.74424964
88613752,0.7602986,0.30097812,-0.9925482,3.0012016,0.0,-0.037117697,-0.14932263,-0.004457414,0.0,0.0,0.0,0.0,0.0,0.0,-0.038334586,-0.016335633,-0.7473252
88733832,0.7602986,0.30097812,-0.9925482,3.0012016,0.0,-0.051105626,-0.1601697,-0.015161276,0.0,0.0,0.0,0.0,0.0,0.0,-0.037330355,-0.014860238,-0.75366765
88833970,0.7602986,0.30097812,-0.9925482,3.0012016,0.0,-0.061395925,-0.1668265,-0.02682978,0.0,0.0,0.0,0.0,0.0,0.0,-0.03877309,-0.016728934,-0.759759
88933940,0.7602986,0.30097812,-0.9925482,3.0012016,0.0,-0.06890353,-0.16951427,-0.039848745,0.0,0.0,0.0,0.0,0.0,0.0,-0.034641895,-0.0074544423,-0.76603675
89033992,0.7602986,0.30097812,-0.9925482,3.0012016,0.0,-0.07596154,-0.16814053,-0.055359066,0.0,0.0,0.0,0.0,0.0,0.0,-0.034963034,-0.004872903,-0.7723646
89134136,0.7602986,0.30097812,-0.9925482,3.0012016,0.0,-0.082240105,-0.16264139,-0.070102096,0.0,0.0,0.0,0.0,0.0,0.0,-0.0390757,-0.006168061,-0.7748561
89234173,0.7602986,0.30097812,-0.9925482,3.0012016,0.0,-0.08968078,-0.15445526,-0.08485943,0.0,0.0,0.0,0.0,0.0,0.0,-0.041429684,0.00051129516,-0.7735985
89334383,0.7602986,0.30097812,-0.9925482,3.0012016,0.0,-0.097416125,-0.14466496,-0.096101046,0.0,0.0,0.0,0.0,0.0,0.0,-0.038589902,-0.006409718,-0.77678686
89434537,0.7602986,0.30097812,-0.9925482,3.0012016,0.0,-0.106612444,-0.13339004,-0.1056394,0.0,0.0,0.0,0.0,0.0,0.0,-0.044136047,-0.0003730855,-0.7742722
89534613,0.7602986,0.30097812,-0.9925482,3.0012016,0.0,-0.11607031,-0.12254731,-0.11173493,0.0,0.0,0.0,0.0,0.0,0.0,-0.04381653,1.11118425e-05,-0.7731507
89634719,0.7602986,0.30097812,-0.9925482,3.0012016,0.0,-0.12721229,-0.11275905,-0.11593181,0.0,0.0,0.0,0.0,0.0,0.0,-0.043260276,-0.0013193008,-0.7736122
89734760,0.7602986,0.30097812,-0.9925482,3.0012016,0.0,-0.13741595,-0.10524544,-0.11917579,0.0,0.0,0.0,0.0,0.0,0.0,-0.044019476,0.00070433435,-0.7732349
89834783,0.7602986,0.30097812,-0.9925482,3.0012016,0.0,-0.14775755,-0.09972179,-0.12282884,0.0,0.0,0.0,0.0,0.0,0.0,-0.049363744,-0.001422218,-0.77320784
89954891,0.7602986,0.30097812,-0.9925482,3.0012016,0.0,-0.15845238,-0.0947464,-0.12819237,0.0,0.0,0.0,0.0,0.0,0.0,-0.044316813,0.0009054156,-0.7788988
90055178,0.7602986,0.30097812,-0.9925482,3.0012016,0.0,-0.16534379,-0.0915102,-0.13363916,0.0,0.0,0.0,0.0,0.0,0.0,-0.04821478,0.0017281342,-0.7785023
90155253,0.7602986,0.30097812,-0.9925482,3.0012016,0.0,-0.17114134,-0.088800184,-0.14100248,0.0,0.0,0.0,0.0,0.0,0.0,-0.04597695,-0.0027653596,-0.7799338
90255853,0.7602986,0.30097812,-0.9925482,3.0012016,0.0,-0.17484978,-0.08680318,-0.14826214,0.0,0.0,0.0,0.0,0.0,0.0,-0.04413676,-0.0006306807,-0.7850835
90356143,nan,nan,-0.9925482,3.0012016,0.0,-0.11270685,0.015927812,-0.15766513,0.0,0.0,0.0,0.0,0.0,0.0,-0.035636023,0.007743192,-0.78830755
90457041,nan,nan,-0.9925482,3.0012016,0.0,-0.16296421,0.023030218,-0.16698211,0.0,0.0,0.0,0.0,0.0,0.0,-0.039683405,0.011736309,-0.7904036
90555646,nan,nan,-0.9925482,3.0012016,0.0,-0.195409,0.027615339,-0.17522806,0.0,0.0,0.0,0.0,0.0,0.0,-0.046181925,0.012560514,-0.7919992
90655826,nan,nan,-0.9925482,3.0012016,0.0,-0.21516213,0.030406866,-0.18496436,0.0,0.0,0.0,0.0,0.0,0.0,-0.03928081,0.011578505,-0.7981809
90755811,nan,nan,-0.9925482,3.0012016,0.0,-0.2942472,0.041583225,-0.19613725,0.0,0.0,0.0,0.0,0.0,0.0,-0.05264264,0.015731197,-0.8010992
91376498,nan,nan,-0.9925482,3.0012016,0.0,-0.30671135,0.043344665,-0.29665518,0.0,0.0,0.0,0.0,0.0,0.0,-0.031483736,0.01068957,-0.83844066
91576658,nan,nan,-0.9925482,3.0012016,0.0,-0.28963313,0.04093116,-0.32305163,0.0,0.0,0.0,0.0,0.0,0.0,-0.02825367,0.009421828,-0.83634806
91676814,nan,nan,-0.9925482,3.0012016,0.0,-0.2567284,0.03628104,-0.3308528,0.0,0.0,0.0,0.0,0.0,0.0,-0.021331225,0.011322288,-0.8328767
91776994,nan,nan,-0.9925482,3.0012016,0.0,-0.16553412,0.023393402,-0.33556312,0.0,0.0,0.0,0.0,0.0,0.0,-0.01599693,0.009355029,-0.82617766
91877016,nan,nan,-0.9925482,3.0012016,0.0,-0.021513615,0.0030403193,-0.33542645,0.0,0.0,0.0,0.0,0.0,0.0,-0.0016884785,0.0031429653,-0.8203327
91977099,0.628407,0.32398647,-0.9925482,3.0012016,0.0,0.0,0.0,-0.3288191,0.0,0.0,0.0,0.0,0.0,0.0,-0.0039100107,0.006025882,-0.8077998
92077121,0.628407,0.32398647,-0.9925482,3.0012016,0.0,0.027666971,-0.0014432996,-0.3172031,0.0,0.0,0.0,0.0,0.0,0.0,-0.0036833603,0.0059267227,-0.7943949
92177165,0.628407,0.32398647,-0.9925482,3.0012016,0.0,0.052046612,-0.00155233,-0.2985441,0.0,0.0,0.0,0.0,0.0,0.0,-0.0055020023,0.007921662,-0.7849618
92277217,0.628407,0.32398647,-0.9925482,3.0012016,0.0,0.06954842,5.5038927e-05,-0.27835566,0.0,0.0,0.0,0.0,0.0,0.0,-0.006536307,0.0072512673,-0.77600706
92377339,0.628407,0.32398647,-0.9925482,3.0012016,0.0,0.08415288,0.00402676,-0.2557863,0.0,0.0,0.0,0.0,0.0,0.0,-0.009057816,0.0070130443,-0.76832956
92477468,0.628407,0.32398647,-0.9925482,3.0012016,0.0,0.09331069,0.009993416,-0.2331261,0.0,0.0,0.0,0.0,0.0,0.0,-0.0070243403,0.014810355,-0.7588413
92597609,0.628407,0.32398647,-0.9925482,3.0012016,0.0,0.10066495,0.021611104,-0.20319635,0.0,0.0,0.0,0.0,0.0,0.0,-0.010872178,0.019389428,-0.74434185
92697792,0.628407,0.32398647,-0.9925482,3.0012016,0.0,0.104115024,0.033926234,-0.17665458,0.0,0.0,0.0,0.0,0.0,0.0,-0.010326061,0.02107129,-0.737735
92797909,0.628407,0.32398647,-0.9925482,3.0012016,0.0,0.10630639,0.047443416,-0.15110105,0.0,0.0,0.0,0.0,0.0,0.0,-0.014476375,0.020797802,-0.7316778
92898159,0.628407,0.32398647,-0.9925482,3.0012016,0.0,0.10658555,0.061614465,-0.1276663,0.0,0.0,0.0,0.0,0.0,0.0,-0.014998926,0.026408618,-0.7277155
92998155,0.628407,0.32398647,-0.9925482,3.0012016,0.0,0.105868906,0.07723771,-0.10381371,0.0,0.0,0.0,0.0,0.0,0.0,-0.017117444,0.024281895,-0.72707665
93098181,0.628407,0.32398647,-0.9925482,3.0012016,0.0,0.104506806,0.089450166,-0.08510417,0.0,0.0,0.0,0.0,0.0,0.0,-0.021399196,0.026602095,-0.72697824
93198189,0.628407,0.32398647,-0.9925482,3.0012016,0.0,0.103101335,0.10000183,-0.06926036,0.0,0.0,0.0,0.0,0.0,0.0,-0.020564048,0.026440676,-0.7335453
93298248,0.628407,0.32398647,-0.9925482,3.0012016,0.0,0.1019172,0.10719127,-0.05875361,0.0,0.0,0.0,0.0,0.0,0.0,-0.023549257,0.02230039,-0.73531747
93398661,0.628407,0.32398647,-0.9925482,3.0012016,0.0,0.10049559,0.11166028,-0.052348733,0.0,0.0,0.0,0.0,0.0,0.0,-0.019896157,0.020648068,-0.7432756
93498864,0.628407,0.32398647,-0.9925482,3.0012016,0.0,0.098963164,0.113175765,-0.049770534,0.0,0.0,0.0,0.0,0.0,0.0,-0.022908077,0.01809516,-0.74810934
93598739,0.628407,0.32398647,-0.9925482,3.0012016,0.0,0.09716976,0.11085225,-0.049406826,0.0,0.0,0.0,0.0,0.0,0.0,-0.024719808,0.019012325,-0.7479398
93698928,0.628407,0.32398647,-0.9925482,3.0012016,0.0,0.09471797,0.10654125,-0.04890293,0.0,0.0,0.0,0.0,0.0,0.0,-0.026043244,0.021248177,-0.7498687
93798815,0.628407,0.32398647,-0.9925482,3.0012016,0.0,0.09156377,0.1009456,-0.04738629,0.0,0.0,0.0,0.0,0.0,0.0,-0.023771571,0.015567409,-0.7524172
93898873,0.628407,0.32398647,-0.9925482,3.0012016,0.0,0.087880805,0.094046496,-0.044197142,0.0,0.0,0.0,0.0,0.0,0.0,-0.022709727,0.018141992,-0.74840117
94018969,0.628407,0.32398647,-0.9925482,3.0012016,0.0,0.08381138,0.08581894,-0.03627473,0.0,0.0,0.0,0.0,0.0,0.0,-0.020983804,0.011938708,-0.74147654
94119319,0.628407,0.32398647,-0.9925482,3.0012016,0.0,0.08055463,0.07846159,-0.025615871,0.0,0.0,0.0,0.0,0.0,0.0,-0.025146918,0.013064334,-0.7325709
94219314,0.628407,0.32398647,-0.9925482,3.0012016,0.0,0.07638412,0.06967028,-0.009580195,0.0,0.0,0.0,0.0,0.0,0.0,-0.027369125,0.0041609784,-0.7232639
94319677,0.628407,0.32398647,-0.9925482,3.0012016,0.0,0.07255852,0.060459867,0.007634163,0.0,0.0,0.0,0.0,0.0,0.0,-0.023864415,0.0064530857,-0.72110724
94419467,0.628407,0.32398647,-0.9925482,3.0012016,0.0,0.0689465,0.049976792,0.02683711,0.0,0.0,0.0,0.0,0.0,0.0,-0.026333168,0.0064357957,-0.71609265
94519574,0.628407,0.32398647,-0.9925482,3.0012016,0.0,0.06653216,0.039260987,0.043179393,0.0,0.0,0.0,0.0,0.0,0.0,-0.023303185,0.005332398,-0.71519506
94619679,0.628407,0.32398647,-0.9925482,3.0012016,0.0,0.06468252,0.02752943,0.057604074,0.0,0.0,0.0,0.0,0.0,0.0,-0.019452473,0.0042297016,-0.7191247
94719672,0.628407,0.32398647,-0.9925482,3.0012016,0.0,0.06282394,0.015821652,0.06777334,0.0,0.0,0.0,0.0,0.0,0.0,-0.0219937,0.0007221615,-0.7192857
94819883,0.628407,0.32398647,-0.9925482,3.0012016,0.0,0.061191,0.0038389652,0.074050546,0.0,0.0,0.0,0.0,0.0,0.0,-0.019670371,-0.00092301983,-0.7224846
94920017,0.628407,0.32398647,-0.9925482,3.0012016,0.0,0.05934063,-0.0063599125,0.07551694,0.0,0.0,0.0,0.0,0.0,0.0,-0.028894765,0.0013054805,-0.7296464
95020078,0.628407,0.32398647,-0.9925482,3.0012016,0.0,0.05655148,-0.016096847,0.073577404,0.0,0.0,0.0,0.0,0.0,0.0,-0.025312282,-0.0068992693,-0.7335254
95120387,0.628407,0.32398647,-0.9925482,3.0012016,0.0,0.052758947,-0.025033625,0.068885446,0.0,0.0,0.0,0.0,0.0,0.0,-0.028528497,-0.0025056023,-0.7376882
95240329,0.628407,0.32398647,-0.9925482,3.0012016,0.0,0.046319053,-0.033255037,0.062378526,0.0,0.0,0.0,0.0,0.0,0.0,-0.029148476,-0.0017939433,-0.74111706
95340393,0.628407,0.32398647,-0.9925482,3.0012016,0.0,0.039501302,-0.03930589,0.058079958,0.0,0.0,0.0,0.0,0.0,0.0,-0.025390098,-0.0034019556,-0.7415216
95440553,0.628407,0.32398647,-0.9925482,3.0012016,0.0,0.030146157,-0.045179117,0.054687977,0.0,0.0,0.0,0.0,0.0,0.0,-0.031776547,-0.0051947357,-0.73965144
95540601,0.628407,0.32398647,-0.9925482,3.0012016,0.0,0.019523362,-0.051079664,0.053584814,0.0,0.0,0.0,0.0,0.0,0.0,-0.039395273,-0.0048712594,-0.7386017
95640652,0.628407,0.32398647,-0.9925482,3.0012016,0.0,0.00619975,-0.05880233,0.053835034,0.0,0.0,0.0,0.0,0.0,0.0,-0.041865308,-0.0076993597,-0.73900944
95741145,0.628407,0.32398647,-0.9925482,3.0012016,0.0,-0.007134053,-0.06762696,0.05468464,0.0,0.0,0.0,0.0,0.0,0.0,-0.03660868,-0.009950103,-0.7405605
95841206,0.628407,0.32398647,-0.9925482,3.0012016,0.0,-0.022131482,-0.07910572,0.054984927,0.0,0.0,0.0,0.0,0.0,0.0,-0.042780206,-0.01060617,-0.7408098
95941593,0.628407,0.32398647,-0.9925482,3.0012016,0.0,-0.0354325,-0.09098716,0.053375244,0.0,0.0,0.0,0.0,0.0,0.0,-0.03930133,-0.011069337,-0.7466301
96041942,0.628407,0.32398647,-0.9925482,3.0012016,0.0,-0.048471346,-0.105682895,0.04945767,0.0,0.0,0.0,0.0,0.0,0.0,-0.04282254,-0.015346849,-0.7495446
96141348,0.628407,0.32398647,-0.9925482,3.0012016,0.0,-0.059196915,-0.120468944,0.04311669,0.0,0.0,0.0,0.0,0.0,0.0,-0.040615417,-0.015400505,-0.7544776
96262099,0.628407,0.32398647,-0.9925482,3.0012016,0.0,-0.071445,-0.13913263,0.031077981,0.0,0.0,0.0,0.0,0.0,0.0,-0.046399403,-0.020269107,-0.7647517
96361768,0.628407,0.32398647,-0.9925482,3.0012016,0.0,-0.08113774,-0.15426277,0.016460538,0.0,0.0,0.0,0.0,0.0,0.0,-0.0471829,-0.023829013,-0.7745513
96461845,0.628407,0.32398647,-0.9925482,3.0012016,0.0,-0.088927396,-0.16607101,-0.00030738115,0.0,0.0,0.0,0.0,0.0,0.0,-0.05102456,-0.02037875,-0.77971524
96561733,0.628407,0.32398647,-0.9925482,3.0012016,0.0,-0.09691302,-0.17686164,-0.019524276,0.0,0.0,0.0,0.0,0.0,0.0,-0.0527457,-0.019913277,-0.78484476
96661780,0.628407,0.32398647,-0.9925482,3.0012016,0.0,-0.10466592,-0.1841316,-0.034992993,0.0,0.0,0.0,0.0,0.0,0.0,-0.047774337,-0.018095456,-0.78274214
96762079,0.628407,0.32398647,-0.9925482,3.0012016,0.0,-0.11381609,-0.18937649,-0.047833323,0.0,0.0,0.0,0.0,0.0,0.0,-0.049078938,-0.019992895,-0.78017867
96863066,0.628407,0.32398647,-0.9925482,3.0012016,0.0,-0.123147845,-0.19182464,-0.05646068,0.0,0.0,0.0,0.0,0.0,0.0,-0.050858997,-0.017328149,-0.7792178
96962179,0.628407,0.32398647,-0.9925482,3.0012016,0.0,-0.13118829,-0.19151072,-0.060813546,0.0,0.0,0.0,0.0,0.0,0.0,-0.05108164,-0.015319473,-0.77484107
97063745,0.628407,0.32398647,-0.9925482,3.0012016,0.0,-0.13888337,-0.18908766,-0.06202483,0.0,0.0,0.0,0.0,0.0,0.0,-0.05449765,-0.012180324,-0.77011347
97162422,0.628407,0.32398647,-0.9925482,3.0012016,0.0,-0.14465222,-0.18505204,-0.060359836,0.0,0.0,0.0,0.0,0.0,0.0,-0.049845904,-0.011284691,-0.76812005
97262342,0.628407,0.32398647,-0.9925482,3.0012016,0.0,-0.14962356,-0.17986031,-0.05724609,0.0,0.0,0.0,0.0,0.0,0.0,-0.048879385,-0.01135198,-0.7637694
97382573,0.628407,0.32398647,-0.9925482,3.0012016,0.0,-0.15455055,-0.17199212,-0.0534482,0.0,0.0,0.0,0.0,0.0,0.0,-0.0478348,-0.0049936315,-0.76465833
97482672,0.628407,0.32398647,-0.9925482,3.0012016,0.0,-0.1577465,-0.1626782,-0.052476466,0.0,0.0,0.0,0.0,0.0,0.0,-0.04922934,-0.008753579,-0.7636883
97582814,0.628407,0.32398647,-0.9925482,3.0012016,0.0,-0.16088122,-0.15332107,-0.0528059,0.0,0.0,0.0,0.0,0.0,0.0,-0.048405424,-0.008721949,-0.7666149
97682746,0.628407,0.32398647,-0.9925482,3.0012016,0.0,-0.16385157,-0.14271334,-0.056996644,0.0,0.0,0.0,0.0,0.0,0.0,-0.051487178,0.0010024897,-0.77233285
97782841,0.628407,0.32398647,-0.9925482,3.0012016,0.0,-0.16584101,-0.13318588,-0.06481218,0.0,0.0,0.0,0.0,0.0,0.0,-0.051120818,0.00028824486,-0.7796831
97882920,0.628407,0.32398647,-0.9925482,3.0012016,0.0,-0.16672882,-0.122119606,-0.07765931,0.0,0.0,0.0,0.0,0.0,0.0,-0.04840061,-0.0012112554,-0.7875995
97982972,0.628407,0.32398647,-0.9925482,3.0012016,0.0,-0.16582271,-0.1103366,-0.09472704,0.0,0.0,0.0,0.0,0.0,0.0,-0.046135847,0.004313608,-0.79882133
98083154,0.628407,0.32398647,-0.9925482,3.0012016,0.0,-0.16324127,-0.09630581,-0.1159572,0.0,0.0,0.0,0.0,0.0,0.0,-0.042543676,0.00076961267,-0.80778074
98183384,0.628407,0.32398647,-0.9925482,3.0012016,0.0,-0.15895571,-0.08235146,-0.13789117,0.0,0.0,0.0,0.0,0.0,0.0,-0.041767783,0.008450442,-0.8159362
98283414,0.628407,0.32398647,-0.9925482,3.0012016,0.0,-0.15167567,-0.06638459,-0.16347498,0.0,0.0,0.0,0.0,0.0,0.0,-0.039337207,0.009497568,-0.82707727
98383464,0.628407,0.32398647,-0.9925482,3.0012016,0.0,-0.14315964,-0.051126268,-0.18752354,0.0,0.0,0.0,0.0,0.0,0.0,-0.03988655,0.012433168,-0.83687913
98503597,0.628407,0.32398647,-0.9925482,3.0012016,0.0,-0.12863006,-0.030225545,-0.21947086,0.0,0.0,0.0,0.0,0.0,0.0,-0.03385308,0.017175607,-0.8459198
98603657,0.628407,0.32398647,-0.9925482,3.0012016,0.0,-0.11297312,-0.011376411,-0.24548686,0.0,0.0,0.0,0.0,0.0,0.0,-0.032421183,0.012536833,-0.84950364
98703669,0.628407,0.32398647,-0.9925482,3.0012016,0.0,-0.09688567,0.005521588,-0.26677072,0.0,0.0,0.0,0.0,0.0,0.0,-0.02337314,0.013072296,-0.854543
98803855,0.628407,0.32398647,-0.9925482,3.0012016,0.0,-0.078618124,0.02305899,-0.2879709,0.0,0.0,0.0,0.0,0.0,0.0,-0.026403753,0.019395502,-0.85394794
98903831,0.628407,0.32398647,-0.9925482,3.0012016,0.0,-0.061700054,0.04000325,-0.30444872,0.0,0.0,0.0,0.0,0.0,0.0,-0.022265727,0.021216717,-0.85629123
99004557,0.628407,0.32398647,-0.9925482,3.0012016,0.0,-0.04466573,0.057485696,-0.31885135,0.0,0.0,0.0,0.0,0.0,0.0,-0.024613816,0.023569034,-0.8569571
99104577,0.628407,0.32398647,-0.9925482,3.0012016,0.0,-0.029786082,0.07324447,-0.33085448,0.0,0.0,0.0,0.0,0.0,0.0,-0.021871382,0.02983939,-0.8594961
99204795,0.628407,0.32398647,-0.9925482,3.0012016,0.0,-0.01467835,0.0899087,-0.34292138,0.0,0.0,0.0,0.0,0.0,0.0,-0.0204777,0.019456904,-0.86228204
99304572,0.628407,0.32398647,-0.9925482,3.0012016,0.0,-0.0015367866,0.1032739,-0.3539958,0.0,0.0,0.0,0.0,0.0,0.0,-0.01797001,0.022401823,-0.8619894
99404790,0.628407,0.32398647,-0.9925482,3.0012016,0.0,0.01223914,0.11618677,-0.3654197,0.0,0.0,0.0,0.0,0.0,0.0,-0.018993855,0.025949389,-0.8613554
99504646,0.628407,0.32398647,-0.9925482,3.0012016,0.0,0.025128046,0.12730941,-0.37453187,0.0,0.0,0.0,0.0,0.0,0.0,-0.018328555,0.02389628,-0.85978687
99604522,0.628407,0.32398647,-0.9925482,3.0012016,0.0,0.036348287,0.13498957,-0.38119745,0.0,0.0,0.0,0.0,0.0,0.0,-0.014069,0.021646876,-0.856707
99724970,0.628407,0.32398647,-0.9925482,3.0012016,0.0,0.049661536,0.14233641,-0.38616306,0.0,0.0,0.0,0.0,0.0,0.0,-0.012610411,0.01878729,-0.8532801
99825389,0.628407,0.32398647,-0.9925482,3.0012016,0.0,0.059787963,0.14579466,-0.38532782,0.0,0.0,0.0,0.0,0.0,0.0,-0.0144733805,0.019636989,-0.8454315
99925261,0.628407,0.32398647,-0.9925482,3.0012016,0.0,0.06845852,0.14840505,-0.38046646,0.0,0.0,0.0,0.0,0.0,0.0,-0.017143767,0.023867916,-0.8354885
100025221,0.628407,0.32398647,-0.9925482,3.0012016,0.0,0.07670546,0.14919898,-0.37017488,0.0,0.0,0.0,0.0,0.0,0.0,-0.0163727,0.021129852,-0.82546806
100125390,0.628407,0.32398647,-0.9925482,3.0012016,0.0,0.08341517,0.14904237,-0.35498506,0.0,0.0,0.0,0.0,0.0,0.0,-0.015223343,0.018957322,-0.8134364
100225298,0.628407,0.32398647,-0.9925482,3.0012016,0.0,0.090341814,0.14772776,-0.3329363,0.0,0.0,0.0,0.0,0.0,0.0,-0.015810046,0.013721787,-0.7962748
100325448,0.628407,0.32398647,-0.9925482,3.0012016,0.0,0.09576689,0.14494687,-0.30709136,0.0,0.0,0.0,0.0,0.0,0.0,-0.01804481,0.017917996,-0.78151894
100426258,0.628407,0.32398647,-0.9925482,3.0012016,0.0,0.10099026,0.14112371,-0.27451092,0.0,0.0,0.0,0.0,0.0,0.0,-0.018209372,0.0125004165,-0.7682241
100525798,0.628407,0.32398647,-0.9925482,3.0012016,0.0,0.1057423,0.1364631,-0.24251413,0.0,0.0,0.0,0.0,0.0,0.0,-0.011474444,0.0076045636,-0.75988
100625837,0.628407,0.32398647,-0.9925482,3.0012016,0.0,0.111282825,0.1293276,-0.20850217,0.0,0.0,0.0,0.0,0.0,0.0,-0.010680744,0.007595633,-0.7542703
100725881,0.628407,0.32398647,-0.9925482,3.0012016,0.0,0.11667522,0.120750226,-0.17919701,0.0,0.0,0.0,0.0,0.0,0.0,-0.017140424,0.008273703,-0.74735475
100826050,0.628407,0.32398647,-0.9925482,3.0012016,0.0,0.12291339,0.109459706,-0.15014988,0.0,0.0,0.0,0.0,0.0,0.0,-0.016143985,0.0062552304,-0.74260765
100946055,0.628407,0.32398647,-0.9925482,3.0012016,0.0,0.12995023,0.09579064,-0.12077993,0.0,0.0,0.0,0.0,0.0,0.0,-0.015720766,0.0056034676,-0.7402902
101046006,0.628407,0.32398647,-0.9925482,3.0012016,0.0,0.1353053,0.08508112,-0.100943625,0.0,0.0,0.0,0.0,0.0,0.0,-0.007472813,0.0017008805,-0.74220353
101146127,0.628407,0.32398647,-0.9925482,3.0012016,0.0,0.14101537,0.07291067,-0.083167195,0.0,0.0,0.0,0.0,0.0,0.0,-0.012172178,0.00208371,-0.7419807
101246181,0.628407,0.32398647,-0.9925482,3.0012016,0.0,0.14614601,0.06278147,-0.068929255,0.0,0.0,0.0,0.0,0.0,0.0,-0.009690821,0.004713386,-0.74240994
101346378,0.628407,0.32398647,-0.9925482,3.0012016,0.0,0.15106428,0.05320107,-0.053966284,0.0,0.0,0.0,0.0,0.0,0.0,-0.010024447,0.002534499,-0.7394879
101446574,0.628407,0.32398647,-0.9925482,3.0012016,0.0,0.15488425,0.04628352,-0.040277362,0.0,0.0,0.0,0.0,0.0,0.0,-0.012067866,0.0024283817,-0.7398317
101546682,0.628407,0.32398647,-0.9925482,3.0012016,0.0,0.1571339,0.039508212,-0.025201917,0.0,0.0,0.0,0.0,0.0,0.0,-0.009504937,0.00400317,-0.73981553
101646672,0.628407,0.32398647,-0.9925482,3.0012016,0.0,0.15773734,0.033763383,-0.01187551,0.0,0.0,0.0,0.0,0.0,0.0,-0.013431522,0.00035823183,-0.73939294
101746743,0.628407,0.32398647,-0.9925482,3.0012016,0.0,0.15618038,0.02783169,0.0020297766,0.0,0.0,0.0,0.0,0.0,0.0,-0.0150889335,0.0016353298,-0.7374411
101846776,0.628407,0.32398647,-0.9925482,3.0012016,0.0,0.15168573,0.02163984,0.014874816,0.0,0.0,0.0,0.0,0.0,0.0,-0.018819518,-0.004619803,-0.73830426
101966942,0.628407,0.32398647,-0.9925482,3.0012016,0.0,0.14299542,0.011975157,0.029848456,0.0,0.0,0.0,0.0,0.0,0.0,-0.018839898,-0.00067645777,-0.73359835
102067186,0.628407,0.32398647,-0.9925482,3.0012016,0.0,0.13337438,0.002242808,0.04363084,0.0,0.0,0.0,0.0,0.0,0.0,-0.018897263,-0.0029445942,-0.72946596
102167162,0.628407,0.32398647,-0.9925482,3.0012016,0.0,0.12331767,-0.0069729565,0.058045626,0.0,0.0,0.0,0.0,0.0,0.0,-0.029069928,-0.0026107691,-0.7231097
102267435,0.628407,0.32398647,-0.9925482,3.0012016,0.0,0.111755244,-0.017837511,0.07510948,0.0,0.0,0.0,0.0,0.0,0.0,-0.026195854,-0.0050723897,-0.71902055
102367695,0.628407,0.32398647,-0.9925482,3.0012016,0.0,0.09986451,-0.028029254,0.092416525,0.0,0.0,0.0,0.0,0.0,0.0,-0.032871854,-0.0070115156,-0.7195013
102467629,0.628407,0.32398647,-0.9925482,3.0012016,0.0,0.08866018,-0.03714196,0.10663247,0.0,0.0,0.0,0.0,0.0,0.0,-0.026446532,-0.001875951,-0.7196534
102567795,0.628407,0.32398647,-0.9925482,3.0012016,0.0,0.07631538,-0.044876177,0.11894095,0.0,0.0,0.0,0.0,0.0,0.0,-0.025862627,-0.0032908535,-0.7227571
102667649,0.628407,0.32398647,-0.9925482,3.0012016,0.0,0.06489073,-0.050298247,0.12630785,0.0,0.0,0.0,0.0,0.0,0.0,-0.033961184,-0.002581554,-0.72782576
102768916,0.628407,0.32398647,-0.9925482,3.0012016,0.0,0.052572597,-0.0533351,0.12933433,0.0,0.0,0.0,0.0,0.0,0.0,-0.03287832,0.0032862513,-0.7334496
102867786,0.628407,0.32398647,-0.9925482,3.0012016,0.0,0.040844265,-0.05388586,0.12836099,0.0,0.0,0.0,0.0,0.0,0.0,-0.035653736,-0.0001959498,-0.7370651
102968527,0.628407,0.32398647,-0.9925482,3.0012016,0.0,0.028668374,-0.052364644,0.124421716,0.0,0.0,0.0,0.0,0.0,0.0,-0.035123236,0.0065312283,-0.74113137
103068133,0.628407,0.32398647,-0.9925482,3.0012016,0.0,0.018373886,-0.048947103,0.11933911,0.0,0.0,0.0,0.0,0.0,0.0,-0.032753702,0.0068780333,-0.74607545
103168541,0.628407,0.32398647,-0.9925482,3.0012016,0.0,0.008709684,-0.043557167,0.11284995,0.0,0.0,0.0,0.0,0.0,0.0,-0.03404754,0.008775881,-0.7476753
103289586,0.628407,0.32398647,-0.9925482,3.0012016,0.0,-0.00042190848,-0.03656527,0.10575163,0.0,0.0,0.0,0.0,0.0,0.0,-0.035770345,0.0058834497,-0.7504649
103388482,0.628407,0.32398647,-0.9925482,3.0012016,0.0,-0.0071554002,-0.030533837,0.101581454,0.0,0.0,0.0,0.0,0.0,0.0,-0.033546183,0.0067730304,-0.74980456
103489030,0.628407,0.32398647,-0.9925482,3.0012016,0.0,-0.014650491,-0.025613146,0.0988183,0.0,0.0,0.0,0.0,0.0,0.0,-0.03723771,0.010155419,-0.7493725
103588617,0.628407,0.32398647,-0.9925482,3.0012016,0.0,-0.021571184,-0.022945486,0.09713757,0.0,0.0,0.0,0.0,0.0,0.0,-0.039882135,0.0035936998,-0.7505572
103688617,0.628407,0.32398647,-0.9925482,3.0012016,0.0,-0.029101098,-0.022875441,0.09605348,0.0,0.0,0.0,0.0,0.0,0.0,-0.03861002,0.0018850358,-0.74888784
103789141,0.628407,0.32398647,-0.9925482,3.0012016,0.0,-0.03667784,-0.02525712,0.09641051,0.0,0.0,0.0,0.0,0.0,0.0,-0.04062742,0.0028876564,-0.7450349
103888975,0.628407,0.32398647,-0.9925482,3.0012016,0.0,-0.04584437,-0.029378103,0.098134756,0.0,0.0,0.0,0.0,0.0,0.0,-0.042113267,-0.0019751159,-0.741704
103989111,0.628407,0.32398647,-0.9925482,3.0012016,0.0,-0.05542154,-0.034865066,0.10033572,0.0,0.0,0.0,0.0,0.0,0.0,-0.036767162,0.00061894907,-0.7430365
104089113,0.628407,0.32398647,-0.9925482,3.0012016,0.0,-0.06620487,-0.04141722,0.10320556,0.0,0.0,0.0,0.0,0.0,0.0,-0.042223167,-0.0005965526,-0.7381172
104189251,0.628407,0.32398647,-0.9925482,3.0012016,0.0,-0.075928465,-0.04773155,0.105424404,0.0,0.0,0.0,0.0,0.0,0.0,-0.041636024,0.00046327524,-0.73931205
104289284,0.628407,0.32398647,-0.9925482,3.0012016,0.0,-0.08532546,-0.052431516,0.1067965,0.0,0.0,0.0,0.0,0.0,0.0,-0.037988544,0.0008059954,-0.7419313
104389380,0.628407,0.32398647,-0.9925482,3.0012016,0.0,-0.09289365,-0.054592445,0.10675657,0.0,0.0,0.0,0.0,0.0,0.0,-0.04133822,0.0013635363,-0.7411847
104489588,0.628407,0.32398647,-0.9925482,3.0012016,0.0,-0.09871894,-0.053857602,0.10501075,0.0,0.0,0.0,0.0,0.0,0.0,-0.038709078,0.0010237424,-0.7448121
104609599,0.628407,0.32398647,-0.9925482,3.0012016,0.0,-0.10225185,-0.049497295,0.101083755,0.0,0.0,0.0,0.0,0.0,0.0,-0.03560662,0.007379475,-0.746773
104710036,0.628407,0.32398647,-0.9925482,3.0012016,0.0,-0.10252427,-0.044481363,0.09611344,0.0,0.0,0.0,0.0,0.0,0.0,-0.037724942,0.0039014448,-0.75107247
104810124,0.628407,0.32398647,-0.9925482,3.0012016,0.0,-0.09982148,-0.037391618,0.08894861,0.0,0.0,0.0,0.0,0.0,0.0,-0.03457092,0.0013889147,-0.75457716
104910186,0.628407,0.32398647,-0.9925482,3.0012016,0.0,-0.095323406,-0.03130056,0.08180094,0.0,0.0,0.0,0.0,0.0,0.0,-0.035647333,0.0057368185,-0.7563839
105010193,0.628407,0.32398647,-0.9925482,3.0012016,0.0,-0.08875882,-0.025873648,0.0730356,0.0,0.0,0.0,0.0,0.0,0.0,-0.03405619,0.0051487368,-0.76149404
105110196,0.628407,0.32398647,-0.9925482,3.0012016,0.0,-0.08109278,-0.022612931,0.06273711,0.0,0.0,0.0,0.0,0.0,0.0,-0.03034074,0.0007792809,-0.76767415
105210209,0.628407,0.32398647,-0.9925482,3.0012016,0.0,-0.07220649,-0.022145864,0.05034733,0.0,0.0,0.0,0.0,0.0,0.0,-0.026830439,0.0017695443,-0.774864
105310253,0.628407,0.32398647,-0.9925482,3.0012016,0.0,-0.06401695,-0.024293203,0.03781259,0.0,0.0,0.0,0.0,0.0,0.0,-0.029275626,-0.0047523356,-0.77591616
105410722,0.628407,0.32398647,-0.9925482,3.0012016,0.0,-0.055582806,-0.02944696,0.022662759,0.0,0.0,0.0,0.0,0.0,0.0,-0.026595725,-0.00244577,-0.7859874
105511045,0.628407,0.32398647,-0.9925482,3.0012016,0.0,-0.048257023,-0.037052695,0.006318152,0.0,0.0,0.0,0.0,0.0,0.0,-0.028478473,-0.011936337,-0.7909707
105610741,0.628407,0.32398647,-0.9925482,3.0012016,0.0,-0.04277725,-0.046496313,-0.010289073,0.0,0.0,0.0,0.0,0.0,0.0,-0.030309014,-0.0069390647,-0.7952164
105711829,0.628407,0.32398647,-0.9925482,3.0012016,0.0,-0.038594577,-0.058850713,-0.028775513,0.0,0.0,0.0,0.0,0.0,0.0,-0.030506982,-0.0153625645,-0.80346316
105832145,0.628407,0.32398647,-0.9925482,3.0012016,0.0,-0.035418626,-0.075032584,-0.050255716,0.0,0.0,0.0,0.0,0.0,0.0,-0.031992473,-0.019237721,-0.8057873
105930873,0.628407,0.32398647,-0.9925482,3.0012016,0.0,-0.034058053,-0.089157514,-0.06555247,0.0,0.0,0.0,0.0,0.0,0.0,-0.030922394,-0.017504765,-0.80376506
106031854,0.628407,0.32398647,-0.9925482,3.0012016,0.0,-0.033681843,-0.10535555,-0.079250574,0.0,0.0,0.0,0.0,0.0,0.0,-0.030962171,-0.026187662,-0.805825
106131193,0.628407,0.32398647,-0.9925482,3.0012016,0.0,-0.03368558,-0.120020226,-0.090004325,0.0,0.0,0.0,0.0,0.0,0.0,-0.033434153,-0.019567411,-0.8060498
106231970,0.628407,0.32398647,-0.9925482,3.0012016,0.0,-0.03287449,-0.13508789,-0.099794805,0.0,0.0,0.0,0.0,0.0,0.0,-0.02939638,-0.022859836,-0.80651057
106331432,0.628407,0.32398647,-0.9925482,3.0012016,0.0,-0.03013149,-0.14692208,-0.106610596,0.0,0.0,0.0,0.0,0.0,0.0,-0.026249345,-0.026573926,-0.8028889
106431707,0.628407,0.32398647,-0.9925482,3.0012016,0.0,-0.025426568,-0.15750434,-0.10996336,0.0,0.0,0.0,0.0,0.0,0.0,-0.024173867,-0.014922492,-0.7964657
106531565,0.628407,0.32398647,-0.9925482,3.0012016,0.0,-0.018739792,-0.16422702,-0.109429,0.0,0.0,0.0,0.0,0.0,0.0,-0.018156335,-0.02493203,-0.7909251
106631613,0.628407,0.32398647,-0.9925482,3.0012016,0.0,-0.008662515,-0.1684548,-0.10443598,0.0,0.0,0.0,0.0,0.0,0.0,-0.01805403,-0.017080726,-0.7791264
106731674,0.628407,0.32398647,-0.9925482,3.0012016,0.0,0.002733147,-0.16927001,-0.09511477,0.0,0.0,0.0,0.0,0.0,0.0,-0.01443128,-0.018477071,-0.7721409
106831754,0.628407,0.32398647,-0.9925482,3.0012016,0.0,0.016650239,-0.16721126,-0.08119917,0.0,0.0,0.0,0.0,0.0,0.0,-0.016419835,-0.014391704,-0.7609414
106931855,0.628407,0.32398647,-0.9925482,3.0012016,0.0,0.030295815,-0.16181298,-0.06535357,0.0,0.0,0.0,0.0,0.0,0.0,-0.014351161,-0.0124716535,-0.7517272
107032201,0.628407,0.32398647,-0.9925482,3.0012016,0.0,0.0442919,-0.15320253,-0.046610713,0.0,0.0,0.0,0.0,0.0,0.0,-0.011575364,-0.012378052,-0.7466055
107132286,0.628407,0.32398647,-0.9925482,3.0012016,0.0,0.056327756,-0.14258024,-0.029227018,0.0,0.0,0.0,0.0,0.0,0.0,-0.014109487,-0.004422942,-0.73942924
107252299,0.628407,0.32398647,-0.9925482,3.0012016,0.0,0.069903344,-0.12722886,-0.009272099,0.0,0.0,0.0,0.0,0.0,0.0,-0.012002848,-0.0010632692,-0.73808515
107352418,0.628407,0.32398647,-0.9925482,3.0012016,0.0,0.080677554,-0.11275942,0.0042067766,0.0,0.0,0.0,0.0,0.0,0.0,-0.009900948,-0.00056914263,-0.7392608
107452441,0.628407,0.32398647,-0.9925482,3.0012016,0.0,0.08976492,-0.099796616,0.013044238,0.0,0.0,0.0,0.0,0.0,0.0,-0.008842673,0.00069637457,-0.7410953
107552485,0.628407,0.32398647,-0.9925482,3.0012016,0.0,0.098911576,-0.08671233,0.018746495,0.0,0.0,0.0,0.0,0.0,0.0,-0.006923424,0.00077713793,-0.745476
107652568,0.628407,0.32398647,-0.9925482,3.0012016,0.0,0.10625628,-0.0764664,0.02086234,0.0,0.0,0.0,0.0,0.0,0.0,-0.009799805,0.0014704759,-0.7474308
107753400,0.628407,0.32398647,-0.9925482,3.0012016,0.0,0.11334882,-0.06676001,0.021202326,0.0,0.0,0.0,0.0,0.0,0.0,-0.008183742,-0.0015608558,-0.7499978
107853221,0.628407,0.32398647,-0.9925482,3.0012016,0.0,0.119405486,-0.060002934,0.020658016,0.0,0.0,0.0,0.0,0.0,0.0,-0.0103284335,-0.00021821936,-0.75154334
107953848,0.628407,0.32398647,-0.9925482,3.0012016,0.0,0.12554155,-0.05477486,0.020103455,0.0,0.0,0.0,0.0,0.0,0.0,-0.007944969,-0.0022464318,-0.7539395
108053420,0.628407,0.32398647,-0.9925482,3.0012016,0.0,0.13057436,-0.051511087,0.020659328,0.0,0.0,0.0,0.0,0.0,0.0,-0.011060272,-0.004478574,-0.7501651
108153915,0.628407,0.32398647,-0.9925482,3.0012016,0.0,0.135246,-0.049741685,0.023526907,0.0,0.0,0.0,0.0,0.0,0.0,-0.005437026,-0.0049223304,-0.7493295
108253382,0.628407,0.32398647,-0.9925482,3.0012016,0.0,0.1385549,-0.04940746,0.028397202,0.0,0.0,0.0,0.0,0.0,0.0,-0.009465553,-0.006869492,-0.7458263
108373456,0.628407,0.32398647,-0.9925482,3.0012016,0.0,0.14143328,-0.051317148,0.035687923,0.0,0.0,0.0,0.0,0.0,0.0,-0.006884508,-0.0092216935,-0.74598813
108473601,0.628407,0.32398647,-0.9925482,3.0012016,0.0,0.14261067,-0.054491058,0.041794658,0.0,0.0,0.0,0.0,0.0,0.0,-0.012622592,-0.00860652,-0.7437589
108573738,0.628407,0.32398647,-0.9925482,3.0012016,0.0,0.14223523,-0.058347832,0.04644966,0.0,0.0,0.0,0.0,0.0,0.0,-0.010884913,-0.008017723,-0.74473995
108673805,0.628407,0.32398647,-0.9925482,3.0012016,0.0,0.1396958,-0.0632166,0.05014372,0.0,0.0,0.0,0.0,0.0,0.0,-0.014363373,-0.011993146,-0.74744433
108774975,0.628407,0.32398647,-0.9925482,3.0012016,0.0,0.13533019,-0.06699648,0.051998258,0.0,0.0,0.0,0.0,0.0,0.0,-0.01583524,-0.0055248556,-0.7472428
108874227,0.628407,0.32398647,-0.9925482,3.0012016,0.0,0.12994416,-0.06745063,0.052609563,0.0,0.0,0.0,0.0,0.0,0.0,-0.010911565,-0.0025518509,-0.75263613
108973968,0.628407,0.32398647,-0.9925482,3.0012016,0.0,0.124693945,-0.06507334,0.051841974,0.0,0.0,0.0,0.0,0.0,0.0,-0.015130345,-0.0059172353,-0.7538846
109074101,0.628407,0.32398647,-0.9925482,3.0012016,0.0,0.1192924,-0.05895881,0.0503546,0.0,0.0,0.0,0.0,0.0,0.0,-0.018060429,0.0014337583,-0.75131786
109174552,0.628407,0.32398647,-0.9925482,3.0012016,0.0,0.112683766,-0.048797756,0.050655484,0.0,0.0,0.0,0.0,0.0,0.0,-0.017046187,0.0019070038,-0.7508044
109274247,0.628407,0.32398647,-0.9925482,3.0012016,0.0,0.106052145,-0.036180224,0.05226493,0.0,0.0,0.0,0.0,0.0,0.0,-0.017089436,0.004708752,-0.7459383
109374399,0.628407,0.32398647,-0.9925482,3.0012016,0.0,0.09825655,-0.019774066,0.055357337,0.0,0.0,0.0,0.0,0.0,0.0,-0.020780217,0.011789332,-0.74583167
109474582,0.628407,0.32398647,-0.9925482,3.0012016,0.0,0.09089724,-0.0027051747,0.059134126,0.0,0.0,0.0,0.0,0.0,0.0,-0.01892405,0.011783373,-0.74603707
109574711,0.628407,0.32398647,-0.9925482,3.0012016,0.0,0.08334343,0.014987633,0.061929822,0.0,0.0,0.0,0.0,0.0,0.0,-0.022391215,0.009554505,-0.74723995
109694798,0.628407,0.32398647,-0.9925482,3.0012016,0.0,0.075684585,0.033223297,0.06390989,0.0,0.0,0.0,0.0,0.0,0.0,-0.022173675,0.010614343,-0.74637693
109794782,0.628407,0.32398647,-0.9925482,3.0012016,0.0,0.06996892,0.044370126,0.06594503,0.0,0.0,0.0,0.0,0.0,0.0,-0.020255426,0.010235398,-0.7448535
109894852,0.628407,0.32398647,-0.9925482,3.0012016,0.0,0.064320125,0.0517576,0.06832218,0.0,0.0,0.0,0.0,0.0,0.0,-0.025419071,0.005145957,-0.7396576
109994900,0.628407,0.32398647,-0.9925482,3.0012016,0.0,0.058962885,0.05337182,0.07099676,0.0,0.0,0.0,0.0,0.0,0.0,-0.02379449,0.0011244554,-0.74184483
110095033,0.628407,0.32398647,-0.9925482,3.0012016,0.0,0.05274332,0.049557373,0.07406771,0.0,0.0,0.0,0.0,0.0,0.0,-0.025458012,-0.0039512566,-0.74008995
110195278,0.628407,0.32398647,-0.9925482,3.0012016,0.0,0.046745945,0.041015156,0.07617259,0.0,0.0,0.0,0.0,0.0,0.0,-0.026334755,-0.0044225757,-0.7415091
110295324,0.628407,0.32398647,-0.9925482,3.0012016,0.0,0.03947752,0.028717835,0.07826507,0.0,0.0,0.0,0.0,0.0,0.0,-0.023727316,-0.007861485,-0.7438793
110395433,0.628407,0.32398647,-0.9925482,3.0012016,0.0,0.032328237,0.0143427085,0.078719735,0.0,0.0,0.0,0.0,0.0,0.0,-0.02552023,-0.008652404,-0.7447034
110495536,0.628407,0.32398647,-0.9925482,3.0012016,0.0,0.02459521,-0.001488486,0.0788399,0.0,0.0,0.0,0.0,0.0,0.0,-0.02991899,-0.01046253,-0.7410864
110595557,0.628407,0.32398647,-0.9925482,3.0012016,0.0,0.017093042,-0.015218151,0.07988036,0.0,0.0,0.0,0.0,0.0,0.0,-0.029824652,-0.01081453,-0.73916507
110695600,0.628407,0.32398647,-0.9925482,3.0012016,0.0,0.009126326,-0.02797679,0.08150065,0.0,0.0,0.0,0.0,0.0,0.0,-0.03165319,-0.014663881,-0.7402061
110795747,0.628407,0.32398647,-0.9925482,3.0012016,0.0,0.0022641271,-0.036797684,0.08337617,0.0,0.0,0.0,0.0,0.0,0.0,-0.030566067,-0.012512044,-0.73938775
110895800,0.628407,0.32398647,-0.9925482,3.0012016,0.0,-0.004464495,-0.042930875,0.08563185,0.0,0.0,0.0,0.0,0.0,0.0,-0.030355014,-0.011449627,-0.7391495
110995988,0.628407,0.32398647,-0.9925482,3.0012016,0.0,-0.010321158,-0.04600068,0.087792754,0.0,0.0,0.0,0.0,0.0,0.0,-0.03200174,-0.011034662,-0.7380971
111116422,0.628407,0.32398647,-0.9925482,3.0012016,0.0,-0.017411837,-0.045815066,0.0900861,0.0,0.0,0.0,0.0,0.0,0.0,-0.02846561,-0.009176651,-0.74034446
111216300,0.628407,0.32398647,-0.9925482,3.0012016,0.0,-0.023597658,-0.043265015,0.09134376,0.0,0.0,0.0,0.0,0.0,0.0,-0.032972474,-0.007211879,-0.7385679
111317319,0.628407,0.32398647,-0.9925482,3.0012016,0.0,-0.030425996,-0.039298303,0.09209871,0.0,0.0,0.0,0.0,0.0,0.0,-0.035142966,-0.0050679264,-0.7408482
111416428,0.628407,0.32398647,-0.9925482,3.0012016,0.0,-0.036724895,-0.034891706,0.09183979,0.0,0.0,0.0,0.0,0.0,0.0,-0.03506411,-0.0036899745,-0.73965585
111516545,0.628407,0.32398647,-0.9925482,3.0012016,0.0,-0.043969195,-0.029549563,0.091331124,0.0,0.0,0.0,0.0,0.0,0.0,-0.035343934,0.001220328,-0.741621
111616529,0.628407,0.32398647,-0.9925482,3.0012016,0.0,-0.050715316,-0.023884233,0.09033489,0.0,0.0,0.0,0.0,0.0,0.0,-0.03701123,0.0015891886,-0.7416439
111716659,0.628407,0.32398647,-0.9925482,3.0012016,0.0,-0.057776548,-0.017289018,0.08830881,0.0,0.0,0.0,0.0,0.0,0.0,-0.03450355,-0.001717859,-0.7460601
111816800,0.628407,0.32398647,-0.9925482,3.0012016,0.0,-0.06388944,-0.011126867,0.08546841,0.0,0.0,0.0,0.0,0.0,0.0,-0.036165003,0.0034465636,-0.7479646
111916992,0.628407,0.32398647,-0.9925482,3.0012016,0.0,-0.069821976,-0.0051461966,0.08134842,0.0,0.0,0.0,0.0,0.0,0.0,-0.03583113,-0.00018415414,-0.7492765
112017088,0.628407,0.32398647,-0.9925482,3.0012016,0.0,-0.07478879,0.00076018274,0.07691252,0.0,0.0,0.0,0.0,0.0,0.0,-0.036612473,0.0012664183,-0.75206923
112117872,0.628407,0.32398647,-0.9925482,3.0012016,0.0,-0.07975662,0.0064724535,0.07108176,0.0,0.0,0.0,0.0,0.0,0.0,-0.040593162,0.001516005,-0.7543419
112217190,0.628407,0.32398647,-0.9925482,3.0012016,0.0,-0.083814494,0.012046362,0.065262675,0.0,0.0,0.0,0.0,0.0,0.0,-0.040147483,0.006087673,-0.7542814
112337297,0.628407,0.32398647,-0.9925482,3.0012016,0.0,-0.08874931,0.01873512,0.058772087,0.0,0.0,0.0,0.0,0.0,0.0,-0.036847178,0.002138143,-0.7577185
112437454,0.628407,0.32398647,-0.9925482,3.0012016,0.0,-0.09251251,0.024653334,0.0536263,0.0,0.0,0.0,0.0,0.0,0.0,-0.0355424,0.009358548,-0.7561879
112537572,0.628407,0.32398647,-0.9925482,3.0012016,0.0,-0.09524758,0.030552749,0.049505234,0.0,0.0,0.0,0.0,0.0,0.0,-0.034162298,0.008946052,-0.75561
112637748,0.628407,0.32398647,-0.9925482,3.0012016,0.0,-0.0972261,0.037542805,0.04605353,0.0,0.0,0.0,0.0,0.0,0.0,-0.03671955,0.009950974,-0.75455296
112737807,0.628407,0.32398647,-0.9925482,3.0012016,0.0,-0.09817212,0.044376295,0.04437518,0.0,0.0,0.0,0.0,0.0,0.0,-0.035834495,0.009573754,-0.75312066
112838039,0.628407,0.32398647,-0.9925482,3.0012016,0.0,-0.098265894,0.05106466,0.043955207,0.0,0.0,0.0,0.0,0.0,0.0,-0.030368011,0.00958511,-0.7533536
112937976,0.628407,0.32398647,-0.9925482,3.0012016,0.0,-0.0969586,0.057077974,0.04425168,0.0,0.0,0.0,0.0,0.0,0.0,-0.034937456,0.003878802,-0.75076073
113037999,0.628407,0.32398647,-0.9925482,3.0012016,0.0,-0.09462822,0.062031392,0.0460521,0.0,0.0,0.0,0.0,0.0,0.0,-0.030524323,0.007939939,-0.7471541
113138122,0.628407,0.32398647,-0.9925482,3.0012016,0.0,-0.09217514,0.0655457,0.048737764,0.0,0.0,0.0,0.0,0.0,0.0,-0.033466097,0.0070279576,-0.7461152
113238175,0.628407,0.32398647,-0.9925482,3.0012016,0.0,-0.088673376,0.06755765,0.05194533,0.0,0.0,0.0,0.0,0.0,0.0,-0.02880897,0.0036239591,-0.74182546
113338258,0.628407,0.32398647,-0.9925482,3.0012016,0.0,-0.08490117,0.068258494,0.054960847,0.0,0.0,0.0,0.0,0.0,0.0,-0.035728298,0.00877031,-0.74322164
113458596,0.628407,0.32398647,-0.9925482,3.0012016,0.0,-0.079467885,0.068065345,0.057423353,0.0,0.0,0.0,0.0,0.0,0.0,-0.033218376,0.0072113494,-0.7430827
113558925,0.628407,0.32398647,-0.9925482,3.0012016,0.0,-0.07451433,0.06694653,0.058116436,0.0,0.0,0.0,0.0,0.0,0.0,-0.033759672,0.004762229,-0.7433312
113658758,0.628407,0.32398647,-0.9925482,3.0012016,0.0,-0.07051528,0.06612316,0.057834983,0.0,0.0,0.0,0.0,0.0,0.0,-0.027683856,0.003188584,-0.7469584
113758951,0.628407,0.32398647,-0.9925482,3.0012016,0.0,-0.0657761,0.0654252,0.055761933,0.0,0.0,0.0,0.0,0.0,0.0,-0.028296618,0.005795702,-0.7492854
113858927,0.628407,0.32398647,-0.9925482,3.0012016,0.0,-0.05998847,0.06530898,0.052318692,0.0,0.0,0.0,0.0,0.0,0.0,-0.024728514,0.0073639327,-0.7500669
113958979,0.628407,0.32398647,-0.9925482,3.0012016,0.0,-0.052704472,0.06702108,0.04747057,0.0,0.0,0.0,0.0,0.0,0.0,-0.01998101,0.009006571,-0.75288844
114059313,0.628407,0.32398647,-0.9925482,3.0012016,0.0,-0.044514716,0.07045106,0.04192102,0.0,0.0,0.0,0.0,0.0,0.0,-0.023920756,0.011648696,-0.75531495
114159423,0.628407,0.32398647,-0.9925482,3.0012016,0.0,-0.034225605,0.075923115,0.0360018,0.0,0.0,0.0,0.0,0.0,0.0,-0.022668011,0.012119999,-0.7561377
114259764,0.628407,0.32398647,-0.9925482,3.0012016,0.0,-0.022713467,0.082705066,0.031134248,0.0,0.0,0.0,0.0,0.0,0.0,-0.019316904,0.010764727,-0.7549907
114359476,0.628407,0.32398647,-0.9925482,3.0012016,0.0,-0.010399469,0.090132885,0.027355433,0.0,0.0,0.0,0.0,0.0,0.0,-0.015188981,0.016184023,-0.7590265
114459793,0.628407,0.32398647,-0.9925482,3.0012016,0.0,0.004603848,0.099605806,0.024296403,0.0,0.0,0.0,0.0,0.0,0.0,-0.01600707,0.019149918,-0.7553967
114559550,0.628407,0.32398647,-0.9925482,3.0012016,0.0,0.019769281,0.10823411,0.0230577,0.0,0.0,0.0,0.0,0.0,0.0,-0.010193801,0.019357072,-0.75201
114659812,0.628407,0.32398647,-0.9925482,3.0012016,0.0,0.03709975,0.117969245,0.023896098,0.0,0.0,0.0,0.0,0.0,0.0,-0.0050483365,0.022662072,-0.7508425
114759686,0.628407,0.32398647,-0.9925482,3.0012016,0.0,0.053152714,0.12614028,0.026047945,0.0,0.0,0.0,0.0,0.0,0.0,-0.0074044205,0.020703126,-0.7472725
114859760,0.628407,0.32398647,-0.9925482,3.0012016,0.0,0.06961762,0.13371664,0.028846622,0.0,0.0,0.0,0.0,0.0,0.0,-0.005900884,0.025829889,-0.7471592
114980112,0.628407,0.32398647,-0.9925482,3.0012016,0.0,0.08587647,0.14219943,0.032583475,0.0,0.0,0.0,0.0,0.0,0.0,-0.010318304,0.022610135,-0.74520016
115080175,0.628407,0.32398647,-0.9925482,3.0012016,0.0,0.09567821,0.14824417,0.03572297,0.0,0.0,0.0,0.0,0.0,0.0,-0.007389875,0.022336237,-0.7432791
115180254,0.628407,0.32398647,-0.9925482,3.0012016,0.0,0.10369838,0.15397915,0.038664937,0.0,0.0,0.0,0.0,0.0,0.0,-0.01117756,0.02143072,-0.74301803
115280340,0.628407,0.32398647,-0.9925482,3.0012016,0.0,0.108115196,0.15710725,0.041481495,0.0,0.0,0.0,0.0,0.0,0.0,-0.011287861,0.01950983,-0.7414433
115380427,0.628407,0.32398647,-0.9925482,3.0012016,0.0,0.10970414,0.15885791,0.04472637,0.0,0.0,0.0,0.0,0.0,0.0,-0.015244044,0.017258454,-0.7373097
115480511,0.628407,0.32398647,-0.9925482,3.0012016,0.0,0.10869333,0.15857545,0.04784,0.0,0.0,0.0,0.0,0.0,0.0,-0.012209433,0.01928605,-0.7390004
115580531,0.628407,0.32398647,-0.9925482,3.0012016,0.0,0.10529955,0.1557073,0.051277637,0.0,0.0,0.0,0.0,0.0,0.0,-0.011356694,0.014241062,-0.7408265
115680957,0.628407,0.32398647,-0.9925482,3.0012016,0.0,0.101135954,0.1509072,0.05283296,0.0,0.0,0.0,0.0,0.0,0.0,-0.019653158,0.013624922,-0.74292374
115780780,0.628407,0.32398647,-0.9925482,3.0012016,0.0,0.09571298,0.14320758,0.052277684,0.0,0.0,0.0,0.0,0.0,0.0,-0.018821532,0.014048131,-0.7471601
115881072,0.628407,0.32398647,-0.9925482,3.0012016,0.0,0.09077397,0.13486417,0.050022244,0.0,0.0,0.0,0.0,0.0,0.0,-0.022302177,0.015476887,-0.74791706
115981166,0.628407,0.32398647,-0.9925482,3.0012016,0.0,0.08682091,0.124813214,0.0462811,0.0,0.0,0.0,0.0,0.0,0.0,-0.014545336,0.010814094,-0.7505406
116101313,0.628407,0.32398647,-0.9925482,3.0012016,0.0,0.084623486,0.11307674,0.043016195,0.0,0.0,0.0,0.0,0.0,0.0,-0.01580767,0.007992107,-0.7461344
116201252,0.628407,0.32398647,-0.9925482,3.0012016,0.0,0.08438175,0.10436447,0.043098092,0.0,0.0,0.0,0.0,0.0,0.0,-0.016979126,0.012042165,-0.7427193
116301305,0.628407,0.32398647,-0.9925482,3.0012016,0.0,0.084679484,0.09597018,0.04618168,0.0,0.0,0.0,0.0,0.0,0.0,-0.01636598,0.012781469,-0.73880947
116401320,0.628407,0.32398647,-0.9925482,3.0012016,0.0,0.084721334,0.088888295,0.051045775,0.0,0.0,0.0,0.0,0.0,0.0,-0.018402029,0.004657048,-0.7373433
116501440,0.628407,0.32398647,-0.9925482,3.0012016,0.0,0.08455814,0.0809018,0.057513595,0.0,0.0,0.0,0.0,0.0,0.0,-0.02091388,0.0024706158,-0.7337665
117102521,0.628407,0.32398647,-0.9925482,3.0012016,0.0,0.06452816,-0.0027939335,0.08460271,0.0,0.0,0.0,0.0,0.0,0.0,-0.028948003,-0.017226264,-0.72752583
117402542,0.628407,0.32398647,-0.9925482,3.0012016,0.0,0.035835836,-0.062079664,0.057152748,0.0,0.0,0.0,0.0,0.0,0.0,-0.031974796,-0.018301304,-0.7650114
117522657,0.628407,0.32398647,-0.9925482,3.0012016,0.0,0.025940493,-0.083912365,0.03766334,0.0,0.0,0.0,0.0,0.0,0.0,-0.027438823,-0.017226534,-0.77253294
117622748,0.628407,0.32398647,-0.9925482,3.0012016,0.0,0.020008575,-0.101487905,0.019560218,0.0,0.0,0.0,0.0,0.0,0.0,-0.026734278,-0.021169875,-0.77655303
117723729,0.628407,0.32398647,-0.9925482,3.0012016,0.0,0.016193958,-0.11698609,0.0017583966,0.0,0.0,0.0,0.0,0.0,0.0,-0.021629002,-0.0204499,-0.780957
117822957,0.628407,0.32398647,-0.9925482,3.0012016,0.0,0.014291209,-0.1286133,-0.013386786,0.0,0.0,0.0,0.0,0.0,0.0,-0.025499422,-0.018877542,-0.78231996
117923727,0.628407,0.32398647,-0.9925482,3.0012016,0.0,0.0135835735,-0.13761456,-0.02684176,0.0,0.0,0.0,0.0,0.0,0.0,-0.019076927,-0.018847534,-0.7820863
118023358,0.628407,0.32398647,-0.9925482,3.0012016,0.0,0.014164654,-0.1422884,-0.035180807,0.0,0.0,0.0,0.0,0.0,0.0,-0.020755263,-0.014122218,-0.7811054
118123808,0.628407,0.32398647,-0.9925482,3.0012016,0.0,0.015754553,-0.14331786,-0.039368093,0.0,0.0,0.0,0.0,0.0,0.0,-0.023256524,-0.014811912,-0.7717307
118223472,0.628407,0.32398647,-0.9925482,3.0012016,0.0,0.017927231,-0.14075115,-0.039500833,0.0,0.0,0.0,0.0,0.0,0.0,-0.018514166,-0.0072141225,-0.7713382
118323632,0.628407,0.32398647,-0.9925482,3.0012016,0.0,0.02097119,-0.13532023,-0.035139382,0.0,0.0,0.0,0.0,0.0,0.0,-0.018377773,-0.0044815876,-0.75697327
118423482,0.628407,0.32398647,-0.9925482,3.0012016,0.0,0.024450477,-0.1275605,-0.028366506,0.0,0.0,0.0,0.0,0.0,0.0,-0.016762972,-0.0040476695,-0.7541157
118523653,0.628407,0.32398647,-0.9925482,3.0012016,0.0,0.029620456,-0.116670325,-0.018966913,0.0,0.0,0.0,0.0,0.0,0.0,-0.0104249045,-0.0026438648,-0.7487278
118623606,0.628407,0.32398647,-0.9925482,3.0012016,0.0,0.03726617,-0.10322503,-0.007962644,0.0,0.0,0.0,0.0,0.0,0.0,-0.008557413,0.0044243545,-0.74114406
118743723,0.628407,0.32398647,-0.9925482,3.0012016,0.0,0.049054578,-0.08705675,0.005108416,0.0,0.0,0.0,0.0,0.0,0.0,-0.0028832667,-0.00072021876,-0.73998183
118843781,0.628407,0.32398647,-0.9925482,3.0012016,0.0,0.060812015,-0.07485436,0.014932036,0.0,0.0,0.0,0.0,0.0,0.0,-0.001698086,0.00048519185,-0.737124
118943956,0.628407,0.32398647,-0.9925482,3.0012016,0.0,0.07672358,-0.06329397,0.023397565,0.0,0.0,0.0,0.0,0.0,0.0,0.0017015431,0.0067797555,-0.7318965
119044080,0.628407,0.32398647,-0.9925482,3.0012016,0.0,0.093984686,-0.054703515,0.030761361,0.0,0.0,0.0,0.0,0.0,0.0,0.011221623,0.0029878956,-0.73490477
119144390,0.628407,0.32398647,-0.9925482,3.0012016,0.0,0.11526964,-0.04817203,0.037745476,0.0,0.0,0.0,0.0,0.0,0.0,0.008056978,-0.0030055086,-0.72806644
119244269,0.628407,0.32398647,-0.9925482,3.0012016,0.0,0.13633001,-0.044580456,0.043287396,0.0,0.0,0.0,0.0,0.0,0.0,0.017607937,0.006947904,-0.7315371
119344338,0.628407,0.32398647,-0.9925482,3.0012016,0.0,0.15994485,-0.043113317,0.04777527,0.0,0.0,0.0,0.0,0.0,0.0,0.017009359,-0.0025420706,-0.73231757
119444472,0.628407,0.32398647,-0.9925482,3.0012016,0.0,0.18219453,-0.044208944,0.049876332,0.0,0.0,0.0,0.0,0.0,0.0,0.020627823,0.0016996042,-0.73621184
119544633,0.628407,0.32398647,-0.9925482,3.0012016,0.0,0.20578472,-0.0469847,0.050318003,0.0,0.0,0.0,0.0,0.0,0.0,0.025291402,-0.0012420103,-0.7353646
119644616,0.628407,0.32398647,-0.9925482,3.0012016,0.0,0.22674708,-0.05091769,0.05003369,0.0,0.0,0.0,0.0,0.0,0.0,0.026773432,-0.004182013,-0.73571897
119745377,0.628407,0.32398647,-0.9925482,3.0012016,0.0,0.24830642,-0.056598168,0.049747467,0.0,0.0,0.0,0.0,0.0,0.0,0.027635634,-0.0036666694,-0.73508126
119845162,0.628407,0.32398647,-0.9925482,3.0012016,0.0,0.2659177,-0.061785698,0.05145073,0.0,0.0,0.0,0.0,0.0,0.0,0.025759876,-0.008562749,-0.731321
119945200,0.628407,0.32398647,-0.9925482,3.0012016,0.0,0.28268728,-0.06622876,0.05586934,0.0,0.0,0.0,0.0,0.0,0.0,0.030301478,-0.0021099586,-0.7279522
120045403,0.628407,0.32398647,-0.9925482,3.0012016,0.0,0.29580918,-0.067723274,0.06207168,0.0,0.0,0.0,0.0,0.0,0.0,0.030390952,-0.005905479,-0.72510993
120145740,0.628407,0.32398647,-0.9925482,3.0012016,0.0,0.3085964,-0.06671564,0.07025421,0.0,0.0,0.0,0.0,0.0,0.0,0.031334817,-0.005984416,-0.72128224
120265393,0.628407,0.32398647,-0.9925482,3.0012016,0.0,0.32080072,-0.06299851,0.08007133,0.0,0.0,0.0,0.0,0.0,0.0,0.03013966,-0.0022668045,-0.7219087
120365433,0.628407,0.32398647,-0.9925482,3.0012016,0.0,0.32882375,-0.057885267,0.086717844,0.0,0.0,0.0,0.0,0.0,0.0,0.031272486,-0.002605608,-0.7236993
120465562,0.628407,0.32398647,-0.9925482,3.0012016,0.0,0.33617917,-0.0504502,0.0913192,0.0,0.0,0.0,0.0,0.0,0.0,0.028361745,0.0068594534,-0.7248547
120566904,0.628407,0.32398647,-0.9925482,3.0012016,0.0,0.34243643,-0.041773614,0.092921495,0.0,0.0,0.0,0.0,0.0,0.0,0.033246975,0.002271837,-0.7281911
120665818,0.628407,0.32398647,-0.9925482,3.0012016,0.0,0.34744787,-0.033613015,0.09231889,0.0,0.0,0.0,0.0,0.0,0.0,0.033680253,0.005830643,-0.7303644
120766047,0.628407,0.32398647,-0.9925482,3.0012016,0.0,0.3520064,-0.024373043,0.08986735,0.0,0.0,0.0,0.0,0.0,0.0,0.030637944,0.0050845025,-0.7347833
120865940,0.628407,0.32398647,-0.9925482,3.0012016,0.0,0.3552618,-0.015418516,0.08563864,0.0,0.0,0.0,0.0,0.0,0.0,0.031189915,0.009872695,-0.7369796
120966153,0.628407,0.32398647,-0.9925482,3.0012016,0.0,0.35758087,-0.0050350144,0.08140564,0.0,0.0,0.0,0.0,0.0,0.0,0.031206008,0.009484257,-0.73661727
121066166,0.628407,0.32398647,-0.9925482,3.0012016,0.0,0.35930812,0.005251178,0.07814586,0.0,0.0,0.0,0.0,0.0,0.0,0.032281466,0.014121528,-0.7373477
121166064,0.628407,0.32398647,-0.9925482,3.0012016,0.0,0.36045873,0.01698755,0.07492268,0.0,0.0,0.0,0.0,0.0,0.0,0.030790761,0.012677757,-0.73919904
121266218,0.628407,0.32398647,-0.9925482,3.0012016,0.0,0.36152256,0.02880161,0.07244694,0.0,0.0,0.0,0.0,0.0,0.0,0.031909645,0.012597632,-0.73970246
121366559,0.628407,0.32398647,-0.9925482,3.0012016,0.0,0.36272725,0.04117659,0.069518566,0.0,0.0,0.0,0.0,0.0,0.0,0.03021453,0.015840469,-0.7421631
121466625,0.628407,0.32398647,-0.9925482,3.0012016,0.0,0.36393127,0.05204242,0.06610489,0.0,0.0,0.0,0.0,0.0,0.0,0.029818803,0.013447211,-0.7451341
121566745,0.628407,0.32398647,-0.9925482,3.0012016,0.0,0.36452946,0.06269922,0.060437202,0.0,0.0,0.0,0.0,0.0,0.0,0.029808776,0.019673608,-0.74994195
121686848,0.628407,0.32398647,-0.9925482,3.0012016,0.0,0.36210966,0.07220469,0.052180767,0.0,0.0,0.0,0.0,0.0,0.0,0.025222564,0.015070655,-0.7510032
121786862,0.628407,0.32398647,-0.9925482,3.0012016,0.0,0.35647637,0.076912925,0.045569777,0.0,0.0,0.0,0.0,0.0,0.0,0.021680249,0.011275467,-0.7512164
121886922,0.628407,0.32398647,-0.9925482,3.0012016,0.0,0.34657764,0.07825304,0.038831234,0.0,0.0,0.0,0.0,0.0,0.0,0.020542791,0.007596746,-0.75201786
121986891,0.628407,0.32398647,-0.9925482,3.0012016,0.0,0.33420154,0.07616814,0.034320354,0.0,0.0,0.0,0.0,0.0,0.0,0.015712269,0.00522022,-0.7499717
122087051,0.628407,0.32398647,-0.9925482,3.0012016,0.0,0.31762597,0.07100111,0.030848622,0.0,0.0,0.0,0.0,0.0,0.0,0.015018192,0.0064262617,-0.7487583
122187381,0.628407,0.32398647,-0.9925482,3.0012016,0.0,0.29884067,0.064629205,0.02863276,0.0,0.0,0.0,0.0,0.0,0.0,0.009953445,0.008035935,-0.74764365
122287425,0.628407,0.32398647,-0.9925482,3.0012016,0.0,0.27367908,0.05725065,0.028460503,0.0,0.0,0.0,0.0,0.0,0.0,-0.0042731613,0.005394437,-0.7414082
122387531,0.628407,0.32398647,-0.9925482,3.0012016,0.0,0.24648692,0.050445076,0.030604124,0.0,0.0,0.0,0.0,0.0,0.0,-0.00754707,0.0025281585,-0.7383571
122487638,0.628407,0.32398647,-0.9925482,3.0012016,0.0,0.21264537,0.04349457,0.03486371,0.0,0.0,0.0,0.0,0.0,0.0,-0.010434874,-0.00049427873,-0.73509634
122587642,0.628407,0.32398647,-0.9925482,3.0012016,0.0,0.17737752,0.038345005,0.039745092,0.0,0.0,0.0,0.0,0.0,0.0,-0.0147437025,0.003860931,-0.7345731
122687678,0.628407,0.32398647,-0.9925482,3.0012016,0.0,0.13602619,0.034606602,0.04478371,0.0,0.0,0.0,0.0,0.0,0.0,-0.025920529,0.0051833857,-0.7328907
122787800,0.628407,0.32398647,-0.9925482,3.0012016,0.0,0.095470175,0.033066448,0.04889238,0.0,0.0,0.0,0.0,0.0,0.0,-0.031376835,0.007938723,-0.7309189
122907806,0.628407,0.32398647,-0.9925482,3.0012016,0.0,0.043408275,0.033267606,0.05261159,0.0,0.0,0.0,0.0,0.0,0.0,-0.03637104,0.0011697465,-0.7336318
123007997,0.628407,0.32398647,-0.9925482,3.0012016,0.0,-0.0014863908,0.03390327,0.054392457,0.0,0.0,0.0,0.0,0.0,0.0,-0.04034602,-0.0010334705,-0.7326846
123108368,0.628407,0.32398647,-0.9925482,3.0012016,0.0,-0.042108744,0.03413863,0.055466056,0.0,0.0,0.0,0.0,0.0,0.0,-0.04247132,0.004939857,-0.73211503
123208486,0.628407,0.32398647,-0.9925482,3.0012016,0.0,-0.08425192,0.032693747,0.05597222,0.0,0.0,0.0,0.0,0.0,0.0,-0.04622121,-0.0018749682,-0.73238623
123308545,0.628407,0.32398647,-0.9925482,3.0012016,0.0,-0.120727435,0.029457519,0.05559933,0.0,0.0,0.0,0.0,0.0,0.0,-0.046616703,-0.0011043649,-0.73602855
123408392,0.628407,0.32398647,-0.9925482,3.0012016,0.0,-0.15614742,0.024088789,0.054909706,0.0,0.0,0.0,0.0,0.0,0.0,-0.047446206,-0.001368775,-0.7353195
123509335,0.628407,0.32398647,-0.9925482,3.0012016,0.0,-0.18726864,0.015820153,0.053337455,0.0,0.0,0.0,0.0,0.0,0.0,-0.047651444,-0.005317097,-0.73940146
123608515,0.628407,0.32398647,-0.9925482,3.0012016,0.0,-0.211415,0.0050169793,0.04969728,0.0,0.0,0.0,0.0,0.0,0.0,-0.046136618,-0.007560721,-0.74701786
123709409,0.628407,0.32398647,-0.9925482,3.0012016,0.0,-0.23220511,-0.009371085,0.04148698,0.0,0.0,0.0,0.0,0.0,0.0,-0.04643715,-0.01149953,-0.75338453
123808797,0.628407,0.32398647,-0.9925482,3.0012016,0.0,-0.24762903,-0.024258237,0.031096935,0.0,0.0,0.0,0.0,0.0,0.0,-0.044496477,-0.015519139,-0.7634896
123909291,0.628407,0.32398647,-0.9925482,3.0012016,0.0,-0.26021793,-0.04137053,0.015552044,0.0,0.0,0.0,0.0,0.0,0.0,-0.0423753,-0.017715203,-0.7751013
124030400,0.628407,0.32398647,-0.9925482,3.0012016,0.0,-0.26943445,-0.0614314,-0.00717479,0.0,0.0,0.0,0.0,0.0,0.0,-0.03957743,-0.018114997,-0.7856619
124129197,0.628407,0.32398647,-0.9925482,3.0012016,0.0,-0.27230075,-0.07792782,-0.028438628,0.0,0.0,0.0,0.0,0.0,0.0,-0.03464429,-0.019930165,-0.795238
124230219,0.628407,0.32398647,-0.9925482,3.0012016,0.0,-0.2708096,-0.09460826,-0.052531183,0.0,0.0,0.0,0.0,0.0,0.0,-0.032219045,-0.023189807,-0.802845
124329346,0.628407,0.32398647,-0.9925482,3.0012016,0.0,-0.26556078,-0.108677424,-0.07424909,0.0,0.0,0.0,0.0,0.0,0.0,-0.02688954,-0.022159247,-0.8061541
124430172,0.628407,0.32398647,-0.9925482,3.0012016,0.0,-0.2558973,-0.121979654,-0.09625763,0.0,0.0,0.0,0.0,0.0,0.0,-0.020174652,-0.022127911,-0.81034875
124529585,0.628407,0.32398647,-0.9925482,3.0012016,0.0,-0.24378547,-0.1318808,-0.11316323,0.0,0.0,0.0,0.0,0.0,0.0,-0.014555815,-0.020269852,-0.80895174
124629712,0.628407,0.32398647,-0.9925482,3.0012016,0.0,-0.22764719,-0.13946304,-0.12633723,0.0,0.0,0.0,0.0,0.0,0.0,-0.015414374,-0.016212525,-0.79750526
124729990,0.628407,0.32398647,-0.9925482,3.0012016,0.0,-0.21066518,-0.14279667,-0.13037097,0.0,0.0,0.0,0.0,0.0,0.0,-0.0034947628,-0.014249421,-0.7928666
124830306,0.628407,0.32398647,-0.9925482,3.0012016,0.0,-0.18802181,-0.14321707,-0.12780648,0.0,0.0,0.0,0.0,0.0,0.0,0.0012872461,-0.016338054,-0.7797745
124929964,0.628407,0.32398647,-0.9925482,3.0012016,0.0,-0.16333991,-0.14137119,-0.11974347,0.0,0.0,0.0,0.0,0.0,0.0,-0.00019904971,-0.012410256,-0.76903856
125030666,0.628407,0.32398647,-0.9925482,3.0012016,0.0,-0.13392313,-0.13751069,-0.1062814,0.0,0.0,0.0,0.0,0.0,0.0,0.0057942504,-0.014595769,-0.7595657
125130140,0.628407,0.32398647,-0.9925482,3.0012016,0.0,-0.10561421,-0.13269551,-0.09122574,0.0,0.0,0.0,0.0,0.0,0.0,0.012432231,-0.008843022,-0.75246024
125230694,0.628407,0.32398647,-0.9925482,3.0012016,0.0,-0.075660914,-0.1257834,-0.07376981,0.0,0.0,0.0,0.0,0.0,0.0,0.006731553,-0.010118044,-0.7401407
125350253,0.628407,0.32398647,-0.9925482,3.0012016,0.0,-0.04490497,-0.11643842,-0.053260565,0.0,0.0,0.0,0.0,0.0,0.0,0.012585967,-0.0055081425,-0.73866963
125450519,0.628407,0.32398647,-0.9925482,3.0012016,0.0,-0.023755865,-0.10898056,-0.040180802,0.0,0.0,0.0,0.0,0.0,0.0,0.011756265,-0.005829394,-0.7381219
125550588,0.628407,0.32398647,-0.9925482,3.0012016,0.0,-0.00444462,-0.10226542,-0.029857337,0.0,0.0,0.0,0.0,0.0,0.0,0.0073258122,-0.002516767,-0.7387855
125650612,0.628407,0.32398647,-0.9925482,3.0012016,0.0,0.009536457,-0.09742768,-0.02363509,0.0,0.0,0.0,0.0,0.0,0.0,0.008249296,-0.007978592,-0.7412042
125750765,0.628407,0.32398647,-0.9925482,3.0012016,0.0,0.020503247,-0.092915565,-0.020076275,0.0,0.0,0.0,0.0,0.0,0.0,0.0006841682,-0.0023326245,-0.7403452
125850952,0.628407,0.32398647,-0.9925482,3.0012016,0.0,0.025462639,-0.0890059,-0.017656922,0.0,0.0,0.0,0.0,0.0,0.0,-0.00073791994,-0.0023082085,-0.7395504
125950907,0.628407,0.32398647,-0.9925482,3.0012016,0.0,0.024598211,-0.08418221,-0.015176594,0.0,0.0,0.0,0.0,0.0,0.0,-0.004567215,-0.0035220454,-0.7404517
126050985,0.628407,0.32398647,-0.9925482,3.0012016,0.0,0.01653331,-0.07865068,-0.012254953,0.0,0.0,0.0,0.0,0.0,0.0,-0.013726272,-0.0027083647,-0.7392245
126151307,0.628407,0.32398647,-0.9925482,3.0012016,0.0,0.0009424567,-0.07125865,-0.008551657,0.0,0.0,0.0,0.0,0.0,0.0,-0.02554648,0.0015786856,-0.7397577
126251300,0.628407,0.32398647,-0.9925482,3.0012016,0.0,-0.019054228,-0.0629202,-0.005049169,0.0,0.0,0.0,0.0,0.0,0.0,-0.025145149,0.004520247,-0.7426144
126351435,0.628407,0.32398647,-0.9925482,3.0012016,0.0,-0.04524783,-0.05299422,-0.0030521154,0.0,0.0,0.0,0.0,0.0,0.0,-0.03949389,0.0025065232,-0.7422067
126451729,0.628407,0.32398647,-0.9925482,3.0012016,0.0,-0.07638814,-0.043551277,-0.0011175275,0.0,0.0,0.0,0.0,0.0,0.0,-0.048204217,-0.0003267068,-0.7412417
126551541,0.628407,0.32398647,-0.9925482,3.0012016,0.0,-0.10903444,-0.035623323,0.001650393,0.0,0.0,0.0,0.0,0.0,0.0,-0.051137645,0.003984162,-0.7387188
126671819,0.628407,0.32398647,-0.9925482,3.0012016,0.0,-0.15305884,-0.02547388,0.006370187,0.0,0.0,0.0,0.0,0.0,0.0,-0.05868066,0.002780691,-0.73846084
126771738,0.628407,0.32398647,-0.9925482,3.0012016,0.0,-0.19220981,-0.01586732,0.0117594,0.0,0.0,0.0,0.0,0.0,0.0,-0.061440397,0.0070117423,-0.73640674
126871762,0.628407,0.32398647,-0.9925482,3.0012016,0.0,-0.22750454,-0.0067904843,0.018683791,0.0,0.0,0.0,0.0,0.0,0.0,-0.06649792,0.006042009,-0.7298279
126972166,0.628407,0.32398647,-0.9925482,3.0012016,0.0,-0.26331162,0.0023692504,0.02873838,0.0,0.0,0.0,0.0,0.0,0.0,-0.06767133,0.006820296,-0.72573197
127072422,0.628407,0.32398647,-0.9925482,3.0012016,0.0,-0.29304504,0.010292789,0.038923383,0.0,0.0,0.0,0.0,0.0,0.0,-0.06927079,0.0028249836,-0.7254269
127172241,0.628407,0.32398647,-0.9925482,3.0012016,0.0,-0.3203008,0.018457294,0.048285246,0.0,0.0,0.0,0.0,0.0,0.0,-0.07072665,0.00767143,-0.7271195
127272414,0.628407,0.32398647,-0.9925482,3.0012016,0.0,-0.33999273,0.025462752,0.05432737,0.0,0.0,0.0,0.0,0.0,0.0,-0.06859687,0.008258335,-0.7300551
127372372,0.628407,0.32398647,-0.9925482,3.0012016,0.0,-0.35449588,0.032341883,0.05642879,0.0,0.0,0.0,0.0,0.0,0.0,-0.06324529,0.0071163606,-0.7373927
127472391,0.628407,0.32398647,-0.9925482,3.0012016,0.0,-0.36130622,0.037658576,0.054882526,0.0,0.0,0.0,0.0,0.0,0.0,-0.061793916,0.0056878747,-0.7399599
127572543,0.628407,0.32398647,-0.9925482,3.0012016,0.0,-0.3622482,0.04233609,0.0508554,0.0,0.0,0.0,0.0,0.0,0.0,-0.055065624,-0.00041382515,-0.7446929
127692587,0.628407,0.32398647,-0.9925482,3.0012016,0.0,-0.35715848,0.04625951,0.044893384,0.0,0.0,0.0,0.0,0.0,0.0,-0.05372115,0.0042264652,-0.746306
127792776,0.628407,0.32398647,-0.9925482,3.0012016,0.0,-0.35023445,0.04820626,0.04004085,0.0,0.0,0.0,0.0,0.0,0.0,-0.052614857,0.005525585,-0.7487099
127892944,0.628407,0.32398647,-0.9925482,3.0012016,0.0,-0.34127936,0.0488306,0.035354137,0.0,0.0,0.0,0.0,0.0,0.0,-0.052596357,0.005482127,-0.74817604
127993021,0.628407,0.32398647,-0.9925482,3.0012016,0.0,-0.33283013,0.04884467,0.03261602,0.0,0.0,0.0,0.0,0.0,0.0,-0.051697373,0.0038084253,-0.7471982
128093077,0.628407,0.32398647,-0.9925482,3.0012016,0.0,-0.32440987,0.049528126,0.031793952,0.0,0.0,0.0,0.0,0.0,0.0,-0.04886796,0.0024722097,-0.7472549
128193311,0.628407,0.32398647,-0.9925482,3.0012016,0.0,-0.3180652,0.050683066,0.032453656,0.0,0.0,0.0,0.0,0.0,0.0,-0.051282417,0.0033860907,-0.74581754
128293247,0.628407,0.32398647,-0.9925482,3.0012016,0.0,-0.31415388,0.05196122,0.03403294,0.0,0.0,0.0,0.0,0.0,0.0,-0.05614223,0.0025872965,-0.7431819
128393367,0.628407,0.32398647,-0.9925482,3.0012016,0.0,-0.31351152,0.05332369,0.03682077,0.0,0.0,0.0,0.0,0.0,0.0,-0.05166126,0.00091035233,-0.7423295
128493566,0.628407,0.32398647,-0.9925482,3.0012016,0.0,-0.3151469,0.054055814,0.039582253,0.0,0.0,0.0,0.0,0.0,0.0,-0.058992982,0.0037560374,-0.7383108
128593591,0.628407,0.32398647,-0.9925482,3.0012016,0.0,-0.3183619,0.0538933,0.042553425,0.0,0.0,0.0,0.0,0.0,0.0,-0.058805913,0.0013875919,-0.73762184
128694004,0.628407,0.32398647,-0.9925482,3.0012016,0.0,-0.32283005,0.051558707,0.045895815,0.0,0.0,0.0,0.0,0.0,0.0,-0.057280585,-0.0049287495,-0.7369263
128794130,0.628407,0.32398647,-0.9925482,3.0012016,0.0,-0.32714295,0.04660778,0.048897862,0.0,0.0,0.0,0.0,0.0,0.0,-0.059215106,-0.0075232517,-0.73724085
128894130,0.628407,0.32398647,-0.9925482,3.0012016,0.0,-0.32951236,0.038550664,0.0505023,0.0,0.0,0.0,0.0,0.0,0.0,-0.05575686,-0.00646548,-0.73747563
128994134,0.628407,0.32398647,-0.9925482,3.0012016,0.0,-0.32855126,0.029276803,0.049821854,0.0,0.0,0.0,0.0,0.0,0.0,-0.05120821,-0.0068486487,-0.7434373
129114167,0.628407,0.32398647,-0.9925482,3.0012016,0.0,-0.3212329,0.014880896,0.04624188,0.0,0.0,0.0,0.0,0.0,0.0,-0.043552894,-0.013691328,-0.74570936
129214204,0.628407,0.32398647,-0.9925482,3.0012016,0.0,-0.30797634,-0.00044668166,0.04029548,0.0,0.0,0.0,0.0,0.0,0.0,-0.037258387,-0.015753321,-0.7506372
129314219,0.628407,0.32398647,-0.9925482,3.0012016,0.0,-0.28908935,-0.017172344,0.03308165,0.0,0.0,0.0,0.0,0.0,0.0,-0.030147357,-0.02044728,-0.75422215
129414567,0.628407,0.32398647,-0.9925482,3.0012016,0.0,-0.2594209,-0.036946606,0.024689078,0.0,0.0,0.0,0.0,0.0,0.0,-0.015982183,-0.022252252,-0.75870997
129515195,0.628407,0.32398647,-0.9925482,3.0012016,0.0,-0.21844906,-0.05656391,0.01576209,0.0,0.0,0.0,0.0,0.0,0.0,-0.0025539882,-0.02507596,-0.7597536
129614654,0.628407,0.32398647,-0.9925482,3.0012016,0.0,-0.17015794,-0.0725654,0.008886337,0.0,0.0,0.0,0.0,0.0,0.0,0.006493626,-0.020586384,-0.76004934
129714923,0.628407,0.32398647,-0.9925482,3.0012016,0.0,-0.10772545,-0.08623054,0.0030385256,0.0,0.0,0.0,0.0,0.0,0.0,0.024538042,-0.019556522,-0.76042885
129814787,0.628407,0.32398647,-0.9925482,3.0012016,0.0,-0.042325445,-0.09461622,-0.0021574497,0.0,0.0,0.0,0.0,0.0,0.0,0.03233166,-0.017379709,-0.76132727
129914922,0.628407,0.32398647,-0.9925482,3.0012016,0.0,0.033304725,-0.09905104,-0.0072718263,0.0,0.0,0.0,0.0,0.0,0.0,0.043819718,-0.013693655,-0.7648734
130035046,0.628407,0.32398647,-0.9925482,3.0012016,0.0,0.12370769,-0.098349415,-0.014148891,0.0,0.0,0.0,0.0,0.0,0.0,0.051774494,-0.014998696,-0.7655961
130135024,0.628407,0.32398647,-0.9925482,3.0012016,0.0,0.19603054,-0.09390083,-0.018974483,0.0,0.0,0.0,0.0,0.0,0.0,0.053055547,-0.0068794563,-0.76035213
130235385,0.628407,0.32398647,-0.9925482,3.0012016,0.0,0.26989457,-0.08562211,-0.020728588,0.0,0.0,0.0,0.0,0.0,0.0,0.054270376,-0.0077809016,-0.7526896
130335411,0.628407,0.32398647,-0.9925482,3.0012016,0.0,0.32945034,-0.07601493,-0.018119454,0.0,0.0,0.0,0.0,0.0,0.0,0.059413467,-0.0037210006,-0.7470436
130436227,0.628407,0.32398647,-0.9925482,3.0012016,0.0,0.38152418,-0.06496247,-0.012138605,0.0,0.0,0.0,0.0,0.0,0.0,0.053806692,-0.008622285,-0.7419737
130535524,0.628407,0.32398647,-0.9925482,3.0012016,0.0,0.41624632,-0.055928443,-0.0043610334,0.0,0.0,0.0,0.0,0.0,0.0,0.052223086,-0.0065017845,-0.7382827
130635602,0.628407,0.32398647,-0.9925482,3.0012016,0.0,0.43930924,-0.047912832,0.005100727,0.0,0.0,0.0,0.0,0.0,0.0,0.05157743,-0.003930867,-0.73489976
130735677,0.628407,0.32398647,-0.9925482,3.0012016,0.0,0.4498275,-0.04340363,0.013316512,0.0,0.0,0.0,0.0,0.0,0.0,0.045319077,-0.0026113095,-0.73130757
130835741,0.628407,0.32398647,-0.9925482,3.0012016,0.0,0.45280612,-0.042052317,0.02300179,0.0,0.0,0.0,0.0,0.0,0.0,0.04310335,-0.010496684,-0.7294775
130935858,0.628407,0.32398647,-0.9925482,3.0012016,0.0,0.4525713,-0.04560029,0.030978799,0.0,0.0,0.0,0.0,0.0,0.0,0.03825981,-0.006127774,-0.72586703
131036013,0.628407,0.32398647,-0.9925482,3.0012016,0.0,0.45147482,-0.05164557,0.039428473,0.0,0.0,0.0,0.0,0.0,0.0,0.0384447,-0.005983236,-0.72497296
131136160,0.628407,0.32398647,-0.9925482,3.0012016,0.0,0.45206454,-0.057760607,0.04632294,0.0,0.0,0.0,0.0,0.0,0.0,0.0361569,-0.006864978,-0.7247573
131236564,0.628407,0.32398647,-0.9925482,3.0012016,0.0,0.4547839,-0.06308897,0.052265882,0.0,0.0,0.0,0.0,0.0,0.0,0.03705916,-0.005379969,-0.7269454
131336373,0.628407,0.32398647,-0.9925482,3.0012016,0.0,0.4588373,-0.06695288,0.055775166,0.0,0.0,0.0,0.0,0.0,0.0,0.034549985,-0.009497149,-0.7287351
131436385,0.628407,0.32398647,-0.9925482,3.0012016,0.0,0.46375993,-0.06932841,0.056863308,0.0,0.0,0.0,0.0,0.0,0.0,0.038516108,-0.0042695096,-0.7332808
131556545,0.628407,0.32398647,-0.9925482,3.0012016,0.0,0.46945867,-0.06896196,0.05423963,0.0,0.0,0.0,0.0,0.0,0.0,0.03977805,-0.00913446,-0.74059564
131656551,0.628407,0.32398647,-0.9925482,3.0012016,0.0,0.4741461,-0.06721479,0.04801929,0.0,0.0,0.0,0.0,0.0,0.0,0.035510026,-0.00797134,-0.74487346
131757291,0.628407,0.32398647,-0.9925482,3.0012016,0.0,0.47899717,-0.064225756,0.038858056,0.0,0.0,0.0,0.0,0.0,0.0,0.038582005,-0.007963535,-0.74961394
131857406,0.628407,0.32398647,-0.9925482,3.0012016,0.0,0.4820879,-0.061375342,0.02933383,0.0,0.0,0.0,0.0,0.0,0.0,0.04024314,-0.011308143,-0.75514114
131957590,0.628407,0.32398647,-0.9925482,3.0012016,0.0,0.48364353,-0.059563078,0.01838839,0.0,0.0,0.0,0.0,0.0,0.0,0.036840785,-0.013850857,-0.7584489
132057388,0.628407,0.32398647,-0.9925482,3.0012016,0.0,0.4830469,-0.059221093,0.00838697,0.0,0.0,0.0,0.0,0.0,0.0,0.037110645,-0.012871493,-0.76027745
132158379,0.628407,0.32398647,-0.9925482,3.0012016,0.0,0.47900358,-0.06298192,-0.0012311339,0.0,0.0,0.0,0.0,0.0,0.0,0.035111543,-0.019671211,-0.76187086
132257376,0.628407,0.32398647,-0.9925482,3.0012016,0.0,0.47300693,-0.07053635,-0.0088249445,0.0,0.0,0.0,0.0,0.0,0.0,0.036435638,-0.025561731,-0.7638242
132357865,0.628407,0.32398647,-0.9925482,3.0012016,0.0,0.46418455,-0.083079934,-0.014807403,0.0,0.0,0.0,0.0,0.0,0.0,0.03088584,-0.022994325,-0.76178026
132457414,0.628407,0.32398647,-0.9925482,3.0012016,0.0,0.45466536,-0.09755254,-0.019727588,0.0,0.0,0.0,0.0,0.0,0.0,0.030045668,-0.031450547,-0.76518226
132557839,0.628407,0.32398647,-0.9925482,3.0012016,0.0,0.44291586,-0.114658944,-0.025985658,0.0,0.0,0.0,0.0,0.0,0.0,0.028708871,-0.03267941,-0.7715111
132677785,0.628407,0.32398647,-0.9925482,3.0012016,0.0,0.42750338,-0.13446656,-0.036942422,0.0,0.0,0.0,0.0,0.0,0.0,0.02654492,-0.035317626,-0.779944
132778061,0.628407,0.32398647,-0.9925482,3.0012016,0.0,0.41210648,-0.14919335,-0.050567925,0.0,0.0,0.0,0.0,0.0,0.0,0.024056323,-0.031816803,-0.7880609
132877911,0.628407,0.32398647,-0.9925482,3.0012016,0.0,0.39603567,-0.15989284,-0.06557828,0.0,0.0,0.0,0.0,0.0,0.0,0.024863455,-0.03083018,-0.79498184
132978225,0.628407,0.32398647,-0.9925482,3.0012016,0.0,0.37611383,-0.16787972,-0.0828256,0.0,0.0,0.0,0.0,0.0,0.0,0.01629252,-0.031905495,-0.79649955
133078014,0.628407,0.32398647,-0.9925482,3.0012016,0.0,0.35543084,-0.17118868,-0.097430706,0.0,0.0,0.0,0.0,0.0,0.0,0.016907927,-0.032004565,-0.79809606
133178143,0.628407,0.32398647,-0.9925482,3.0012016,0.0,0.33161137,-0.17073144,-0.11134887,0.0,0.0,0.0,0.0,0.0,0.0,0.014910975,-0.024134085,-0.7988579
133278369,0.628407,0.32398647,-0.9925482,3.0012016,0.0,0.30933392,-0.1666805,-0.12169963,0.0,0.0,0.0,0.0,0.0,0.0,0.008471751,-0.023264617,-0.7993784
133378422,0.628407,0.32398647,-0.9925482,3.0012016,0.0,0.2850386,-0.15875229,-0.13034439,0.0,0.0,0.0,0.0,0.0,0.0,0.008101411,-0.019553907,-0.79806256
133478545,0.628407,0.32398647,-0.9925482,3.0012016,0.0,0.26322627,-0.14831556,-0.1359213,0.0,0.0,0.0,0.0,0.0,0.0,0.007003471,-0.01987844,-0.7975836
133578702,0.628407,0.32398647,-0.9925482,3.0012016,0.0,0.240339,-0.13519311,-0.1426428,0.0,0.0,0.0,0.0,0.0,0.0,0.006948362,-0.01725662,-0.805774
133678720,0.628407,0.32398647,-0.9925482,3.0012016,0.0,0.22037907,-0.122389734,-0.1517939,0.0,0.0,0.0,0.0,0.0,0.0,0.0011962359,-0.01458242,-0.80727243
133778754,0.628407,0.32398647,-0.9925482,3.0012016,0.0,0.19715793,-0.10883404,-0.15952724,0.0,0.0,0.0,0.0,0.0,0.0,0.0047315448,-0.014876488,-0.8045733
133898833,0.628407,0.32398647,-0.9925482,3.0012016,0.0,0.17070232,-0.095246986,-0.16796547,0.0,0.0,0.0,0.0,0.0,0.0,0.0011611525,-0.01573894,-0.80459505
133998898,0.628407,0.32398647,-0.9925482,3.0012016,0.0,0.15033285,-0.08677371,-0.17379183,0.0,0.0,0.0,0.0,0.0,0.0,-0.00039680814,-0.010773346,-0.8013085
134098994,0.628407,0.32398647,-0.9925482,3.0012016,0.0,0.12961942,-0.07972672,-0.17732257,0.0,0.0,0.0,0.0,0.0,0.0,-0.003981427,-0.017571026,-0.797753
134199199,0.628407,0.32398647,-0.9925482,3.0012016,0.0,0.11128781,-0.07459703,-0.17743772,0.0,0.0,0.0,0.0,0.0,0.0,-0.004095401,-0.014211932,-0.7930049
134299349,0.628407,0.32398647,-0.9925482,3.0012016,0.0,0.091605216,-0.0694268,-0.1740666,0.0,0.0,0.0,0.0,0.0,0.0,-0.0071214894,-0.01284944,-0.7857995
134399439,0.628407,0.32398647,-0.9925482,3.0012016,0.0,0.07183979,-0.065762065,-0.16822577,0.0,0.0,0.0,0.0,0.0,0.0,-0.011628999,-0.019102763,-0.78183484
134499514,0.628407,0.32398647,-0.9925482,3.0012016,0.0,0.048522703,-0.06398521,-0.15975505,0.0,0.0,0.0,0.0,0.0,0.0,-0.01445012,-0.017246524,-0.7757164
134599567,0.628407,0.32398647,-0.9925482,3.0012016,0.0,0.02488943,-0.06403915,-0.14888501,0.0,0.0,0.0,0.0,0.0,0.0,-0.012294166,-0.01733596,-0.7696974
134699592,0.628407,0.32398647,-0.9925482,3.0012016,0.0,-0.00047456918,-0.064064264,-0.13600779,0.0,0.0,0.0,0.0,0.0,0.0,-0.017321106,-0.013479383,-0.7631135
134799724,0.628407,0.32398647,-0.9925482,3.0012016,0.0,-0.022518622,-0.063067675,-0.124448955,0.0,0.0,0.0,0.0,0.0,0.0,-0.02163093,-0.014515362,-0.76287574
134899794,0.628407,0.32398647,-0.9925482,3.0012016,0.0,-0.04547767,-0.05979682,-0.11370683,0.0,0.0,0.0,0.0,0.0,0.0,-0.01707182,-0.010888059,-0.76523757
134999972,0.628407,0.32398647,-0.9925482,3.0012016,0.0,-0.06472663,-0.05341024,-0.10742736,0.0,0.0,0.0,0.0,0.0,0.0,-0.020294648,-0.0055353395,-0.76414305
135100397,0.628407,0.32398647,-0.9925482,3.0012016,0.0,-0.08362712,-0.04198553,-0.10413015,0.0,0.0,0.0,0.0,0.0,0.0,-0.022186093,-0.0015027588,-0.7656066
135220523,0.628407,0.32398647,-0.9925482,3.0012016,0.0,-0.103185706,-0.023700884,-0.10296905,0.0,0.0,0.0,0.0,0.0,0.0,-0.018786775,0.0012600422,-0.76968896
135321005,0.628407,0.32398647,-0.9925482,3.0012016,0.0,-0.11671588,-0.0064784274,-0.103346944,0.0,0.0,0.0,0.0,0.0,0.0,-0.022416517,0.0013511898,-0.7678903
135420921,0.628407,0.32398647,-0.9925482,3.0012016,0.0,-0.12856,0.013725814,-0.10305518,0.0,0.0,0.0,0.0,0.0,0.0,-0.01986092,0.00703918,-0.76657456
135521178,0.628407,0.32398647,-0.9925482,3.0012016,0.0,-0.13615464,0.033498067,-0.1016739,0.0,0.0,0.0,0.0,0.0,0.0,-0.01659429,0.0061967736,-0.7648457
135621142,0.628407,0.32398647,-0.9925482,3.0012016,0.0,-0.14077349,0.055174995,-0.097472966,0.0,0.0,0.0,0.0,0.0,0.0,-0.019584391,0.011664294,-0.7597692
135720642,0.628407,0.32398647,-0.9925482,3.0012016,0.0,-0.14150248,0.07568399,-0.091640115,0.0,0.0,0.0,0.0,0.0,0.0,-0.015501311,0.017284976,-0.75688875
