timestamp,ref_timestamp,ref_lat,ref_lon,x,y,z,delta_xy[0],delta_xy[1],delta_z,vx,vy,vz,z_deriv,delta_vxy[0],delta_vxy[1],delta_vz,ax,ay,az,yaw,ref_alt,dist_bottom,dist_bottom_rate,eph,epv,evh,evv,vxy_max,vz_max,hagl_min,hagl_max,xy_valid,z_valid,v_xy_valid,v_z_valid,xy_reset_counter,z_reset_counter,vxy_reset_counter,vz_reset_counter,xy_global,z_global,dist_bottom_valid
32308303870,0,0.0,0.0,0.4507417,0.37772018,-0.035686865,0.40435395,0.40920234,0.07055831,-0.00030053256,0.00080500514,0.00041397213,0.00049461436,-0.0027771294,-0.005445751,0.0009939618,0.011213632,0.0118667465,-0.015778143,-3.0670853,0.0,0.1,-0.00041397213,0.005607755,0.003977414,0.026481066,0.018858487,inf,inf,inf,inf,1,1,1,1,2,3,2,5,0,0,0
32308407920,0,0.0,0.0,0.45050055,0.37762007,-0.035791185,0.40435395,0.40920234,0.07055831,-0.00020044527,0.0014710352,-3.1513613e-05,-6.692158e-05,-0.0027771294,-0.005445751,0.0009939618,-0.009031771,0.00059905363,0.013693975,-3.0670283,0.0,0.1,3.1513613e-05,0.005528186,0.003921203,0.026698062,0.019013364,inf,inf,inf,inf,1,1,1,1,2,3,2,5,0,0,0
32308503907,0,0.0,0.0,0.450309,0.37756395,-0.036007136,0.40435395,0.40920234,0.07055831,-0.00059681357,0.0014103781,-0.0015565421,-0.0016765323,-0.0027771294,-0.005445751,0.0009939618,0.011445585,0.0030813594,0.032072917,-3.0670369,0.0,0.1,0.0015565421,0.005374984,0.003812332,0.02644348,0.018838733,inf,inf,inf,inf,1,1,1,1,2,3,2,5,0,0,0
32308607870,0,0.0,0.0,0.45015025,0.3775191,-0.03631722,0.40435395,0.40920234,0.07055831,-0.0006462977,0.0008793129,-0.0018738143,-0.0020542445,-0.0027771294,-0.005445751,0.0009939618,0.22487763,-0.2446962,-0.21296744,-3.0659332,0.0,0.1,0.0018738143,0.005469428,0.003880324,0.026752112,0.01906137,inf,inf,inf,inf,1,1,1,1,2,3,2,5,0,0,0
32308711070,0,0.0,0.0,0.45008922,0.37762067,-0.03656686,0.40435395,0.40920234,0.07055831,-0.0004070726,0.003013893,-0.0018986947,-0.0020679669,-0.0027771294,-0.005445751,0.0009939618,-0.25847986,-0.10371269,0.02063525,-3.0676694,0.0,0.10018019,0.0018986947,0.005159204,0.0036589475,0.02589118,0.01843919,inf,inf,inf,inf,1,1,1,1,2,3,2,5,0,0,0
32308815070,0,0.0,0.0,0.45002347,0.37763843,-0.03680917,0.40435395,0.40920234,0.07055831,8.161951e-05,0.003433053,-0.0023333882,-0.002428242,-0.0027771294,-0.005445751,0.0009939618,0.03181841,0.017206544,-0.07705134,-3.066845,0.0,0.10043136,0.0023333882,0.005194072,0.0036837277,0.025891995,0.018440677,inf,inf,inf,inf,1,1,1,1,2,3,2,5,0,0,0
32308919075,0,0.0,0.0,0.44998512,0.3777009,-0.036959462,0.40435395,0.40920234,0.07055831,0.00047853857,0.00055798894,-0.0014102109,-0.0014044888,-0.0027771294,-0.005445751,0.0009939618,0.21281555,-0.044572175,0.09446517,-3.0660677,0.0,0.10056906,0.0014102109,0.0052817897,0.003746771,0.026162712,0.018642342,inf,inf,inf,inf,1,1,1,1,2,3,2,5,0,0,0
32309015116,0,0.0,0.0,0.4500128,0.37779003,-0.037026804,0.40435395,0.40920234,0.07055831,-0.00054366403,0.0034230733,-0.0020481392,-0.0019382417,-0.0027771294,-0.005445751,0.0009939618,0.010778361,0.4092814,-0.0153022185,-3.067189,0.0,0.10058579,0.0020481392,0.0052016275,0.003689638,0.0259386,0.018478747,inf,inf,inf,inf,1,1,1,1,2,3,2,5,0,0,0
32309119075,0,0.0,0.0,0.4500345,0.37759978,-0.037096735,0.40435395,0.40920234,0.07055831,-4.0166855e-05,0.0014251405,-0.0028300697,-0.0026013847,-0.0027771294,-0.005445751,0.0009939618,-0.040124886,-0.025986932,-0.17572239,-3.0669742,0.0,0.10070522,0.0028300697,0.0052937604,0.0037555008,0.026187515,0.018658156,inf,inf,inf,inf,1,1,1,1,2,3,2,5,0,0,0
32309222271,0,0.0,0.0,0.4501061,0.3775761,-0.037086435,0.40435395,0.40920234,0.07055831,0.0018604357,0.0027608976,-0.002485454,-0.002151728,-0.0027771294,-0.005445751,0.0009939618,0.035906024,0.63280535,-0.78820133,-3.0669076,0.0,0.10067076,0.002485454,0.005351724,0.0037967365,0.026286777,0.018727092,inf,inf,inf,inf,1,1,1,1,2,3,2,5,0,0,0
32309326276,0,0.0,0.0,0.45027766,0.37774017,-0.037031427,0.40435395,0.40920234,0.07055831,-0.00012702348,0.0008157444,-0.0005427253,-0.00013632298,-0.0027771294,-0.005445751,0.0009939618,-0.28702813,-0.21318623,0.23932469,-3.0672367,0.0,0.10052547,0.0005427253,0.0053964397,0.0038285777,0.02638246,0.018804014,inf,inf,inf,inf,1,1,1,1,2,3,2,5,0,0,0
32309430270,0,0.0,0.0,0.45047638,0.37783694,-0.036803488,0.40435395,0.40920234,0.07055831,0.0012337217,0.0055907103,0.0004928777,0.0009431166,-0.0027771294,-0.005445751,0.0009939618,-0.07408421,0.12533368,-0.20356117,-3.067413,0.0,0.10026723,-0.0004928777,0.0051090918,0.0036237796,0.025664901,0.018287381,inf,inf,inf,inf,1,1,1,1,2,3,2,5,0,0,0
32309526291,0,0.0,0.0,0.45063573,0.377865,-0.036643345,0.40435395,0.40920234,0.07055831,0.0030602245,0.0045462684,0.0005052805,0.0009861866,-0.0027771294,-0.005445751,0.0009939618,0.2581946,0.91239226,0.13595214,-3.0670865,0.0,0.10018854,-0.0005052805,0.0054083634,0.0038375899,0.026422156,0.018832576,inf,inf,inf,inf,1,1,1,1,2,3,2,5,0,0,0
32309629470,0,0.0,0.0,0.45080388,0.37796745,-0.036544014,0.40435395,0.40920234,0.07055831,0.001418447,0.002835479,-0.00085601775,-0.00038557657,-0.0027771294,-0.005445751,0.0009939618,-0.34420362,0.19273534,0.11496797,-3.0671582,0.0,0.10012308,0.00085601775,0.005131054,0.0036395995,0.025751194,0.018345064,inf,inf,inf,inf,1,1,1,1,2,3,2,5,0,0,0
32309733470,0,0.0,0.0,0.45092592,0.3780517,-0.036556527,0.40435395,0.40920234,0.07055831,0.0029046207,0.0006902389,-0.002111377,-0.0016811605,-0.0027771294,-0.005445751,0.0009939618,-0.023155417,-0.4295541,-0.19984764,-3.0671973,0.0,0.10012625,0.002111377,0.0052074646,0.0036939834,0.025914008,0.01846152,inf,inf,inf,inf,1,1,1,1,2,3,2,5,0,0,0
32309829482,0,0.0,0.0,0.4510066,0.37806407,-0.036771335,0.40435395,0.40920234,0.07055831,0.0033510558,0.0028527873,-0.0035362628,-0.0031665987,-0.0027771294,-0.005445751,0.0009939618,0.91890657,-0.410762,0.046826653,-3.067057,0.0,0.100240536,0.0035362628,0.005102669,0.0036191782,0.025597671,0.018238967,inf,inf,inf,inf,1,1,1,1,2,3,2,5,0,0,0
32309933470,0,0.0,0.0,0.45104057,0.3781789,-0.03716603,0.40435395,0.40920234,0.07055831,0.0009338322,0.004392271,-0.0037923036,-0.0034905714,-0.0027771294,-0.005445751,0.0009939618,-0.012784404,0.041713286,0.4584565,-3.067261,0.0,0.10047461,0.0037923036,0.005162755,0.0036621378,0.025782986,0.018370043,inf,inf,inf,inf,1,1,1,1,2,3,2,5,0,0,0
32310037496,0,0.0,0.0,0.45102125,0.37821907,-0.03761662,0.40435395,0.40920234,0.07055831,-0.0001518488,0.0049417983,-0.00433544,-0.004043152,-0.0027771294,-0.005445751,0.0009939618,-0.5784584,0.17499775,0.12678088,-3.0670862,0.0,0.10078047,0.00433544,0.0052356985,0.0037141086,0.025982182,0.018509516,inf,inf,inf,inf,1,1,1,1,2,3,2,5,0,0,0
32310140676,0,0.0,0.0,0.45096138,0.37819526,-0.037939724,0.40435395,0.40920234,0.07055831,0.0012251902,0.003387792,-0.0049456717,-0.0045531127,-0.0027771294,-0.005445751,0.0009939618,0.079606086,0.2422528,-0.23532796,-3.067046,0.0,0.101027384,0.0049456717,0.0053025843,0.0037617078,0.02616004,0.018636357,inf,inf,inf,inf,1,1,1,1,2,3,2,5,0,0,0
32310236670,0,0.0,0.0,0.45084307,0.37812066,-0.038082447,0.40435395,0.40920234,0.07055831,0.0012074921,0.001331838,-0.004824547,-0.0042610024,-0.0027771294,-0.005445751,0.0009939618,0.33637145,-0.3982175,-0.28621438,-3.0672598,0.0,0.101220116,0.004824547,0.0052011707,0.0036891485,0.02587516,0.018431634,inf,inf,inf,inf,1,1,1,1,2,3,2,5,0,0,0
32310340697,0,0.0,0.0,0.45070913,0.37791485,-0.038042117,0.40435395,0.40920234,0.07055831,0.0017945364,-0.00044239758,-0.0023124842,-0.0015159484,-0.0027771294,-0.005445751,0.0009939618,0.721301,-0.65385395,-0.052675433,-3.067081,0.0,0.101256,0.0023124842,0.0052676643,0.003736981,0.026097976,0.018599525,inf,inf,inf,inf,1,1,1,1,2,3,2,5,0,0,0
32310444677,0,0.0,0.0,0.45061287,0.3776719,-0.03786617,0.40435395,0.40920234,0.07055831,0.0011088671,0.00024461877,-0.0026864314,-0.0016915939,-0.0027771294,-0.005445751,0.0009939618,0.32338235,0.016389046,-0.36358517,-3.0671792,0.0,0.101126105,0.0026864314,0.0053586042,0.0038021451,0.02635955,0.018785682,inf,inf,inf,inf,1,1,1,1,2,3,2,5,0,0,0
32310547897,0,0.0,0.0,0.4505744,0.37742162,-0.037589457,0.40435395,0.40920234,0.07055831,8.026782e-07,-0.0015590081,-0.0012829367,-0.0001364573,-0.0027771294,-0.005445751,0.0009939618,-0.2278498,-0.61679226,0.09774045,-3.0670722,0.0,0.100970656,0.0012829367,0.0054672877,0.0038798342,0.026634332,0.018983841,inf,inf,inf,inf,1,1,1,1,2,3,2,5,0,0,0
32310651896,0,0.0,0.0,0.45057285,0.37718254,-0.037313927,0.40435395,0.40920234,0.07055831,0.0016660171,-0.001193708,-0.0012421061,-4.38562e-06,-0.0027771294,-0.005445751,0.0009939618,-0.28711087,-0.23312126,-0.11108681,-3.0670636,0.0,0.10076216,0.0012421061,0.005139745,0.0036456955,0.025701897,0.018316636,inf,inf,inf,inf,1,1,1,1,2,3,2,5,0,0,0
32310755870,0,0.0,0.0,0.45061645,0.376932,-0.037029378,0.40435395,0.40920234,0.07055831,0.0018592256,-0.00071731576,-0.0008788494,0.00038208652,-0.0027771294,-0.005445751,0.0009939618,0.19195756,-0.13540532,-0.24255712,-3.0670562,0.0,0.10055103,0.0008788494,0.0051927553,0.0036836057,0.025832567,0.018409457,inf,inf,inf,inf,1,1,1,1,2,3,2,5,0,0,0
32310851869,0,0.0,0.0,0.45067728,0.37677684,-0.036816955,0.40435395,0.40920234,0.07055831,0.0005576422,-0.0005633425,-0.00069267076,0.0005253352,-0.0027771294,-0.005445751,0.0009939618,-0.3915804,-0.13879542,-0.15785995,-3.0673385,0.0,0.10025942,0.00069267076,0.005152916,0.0036554043,0.025802985,0.01838684,inf,inf,inf,inf,1,1,1,1,2,3,2,5,0,0,0
32310955877,0,0.0,0.0,0.45075136,0.3766078,-0.036679506,0.40435395,0.40920234,0.07055831,0.0022652058,-0.0012435393,-0.00077287137,0.00034756152,-0.0027771294,-0.005445751,0.0009939618,0.09688281,-0.5811933,-0.25359732,-3.0669928,0.0,0.100088954,0.00077287137,0.0052402345,0.0037177287,0.026042784,0.018557066,inf,inf,inf,inf,1,1,1,1,2,3,2,5,0,0,0
32311059069,0,0.0,0.0,0.45077187,0.37642318,-0.036620826,0.40435395,0.40920234,0.07055831,0.001353344,-0.002332874,-0.0016009203,-0.000578358,-0.0027771294,-0.005445751,0.0009939618,0.095144734,-0.28062472,-0.14172989,-3.0670578,0.0,0.10004397,0.0016009203,0.005293172,0.0037552922,0.026125645,0.018615376,inf,inf,inf,inf,1,1,1,1,2,3,2,5,0,0,0
32311163128,0,0.0,0.0,0.4507227,0.37626094,-0.03658722,0.40435395,0.40920234,0.07055831,0.00047818688,-0.0016887714,-0.0006271126,0.0002979161,-0.0027771294,-0.005445751,0.0009939618,-0.25386742,0.08614401,0.022649152,-3.0670185,0.0,0.1,0.0006271126,0.00527493,0.003741837,0.025971249,0.018501816,inf,inf,inf,inf,1,1,1,1,2,3,2,5,0,0,0
32311267118,0,0.0,0.0,0.45067528,0.37614462,-0.036558583,0.40435395,0.40920234,0.07055831,0.00088379864,-0.0016891952,-0.0016936132,-0.0008593112,-0.0027771294,-0.005445751,0.0009939618,-0.42123893,0.29423738,-0.3456482,-3.0670884,0.0,0.1,0.0016936132,0.0052919597,0.0037542745,0.026072534,0.018581012,inf,inf,inf,inf,1,1,1,1,2,3,2,5,0,0,0
32311363105,0,0.0,0.0,0.45064464,0.37606543,-0.036639083,0.40435395,0.40920234,0.07055831,5.8965234e-06,-0.0014047907,-0.0021886267,-0.001412504,-0.0027771294,-0.005445751,0.0009939618,-0.21314992,0.24692367,-0.0709312,-3.0670197,0.0,0.100021735,0.0021886267,0.0051773624,0.0036725285,0.02580788,0.018389089,inf,inf,inf,inf,1,1,1,1,2,3,2,5,0,0,0
32311465518,0,0.0,0.0,0.45057926,0.37599525,-0.0367805,0.40435395,0.40920234,0.07055831,-0.0005852193,-0.0019175819,-0.00019930789,0.00052696106,-0.0027771294,-0.005445751,0.0009939618,0.31542128,0.601142,0.15101832,-3.0671196,0.0,0.100157775,0.00019930789,0.0052223178,0.0037045816,0.025933601,0.018476924,inf,inf,inf,inf,1,1,1,1,2,3,2,5,0,0,0
32311570270,0,0.0,0.0,0.45045632,0.37591395,-0.03695158,0.40435395,0.40920234,0.07055831,0.00013303198,-0.0041550347,-0.0023702949,-0.0016642011,-0.0027771294,-0.005445751,0.0009939618,0.74200904,0.4274853,-0.24711138,-3.0670228,0.0,0.10032772,0.0023702949,0.0052947323,0.003756244,0.026160795,0.018638872,inf,inf,inf,inf,1,1,1,1,2,3,2,5,0,0,0
32311674277,0,0.0,0.0,0.4503849,0.37583384,-0.037125513,0.40435395,0.40920234,0.07055831,-0.0017244371,-0.0059922202,-0.0020791038,-0.0013726057,-0.0027771294,-0.005445751,0.0009939618,-0.18754467,-0.93666124,-0.05727248,-3.0670075,0.0,0.10039845,0.0020791038,0.005359943,0.0038031447,0.026332468,0.018767955,inf,inf,inf,inf,1,1,1,1,2,3,2,5,0,0,0
32311770276,0,0.0,0.0,0.45033538,0.37573993,-0.03727769,0.40435395,0.40920234,0.07055831,-0.0014801337,-0.0021619764,-0.0019082144,-0.0011860719,-0.0027771294,-0.005445751,0.0009939618,-0.25048783,-0.006044401,0.41447115,-3.0671573,0.0,0.100530095,0.0019082144,0.005292117,0.003754676,0.02615736,0.018640436,inf,inf,inf,inf,1,1,1,1,2,3,2,5,0,0,0
32311874270,0,0.0,0.0,0.45033467,0.37570944,-0.037388783,0.40435395,0.40920234,0.07055831,0.0005326257,-0.002077997,-0.0025703958,-0.0017919166,-0.0027771294,-0.005445751,0.0009939618,-0.27066216,0.3704515,0.26363695,-3.0673401,0.0,0.10062067,0.0025703958,0.0053622387,0.0038045913,0.026313035,0.018749127,inf,inf,inf,inf,1,1,1,1,2,3,2,5,0,0,0
32311973469,0,0.0,0.0,0.45038548,0.37574327,-0.03739318,0.40435395,0.40920234,0.07055831,-0.00056461367,-0.0022093907,-0.001664942,-0.000814724,-0.0027771294,-0.005445751,0.0009939618,-0.2712796,0.08798831,-0.11278891,-3.0672364,0.0,0.100639045,0.001664942,0.0053487807,0.003795091,0.026374046,0.018793577,inf,inf,inf,inf,1,1,1,1,2,3,2,5,0,0,0
32312077474,0,0.0,0.0,0.4504966,0.37586266,-0.03737167,0.40435395,0.40920234,0.07055831,0.0007333109,0.00085121044,-0.0015315656,-0.0005918392,-0.0027771294,-0.005445751,0.0009939618,-0.7507947,0.52923447,-0.040396363,-3.0672846,0.0,0.100685224,0.0015315656,0.005479755,0.0038881046,0.026746456,0.019035826,inf,inf,inf,inf,1,1,1,1,2,3,2,5,0,0,0
32312181469,0,0.0,0.0,0.4507056,0.37604386,-0.03728528,0.40435395,0.40920234,0.07055831,0.0030079428,0.0003373035,-0.0024376926,-0.0014067184,-0.0027771294,-0.005445751,0.0009939618,-0.12370285,0.75489,-0.12988189,-3.0670571,0.0,0.10064122,0.0024376926,0.0055271713,0.0039203605,0.026796559,0.019068554,inf,inf,inf,inf,1,1,1,1,2,3,2,5,0,0,0
32312277469,0,0.0,0.0,0.45094118,0.37631163,-0.03720774,0.40435395,0.40920234,0.07055831,0.0024324735,-0.0012223063,-0.0008687611,0.00019657801,-0.0027771294,-0.005445751,0.0009939618,0.137599,-0.4984777,0.19322944,-3.067148,0.0,0.10057664,0.0008687611,0.0052955863,0.0037544775,0.026022302,0.018517064,inf,inf,inf,inf,1,1,1,1,2,3,2,5,0,0,0
32312381470,0,0.0,0.0,0.45112762,0.37660193,-0.0371061,0.40435395,0.40920234,0.07055831,0.002234073,-7.05685e-05,-0.0011068184,-1.2078635e-05,-0.0027771294,-0.005445751,0.0009939618,0.22103193,-0.35074,0.08294166,-3.067027,0.0,0.10053179,0.0011068184,0.005318785,0.003771283,0.026165491,0.018625883,inf,inf,inf,inf,1,1,1,1,2,3,2,5,0,0,0
32312484670,0,0.0,0.0,0.45124787,0.376865,-0.037021402,0.40435395,0.40920234,0.07055831,0.002726819,-0.0013831026,-0.0017797169,-0.00070081983,-0.0027771294,-0.005445751,0.0009939618,0.32875144,-0.9288516,0.06219934,-3.0670276,0.0,0.10034466,0.0017797169,0.005366541,0.0038057996,0.026325135,0.018748296,inf,inf,inf,inf,1,1,1,1,2,3,2,5,0,0,0
32312580669,0,0.0,0.0,0.45131227,0.37706223,-0.036969878,0.40435395,0.40920234,0.07055831,0.0014667313,0.00018715016,-0.00055997097,0.00049619225,-0.0027771294,-0.005445751,0.0009939618,0.45568594,-0.26337063,-0.029021822,-3.0671613,0.0,0.1003271,0.00055997097,0.0053007375,0.0037597155,0.026214477,0.018677833,inf,inf,inf,inf,1,1,1,1,2,3,2,5,0,0,0
32312684669,0,0.0,0.0,0.45130447,0.37727886,-0.03696834,0.40435395,0.40920234,0.07055831,0.0020859719,0.003009792,-0.0012633532,-0.00023451538,-0.0027771294,-0.005445751,0.0009939618,0.5044151,0.2657801,-0.1031252,-3.0672145,0.0,0.10029632,0.0012633532,0.00537071,0.0038101305,0.026365152,0.018786516,inf,inf,inf,inf,1,1,1,1,2,3,2,5,0,0,0
32312783879,0,0.0,0.0,0.45128945,0.37748802,-0.03696008,0.40435395,0.40920234,0.07055831,0.0020902958,0.0033809782,-0.0013916588,-0.00038065918,-0.0027771294,-0.005445751,0.0009939618,0.054556623,0.5967059,-0.21070369,-3.0670981,0.0,0.10031751,0.0013916588,0.0052824263,0.0037472388,0.026120404,0.01860979,inf,inf,inf,inf,1,1,1,1,2,3,2,5,0,0,0
32312887870,0,0.0,0.0,0.4512676,0.37772566,-0.036982488,0.40435395,0.40920234,0.07055831,0.0021707632,0.0013371828,-0.0015172486,-0.00051676994,-0.0027771294,-0.005445751,0.0009939618,0.34449288,0.13620362,0.24031688,-3.0671098,0.0,0.100296214,0.0015172486,0.005395203,0.0038279067,0.026463354,0.01885547,inf,inf,inf,inf,1,1,1,1,2,3,2,5,0,0,0
32312991919,0,0.0,0.0,0.45126176,0.3780467,-0.037106805,0.40435395,0.40920234,0.07055831,0.00079273566,0.0039965897,-0.0031398113,-0.0021667741,-0.0027771294,-0.005445751,0.0009939618,-0.3245348,0.28983197,-0.02077942,-3.0670075,0.0,0.100403756,0.0031398113,0.0051689297,0.0036655825,0.026008524,0.018494088,inf,inf,inf,inf,1,1,1,1,2,3,2,5,0,0,0
32313087904,0,0.0,0.0,0.4512954,0.3782453,-0.03729155,0.40435395,0.40920234,0.07055831,0.0015745691,0.0041534584,-0.0022402965,-0.0012728815,-0.0027771294,-0.005445751,0.0009939618,-0.0569701,0.34716433,0.7381454,-3.06699,0.0,0.10058639,0.0022402965,0.0054294406,0.0038501886,0.026530618,0.018874692,inf,inf,inf,inf,1,1,1,1,2,3,2,5,0,0,0
32313191870,0,0.0,0.0,0.45122868,0.37841144,-0.03743309,0.40435395,0.40920234,0.07055831,0.00084327237,0.0009044177,-0.0010292538,-3.8595073e-05,-0.0027771294,-0.005445751,0.0009939618,0.17254905,-0.19199002,0.46177745,-3.0670016,0.0,0.100696295,0.0010292538,0.005136412,0.0036410666,0.025770733,0.01833538,inf,inf,inf,inf,1,1,1,1,2,3,2,5,0,0,0
32313295107,0,0.0,0.0,0.4510627,0.37844384,-0.03741801,0.40435395,0.40920234,0.07055831,-0.00040186782,0.0035362083,-0.003044433,-0.0019931025,-0.0027771294,-0.005445751,0.0009939618,-0.22594398,0.5847173,-0.32575706,-3.06727,0.0,0.10066539,0.003044433,0.005209111,0.0036930654,0.02592831,0.018455716,inf,inf,inf,inf,1,1,1,1,2,3,2,5,0,0,0
32313399070,0,0.0,0.0,0.45086128,0.3783604,-0.037284896,0.40435395,0.40920234,0.07055831,0.00090044294,0.0038175464,-0.0010028605,0.00011047686,-0.0027771294,-0.005445751,0.0009939618,0.71793693,0.07401309,0.05324697,-3.067035,0.0,0.10048292,0.0010028605,0.0052484055,0.0037215482,0.025986021,0.018511817,inf,inf,inf,inf,1,1,1,1,2,3,2,5,0,0,0
32313495070,0,0.0,0.0,0.45064968,0.37821317,-0.037082452,0.40435395,0.40920234,0.07055831,-0.000982157,0.001202469,-0.00017868594,0.0009838026,-0.0027771294,-0.005445751,0.0009939618,0.019760983,0.30433568,-0.16240086,-3.0670102,0.0,0.10037625,0.00017868594,0.00515992,0.003659133,0.025759546,0.018349959,inf,inf,inf,inf,1,1,1,1,2,3,2,5,0,0,0
32313599140,0,0.0,0.0,0.4503799,0.37804863,-0.03675147,0.40435395,0.40920234,0.07055831,0.00025025592,-0.00014800836,0.0012168472,0.00241394,-0.0027771294,-0.005445751,0.0009939618,0.41910195,-0.0785754,-0.21489166,-3.0667918,0.0,0.100143306,-0.0012168472,0.005252478,0.0037256968,0.026067115,0.01857107,inf,inf,inf,inf,1,1,1,1,2,3,2,5,0,0,0
32313702270,0,0.0,0.0,0.45018038,0.37788233,-0.03636959,0.40435395,0.40920234,0.07055831,-0.0019075854,0.0021517258,0.0018988589,0.0030788598,-0.0027771294,-0.005445751,0.0009939618,-0.45309013,0.30305728,-0.08302433,-3.0669816,0.0,0.1,-0.0018988589,0.005352445,0.0037973078,0.02635647,0.018780125,inf,inf,inf,inf,1,1,1,1,2,3,2,5,0,0,0
32313806309,0,0.0,0.0,0.44995487,0.37768373,-0.03588998,0.40435395,0.40920234,0.07055831,-0.0006964108,-0.00087296625,0.0029457177,0.0040640207,-0.0027771294,-0.005445751,0.0009939618,0.101630285,-0.38222668,0.09068713,-3.0670252,0.0,0.1,-0.0029457177,0.005412728,0.0038402458,0.026454879,0.018848334,inf,inf,inf,inf,1,1,1,1,2,3,2,5,0,0,0
32313902270,0,0.0,0.0,0.44981244,0.37748197,-0.03551229,0.40435395,0.40920234,0.07055831,-0.0014209915,-0.0005749017,0.0030883867,0.0040632584,-0.0027771294,-0.005445751,0.0009939618,0.10033455,-0.3514004,-0.035092223,-3.066797,0.0,0.1,-0.0030883867,0.0053034206,0.0037622387,0.026123367,0.018617896,inf,inf,inf,inf,1,1,1,1,2,3,2,5,0,0,0
32314006270,0,0.0,0.0,0.44975248,0.3773337,-0.03517073,0.40435395,0.40920234,0.07055831,-0.0012461022,-0.00032785966,0.0028321394,0.0035817972,-0.0027771294,-0.005445751,0.0009939618,0.44330302,0.2897561,-0.2090588,-3.066973,0.0,0.1,-0.0028321394,0.005402722,0.0038334879,0.026441548,0.018844375,inf,inf,inf,inf,1,1,1,1,2,3,2,5,0,0,0
32314110270,0,0.0,0.0,0.44970343,0.3772712,-0.034951463,0.40435395,0.40920234,0.07055831,-0.002328246,-0.00066263764,0.003222491,0.0037186206,-0.0027771294,-0.005445751,0.0009939618,-0.37648994,-0.093646854,0.26711708,-3.066684,0.0,0.1,-0.003222491,0.0051137186,0.0036270926,0.025686452,0.018298056,inf,inf,inf,inf,1,1,1,1,2,3,2,5,0,0,0
32314213469,0,0.0,0.0,0.44964495,0.37721997,-0.034881234,0.40435395,0.40920234,0.07055831,-0.0031371121,-0.00015593058,0.00091230206,0.0011396321,-0.0027771294,-0.005445751,0.0009939618,-0.2035682,-0.023917275,-0.2527442,-3.0669775,0.0,0.1,-0.00091230206,0.0051855743,0.0036782832,0.025863139,0.01842336,inf,inf,inf,inf,1,1,1,1,2,3,2,5,0,0,0
32314317525,0,0.0,0.0,0.4495685,0.3771875,-0.035046145,0.40435395,0.40920234,0.07055831,0.00020707658,-0.0014285893,0.0026274596,0.0025900174,-0.0027771294,-0.005445751,0.0009939618,0.9088917,-0.016443143,0.3559122,-3.066848,0.0,0.1,-0.0026274596,0.0052387053,0.0037161033,0.025984442,0.018517533,inf,inf,inf,inf,1,1,1,1,2,3,2,5,0,0,0
32314421476,0,0.0,0.0,0.4494961,0.3772384,-0.035310313,0.40435395,0.40920234,0.07055831,-0.0034461396,0.0006857764,0.0005328312,0.00025036762,-0.0027771294,-0.005445751,0.0009939618,-0.64646447,1.0827876,0.12482789,-3.0667636,0.0,0.1,-0.0005328312,0.0053239437,0.0037772255,0.026230711,0.018692227,inf,inf,inf,inf,1,1,1,1,2,3,2,5,0,0,0
32314517481,0,0.0,0.0,0.44949788,0.37731838,-0.035653297,0.40435395,0.40920234,0.07055831,-0.0019904799,0.0012369168,-0.0015605015,-0.0020062383,-0.0027771294,-0.005445751,0.0009939618,-0.14658815,0.04020283,-0.8185735,-3.066979,0.0,0.1,0.0015605015,0.005245105,0.003720861,0.026017273,0.018537853,inf,inf,inf,inf,1,1,1,1,2,3,2,5,0,0,0
32314620698,0,0.0,0.0,0.449532,0.37739703,-0.036082283,0.40435395,0.40920234,0.07055831,-0.0014515104,0.004073663,-0.0009117599,-0.0014511399,-0.0027771294,-0.005445751,0.0009939618,0.5967844,0.2926766,-0.2687545,-3.0670002,0.0,0.1,0.0009117599,0.0053115804,0.0037682308,0.026195308,0.018662734,inf,inf,inf,inf,1,1,1,1,2,3,2,5,0,0,0
32314724687,0,0.0,0.0,0.44953284,0.37756118,-0.036453027,0.40435395,0.40920234,0.07055831,0.0003188105,0.0005052581,-0.0035150854,-0.004079977,-0.0027771294,-0.005445751,0.0009939618,-0.5000746,-0.6395807,-0.664957,-3.0668411,0.0,0.10005273,0.0035150854,0.005373336,0.0038121713,0.02634276,0.018766299,inf,inf,inf,inf,1,1,1,1,2,3,2,5,0,0,0
32314820670,0,0.0,0.0,0.44954833,0.37764284,-0.03670141,0.40435395,0.40920234,0.07055831,-0.00033644435,0.0025579554,-0.002485987,-0.003012024,-0.0027771294,-0.005445751,0.0009939618,-0.022655815,-0.9236902,-0.54488,-3.0665379,0.0,0.10030112,0.002485987,0.005287182,0.0037507843,0.026108058,0.018607473,inf,inf,inf,inf,1,1,1,1,2,3,2,5,0,0,0
32314924682,0,0.0,0.0,0.44959384,0.37762213,-0.03690177,0.40435395,0.40920234,0.07055831,-0.0006929133,-0.0034320287,-0.0016778558,-0.0021016228,-0.0027771294,-0.005445751,0.0009939618,0.77635247,-1.1470608,0.6761463,-3.0666258,0.0,0.10050148,0.0016778558,0.0053790114,0.003816609,0.02638345,0.01880172,inf,inf,inf,inf,1,1,1,1,2,3,2,5,0,0,0
32315028676,0,0.0,0.0,0.44971693,0.37765327,-0.037087623,0.40435395,0.40920234,0.07055831,-0.0028252362,0.000391923,-0.0014055435,-0.0017069842,-0.0027771294,-0.005445751,0.0009939618,-1.0692275,0.07915173,-0.3835908,-3.0672178,0.0,0.100687325,0.0014055435,0.005076411,0.003600486,0.025576206,0.01822006,inf,inf,inf,inf,1,1,1,1,2,3,2,5,0,0,0
32315131874,0,0.0,0.0,0.44980896,0.37739694,-0.037259623,0.40435395,0.40920234,0.07055831,0.00019726528,0.005412443,-0.00082891306,-0.0010131892,-0.0027771294,-0.005445751,0.0009939618,1.4721944,2.5439706,0.19692573,-3.0668166,0.0,0.10085933,0.00082891306,0.0051811174,0.0036752385,0.025880482,0.018436028,inf,inf,inf,inf,1,1,1,1,2,3,2,5,0,0,0
32315227870,0,0.0,0.0,0.4498684,0.37718418,-0.03738697,0.40435395,0.40920234,0.07055831,0.003338813,-0.0020673268,0.00043433538,0.00035762874,-0.0027771294,-0.005445751,0.0009939618,1.537928,-0.2476273,0.46677694,-3.066405,0.0,0.100986674,-0.00043433538,0.005091448,0.0036110706,0.02561229,0.018241448,inf,inf,inf,inf,1,1,1,1,2,3,2,5,0,0,0
32315331870,0,0.0,0.0,0.44994748,0.37709773,-0.037374783,0.40435395,0.40920234,0.07055831,-0.0068366174,-0.0012653565,-0.0019319435,-0.001888356,-0.0027771294,-0.005445751,0.0009939618,-0.77746433,-0.27711335,-0.18141301,-3.0667725,0.0,0.100974485,0.0019319435,0.005146818,0.0036506269,0.025730895,0.018333148,inf,inf,inf,inf,1,1,1,1,2,3,2,5,0,0,0
32315435872,0,0.0,0.0,0.45004556,0.3770105,-0.037254583,0.40435395,0.40920234,0.07055831,0.00026491738,0.0027924175,-0.0034017188,-0.0032181728,-0.0027771294,-0.005445751,0.0009939618,-0.89185023,0.4277519,-1.2220788,-3.0669904,0.0,0.10085429,0.0034017188,0.005198167,0.0036873934,0.025855493,0.01842369,inf,inf,inf,inf,1,1,1,1,2,3,2,5,0,0,0
32315531870,0,0.0,0.0,0.45006138,0.37709302,-0.03705781,0.40435395,0.40920234,0.07055831,-0.002065373,0.00013210201,0.0008771288,0.0011829586,-0.0027771294,-0.005445751,0.0009939618,-1.3684425,0.48446903,-0.40921664,-3.0666807,0.0,0.100657515,-0.0008771288,0.0051218243,0.0036329443,0.025679292,0.018297428,inf,inf,inf,inf,1,1,1,1,2,3,2,5,0,0,0
32315635077,0,0.0,0.0,0.4501347,0.37723362,-0.036746573,0.40435395,0.40920234,0.07055831,0.0028122903,0.00042879066,0.0031957442,0.0035983222,-0.0027771294,-0.005445751,0.0009939618,1.9282521,-0.04112841,0.22115192,-3.0669363,0.0,0.10034628,-0.0031957442,0.0052164793,0.003700563,0.025958378,0.01849463,inf,inf,inf,inf,1,1,1,1,2,3,2,5,0,0,0
32315739069,0,0.0,0.0,0.450284,0.37738663,-0.0365512,0.40435395,0.40920234,0.07055831,0.0006660585,0.0027339887,-0.0006556396,-0.00024711218,-0.0027771294,-0.005445751,0.0009939618,0.8680978,1.2984066,-0.29619846,-3.066597,0.0,0.100150906,0.0006556396,0.0052681854,0.0037374573,0.026052272,0.01856874,inf,inf,inf,inf,1,1,1,1,2,3,2,5,0,0,0
32315843070,0,0.0,0.0,0.450459,0.37746,-0.0365295,0.40435395,0.40920234,0.07055831,0.0055842716,0.006175708,7.5618636e-06,0.00033418415,-0.0027771294,-0.005445751,0.0009939618,1.144539,0.3116188,0.31579873,-3.066619,0.0,0.1001292,-7.5618636e-06,0.005336006,0.0037860977,0.026233293,0.018697416,inf,inf,inf,inf,1,1,1,1,2,3,2,5,0,0,0
32315939094,0,0.0,0.0,0.4508007,0.37771636,-0.036692332,0.40435395,0.40920234,0.07055831,0.001924338,0.0031706896,0.0035727713,0.0037684464,-0.0027771294,-0.005445751,0.0009939618,1.8142447,0.15893108,0.3331497,-3.066653,0.0,0.10029204,-0.0035727713,0.0052655223,0.0037357379,0.026078619,0.018581636,inf,inf,inf,inf,1,1,1,1,2,3,2,5,0,0,0
32316042270,0,0.0,0.0,0.4509133,0.37775347,-0.036839828,0.40435395,0.40920234,0.07055831,0.0057926243,-0.0017269237,0.0030408346,0.0030814959,-0.0027771294,-0.005445751,0.0009939618,3.2969031,0.66967374,0.21275747,-3.066578,0.0,0.10043953,-0.0030408346,0.0053362558,0.0037861017,0.026258959,0.018709121,inf,inf,inf,inf,1,1,1,1,2,3,2,5,0,0,0
32316146294,0,0.0,0.0,0.4509444,0.37778622,-0.037044026,0.40435395,0.40920234,0.07055831,0.0017955214,0.0027677617,-0.0035625263,-0.003611608,-0.0027771294,-0.005445751,0.0009939618,0.39075005,0.5923163,-1.617057,-3.0664008,0.0,0.10064373,0.0035625263,0.005408074,0.0038374495,0.02643783,0.018845115,inf,inf,inf,inf,1,1,1,1,2,3,2,5,0,0,0
32316242276,0,0.0,0.0,0.45084965,0.3776943,-0.03737279,0.40435395,0.40920234,0.07055831,0.0019151801,-0.004719092,0.0018908865,0.0018216544,-0.0027771294,-0.005445751,0.0009939618,2.9241397,0.3868593,0.35577607,-3.0662704,0.0,0.100972496,-0.0018908865,0.0053310245,0.003782548,0.026252586,0.018708503,inf,inf,inf,inf,1,1,1,1,2,3,2,5,0,0,0
32316346270,0,0.0,0.0,0.45079207,0.3774965,-0.03797869,0.40435395,0.40920234,0.07055831,0.0046796347,0.0008057168,-0.009801422,-0.009853806,-0.0027771294,-0.005445751,0.0009939618,0.8182806,0.9974042,-2.3507385,-3.0664155,0.0,0.1015784,0.009801422,0.0054173656,0.0038442542,0.026489856,0.01887376,inf,inf,inf,inf,1,1,1,1,2,3,2,5,0,0,0
32316753483,0,0.0,0.0,0.4506468,0.37653193,-0.03994228,0.40435395,0.40920234,0.07055831,-0.01074065,0.0028273503,-0.0077594277,-0.0073538977,-0.0027771294,-0.005445751,0.0009939618,-1.4718174,1.2056326,0.3512657,-3.0666647,0.0,0.103541985,0.0077594277,0.005160128,0.0036602132,0.025788732,0.018380262,inf,inf,inf,inf,1,1,1,1,2,3,2,5,0,0,0
32317571877,0,0.0,0.0,0.45090216,0.37718722,-0.040650517,0.40435395,0.40920234,0.07055831,-0.0009154778,-0.012279835,-0.00020084696,0.0010847063,-0.0027771294,-0.005445751,0.0009939618,0.768341,-1.648982,-1.7698395,-3.0673058,0.0,0.10425022,0.00020084696,0.00509771,0.0036147751,0.025635596,0.018253742,inf,inf,inf,inf,1,1,1,1,2,3,2,5,0,0,0
32317675902,0,0.0,0.0,0.45104283,0.37710762,-0.041068096,0.40435395,0.40920234,0.07055831,0.0056861048,-0.004676637,-0.0116044,-0.0102719795,-0.0027771294,-0.005445751,0.0009939618,-1.1486435,0.36563054,1.2970846,-3.0663643,0.0,0.1046678,0.0116044,0.0051932735,0.0036833992,0.025901647,0.018463586,inf,inf,inf,inf,1,1,1,1,2,3,2,5,0,0,0
32317771890,0,0.0,0.0,0.45131832,0.3772506,-0.041595653,0.40435395,0.40920234,0.07055831,0.00658287,-0.008757252,-0.009705264,-0.008291766,-0.0027771294,-0.005445751,0.0009939618,1.1953703,-3.4563177,0.6303935,-3.0665984,0.0,0.10519536,0.009705264,0.005515297,0.0039135795,0.026728803,0.01905466,inf,inf,inf,inf,1,1,1,1,2,3,2,5,0,0,0
32317875070,0,0.0,0.0,0.45157456,0.3769967,-0.04193548,0.40435395,0.40920234,0.07055831,0.0022779976,0.0007331595,-0.0044207503,-0.0029540395,-0.0027771294,-0.005445751,0.0009939618,-0.958712,6.405277,-1.1576751,-3.0674703,0.0,0.10553519,0.0044207503,0.005202102,0.003689827,0.025921943,0.01845771,inf,inf,inf,inf,1,1,1,1,2,3,2,5,0,0,0
32317979079,0,0.0,0.0,0.45210385,0.376339,-0.04228753,0.40435395,0.40920234,0.07055831,0.0038221714,-0.021221785,-0.005131112,-0.0035704111,-0.0027771294,-0.005445751,0.0009939618,0.31525,-3.176826,0.90948427,-3.0672615,0.0,0.105887234,0.005131112,0.005265966,0.0037354503,0.026040638,0.018566906,inf,inf,inf,inf,1,1,1,1,2,3,2,5,0,0,0
32318083083,0,0.0,0.0,0.4526718,0.37621784,-0.042560562,0.40435395,0.40920234,0.07055831,0.003766301,-0.002022497,-0.011989859,-0.010321151,-0.0027771294,-0.005445751,0.0009939618,-3.050449,-1.6765894,-2.4228804,-3.067996,0.0,0.10616027,0.011989859,0.0053642504,0.0038059205,0.026353993,0.018778238,inf,inf,inf,inf,1,1,1,1,2,3,2,5,0,0,0
32318187085,0,0.0,0.0,0.45333615,0.3757387,-0.04300229,0.40435395,0.40920234,0.07055831,0.017320316,-0.01579799,-0.00077776046,0.0009378572,-0.0027771294,-0.005445751,0.0009939618,3.2322922,-4.320174,-0.09983958,-3.0682588,0.0,0.106602,0.00077776046,0.005434912,0.0038562603,0.026514776,0.018892398,inf,inf,inf,inf,1,1,1,1,2,3,2,5,0,0,0
32318283075,0,0.0,0.0,0.45318556,0.37559777,-0.043041114,0.40435395,0.40920234,0.07055831,-0.005682372,-0.003829382,-0.011082015,-0.009397257,-0.0027771294,-0.005445751,0.0009939618,-2.427242,1.7760779,-2.9759824,-3.0671103,0.0,0.106640816,0.011082015,0.0053437995,0.0037910156,0.02626428,0.018710941,inf,inf,inf,inf,1,1,1,1,2,3,2,5,0,0,0
32318386270,0,0.0,0.0,0.45173112,0.37633777,-0.04254986,0.40435395,0.40920234,0.07055831,0.0053989533,-0.01701685,-0.008215132,-0.00650462,-0.0027771294,-0.005445751,0.0009939618,1.8837606,-2.0992765,-3.8507857,-3.0682108,0.0,0.10614957,0.008215132,0.005062452,0.003590125,0.025551176,0.01820414,inf,inf,inf,inf,1,1,1,1,2,3,2,5,0,0,0
32318490287,0,0.0,0.0,0.45048735,0.37666118,-0.042260382,0.40435395,0.40920234,0.07055831,0.0030797746,-0.0077297892,0.0019571066,0.0038133007,-0.0027771294,-0.005445751,0.0009939618,0.649945,-0.8155129,-0.64606017,-3.067189,0.0,0.105860084,-0.0019571066,0.005489569,0.003895325,0.02661268,0.01898367,inf,inf,inf,inf,1,1,1,1,2,3,2,5,0,0,0
32318594270,0,0.0,0.0,0.44889656,0.37761432,-0.04171468,0.40435395,0.40920234,0.07055831,0.0005640306,-0.01337537,0.005578814,0.007480881,-0.0027771294,-0.005445751,0.0009939618,2.1053798,-4.3113575,1.1528332,-3.0664096,0.0,0.10531439,-0.005578814,0.0051747146,0.003670764,0.025822727,0.018398935,inf,inf,inf,inf,1,1,1,1,2,3,2,5,0,0,0
32318698292,0,0.0,0.0,0.44804057,0.37773657,-0.041325837,0.40435395,0.40920234,0.07055831,0.0005576035,-0.012330303,0.00039757194,0.0022247478,-0.0027771294,-0.005445751,0.0009939618,1.042113,-3.7639165,-0.70227104,-3.0679216,0.0,0.10492554,-0.00039757194,0.005258909,0.003730896,0.026052723,0.018565804,inf,inf,inf,inf,1,1,1,1,2,3,2,5,0,0,0
32318801470,0,0.0,0.0,0.44720414,0.37848264,-0.040705923,0.40435395,0.40920234,0.07055831,-0.003371636,0.013786715,-0.006025402,-0.004367834,-0.0027771294,-0.005445751,0.0009939618,-2.4296052,-5.0320196,-2.3865447,-3.0658681,0.0,0.104305625,0.006025402,0.0053176302,0.0037726949,0.026199898,0.018667666,inf,inf,inf,inf,1,1,1,1,2,3,2,5,0,0,0
32318905470,0,0.0,0.0,0.44871277,0.37976906,-0.041688234,0.40435395,0.40920234,0.07055831,-0.0005685067,-0.00162746,-0.011101832,-0.009690999,-0.0027771294,-0.005445751,0.0009939618,-2.470942,-4.197101,-1.1110607,-3.067216,0.0,0.10528794,0.011101832,0.0053948355,0.0038278673,0.026408277,0.018822197,inf,inf,inf,inf,1,1,1,1,2,3,2,5,0,0,0
32319001484,0,0.0,0.0,0.45003942,0.38071552,-0.042574465,0.40435395,0.40920234,0.07055831,0.007466497,0.013714142,-0.011579058,-0.010700119,-0.0027771294,-0.005445751,0.0009939618,-2.7682984,0.71866345,-0.33175588,-3.0680723,0.0,0.10617417,0.011579058,0.005327035,0.0037794847,0.026240703,0.018694872,inf,inf,inf,inf,1,1,1,1,2,3,2,5,0,0,0
32319105470,0,0.0,0.0,0.4514036,0.38175258,-0.043734647,0.40435395,0.40920234,0.07055831,0.009157526,-0.0042006946,0.004461179,0.0046707657,-0.0027771294,-0.005445751,0.0009939618,2.3598032,-2.8777509,3.8999658,-3.06931,0.0,0.10733435,-0.004461179,0.005435884,0.0038567993,0.02653824,0.018919883,inf,inf,inf,inf,1,1,1,1,2,3,2,5,0,0,0
32319204693,0,0.0,0.0,0.45236188,0.38249537,-0.04506933,0.40435395,0.40920234,0.07055831,0.012128625,0.014640311,-0.0010576944,-0.0012360684,-0.0027771294,-0.005445751,0.0009939618,2.2261136,2.6993656,-0.5535684,-3.0700274,0.0,0.108669035,0.0010576944,0.005367359,0.00380788,0.026374705,0.018787323,inf,inf,inf,inf,1,1,1,1,2,3,2,5,0,0,0
32319308670,0,0.0,0.0,0.45224538,0.3826601,-0.04601112,0.40435395,0.40920234,0.07055831,0.0021857915,-0.0138394125,-0.004952331,-0.0052827327,-0.0027771294,-0.005445751,0.0009939618,-0.28529915,-5.2608695,-0.9637418,-3.072315,0.0,0.109610826,0.004952331,0.005089303,0.0036094256,0.025645116,0.01826088,inf,inf,inf,inf,1,1,1,1,2,3,2,5,0,0,0
32319412670,0,0.0,0.0,0.45153305,0.38119882,-0.046700504,0.40435395,0.40920234,0.07055831,0.007289991,-0.016470984,0.0012127134,0.001014296,-0.0027771294,-0.005445751,0.0009939618,2.3131545,-0.7389612,-0.17742501,-3.0711272,0.0,0.11030021,-0.0012127134,0.0051630167,0.0036608954,0.02587895,0.018417612,inf,inf,inf,inf,1,1,1,1,2,3,2,5,0,0,0
32319508670,0,0.0,0.0,0.45035547,0.37991804,-0.047054745,0.40435395,0.40920234,0.07055831,-0.0053545022,0.004983547,0.003600161,0.0037238905,-0.0027771294,-0.005445751,0.0009939618,-0.6759179,1.4975119,0.88209116,-3.0708723,0.0,0.11065445,-0.003600161,0.005392944,0.0038240927,0.026366152,0.018764675,inf,inf,inf,inf,1,1,1,1,2,3,2,5,0,0,0
32319612680,0,0.0,0.0,0.44903928,0.37852037,-0.046847478,0.40435395,0.40920234,0.07055831,-0.01311458,-0.01075442,-0.003083332,-0.0025743723,-0.0027771294,-0.005445751,0.0009939618,-2.2900133,-2.6509614,-1.0439891,-3.0717406,0.0,0.11044718,0.003083332,0.005385733,0.0038188805,0.026335264,0.018739058,inf,inf,inf,inf,1,1,1,1,2,3,2,5,0,0,0
32319715869,0,0.0,0.0,0.44893414,0.37719956,-0.04722007,0.40435395,0.40920234,0.07055831,0.0071864333,-0.0017432725,-0.014306355,-0.013488412,-0.0027771294,-0.005445751,0.0009939618,-0.5843404,3.5145042,-2.0587497,-3.0706704,0.0,0.11081977,0.014306355,0.00541958,0.0038434002,0.026465373,0.01884739,inf,inf,inf,inf,1,1,1,1,2,3,2,5,0,0,0
32319811870,0,0.0,0.0,0.4495108,0.37619594,-0.04797472,0.40435395,0.40920234,0.07055831,0.0019747927,-0.01395325,-0.0076672956,-0.006827203,-0.0027771294,-0.005445751,0.0009939618,-0.7975416,-0.12034119,0.14177983,-3.071241,0.0,0.11157443,0.0076672956,0.005335583,0.0037838528,0.026290134,0.018726135,inf,inf,inf,inf,1,1,1,1,2,3,2,5,0,0,0
32319915881,0,0.0,0.0,0.44984517,0.3745354,-0.0479278,0.40435395,0.40920234,0.07055831,-0.00963056,-0.020794865,0.003955508,0.0045418465,-0.0027771294,-0.005445751,0.0009939618,-1.186029,2.2602196,0.13768761,-3.071349,0.0,0.1115275,-0.003955508,0.00539663,0.0038277018,0.026457656,0.018841032,inf,inf,inf,inf,1,1,1,1,2,3,2,5,0,0,0
32320019917,0,0.0,0.0,0.44995064,0.3735614,-0.04830511,0.40435395,0.40920234,0.07055831,0.0070340736,-0.00293901,-0.0054263165,-0.0049527492,-0.0027771294,-0.005445751,0.0009939618,0.35324964,3.3261144,1.9858541,-3.0691543,0.0,0.111904815,0.0054263165,0.0051124734,0.0036254148,0.025705116,0.018306801,inf,inf,inf,inf,1,1,1,1,2,3,2,5,0,0,0
32320123899,0,0.0,0.0,0.45124546,0.37373525,-0.049384855,0.40435395,0.40920234,0.07055831,0.010408422,0.005563517,-0.0055239922,-0.005096583,-0.0027771294,-0.005445751,0.0009939618,1.380268,1.8391753,0.23929855,-3.0697038,0.0,0.11298456,0.0055239922,0.0051854313,0.0036779486,0.02587598,0.018430255,inf,inf,inf,inf,1,1,1,1,2,3,2,5,0,0,0
32320227073,0,0.0,0.0,0.45234972,0.37540582,-0.050029166,0.40435395,0.40920234,0.07055831,0.00920259,0.01911672,0.0022527461,0.0023963342,-0.0027771294,-0.005445751,0.0009939618,2.2475398,3.7693558,0.3072781,-3.0701344,0.0,0.11362887,-0.0022527461,0.005250578,0.0037241792,0.026049485,0.01854192,inf,inf,inf,inf,1,1,1,1,2,3,2,5,0,0,0
32320323070,0,0.0,0.0,0.45317113,0.3781404,-0.050299425,0.40435395,0.40920234,0.07055831,0.016077302,0.003067946,0.00079176284,0.0006707092,-0.0027771294,-0.005445751,0.0009939618,-0.6926579,-1.0795883,-0.69319344,-3.0719166,0.0,0.11389913,-0.00079176284,0.0051930016,0.0036827882,0.025885914,0.018438064,inf,inf,inf,inf,1,1,1,1,2,3,2,5,0,0,0
32320427069,0,0.0,0.0,0.45403278,0.3803245,-0.05066108,0.40435395,0.40920234,0.07055831,0.014470813,0.0069795516,0.0030386942,0.0028752754,-0.0027771294,-0.005445751,0.0009939618,-1.009332,2.9233158,1.0268579,-3.0738068,0.0,0.114260785,-0.0030386942,0.0052606547,0.003731455,0.026045432,0.01856313,inf,inf,inf,inf,1,1,1,1,2,3,2,5,0,0,0
32320531070,0,0.0,0.0,0.45550475,0.3818534,-0.05135648,0.40435395,0.40920234,0.07055831,0.027405823,0.012855495,-0.010650345,-0.010783757,-0.0027771294,-0.005445751,0.0009939618,2.370242,-1.1666303,-0.9558782,-3.0743651,0.0,0.114956185,0.010650345,0.0053186147,0.0037731386,0.026188387,0.018661128,inf,inf,inf,inf,1,1,1,1,2,3,2,5,0,0,0
32320634277,0,0.0,0.0,0.4585284,0.38424805,-0.05335916,0.40435395,0.40920234,0.07055831,0.043750897,0.029253302,-0.019351441,-0.019613488,-0.0027771294,-0.005445751,0.0009939618,3.7858648,1.967819,-0.5211834,-3.0756795,0.0,0.116958864,0.019351441,0.0053752935,0.0038135513,0.02633418,0.018759454,inf,inf,inf,inf,1,1,1,1,2,3,2,5,0,0,0
32320730270,0,0.0,0.0,0.46262452,0.38803807,-0.056436393,0.40435395,0.40920234,0.07055831,0.052825466,0.04509858,-0.02772757,-0.028442863,-0.0027771294,-0.005445751,0.0009939618,3.2725062,2.4712415,0.5990838,-3.07783,0.0,0.120036095,0.02772757,0.005286294,0.0037495843,0.026136363,0.018611005,inf,inf,inf,inf,1,1,1,1,2,3,2,5,0,0,0
32320834270,0,0.0,0.0,0.47036403,0.3944102,-0.06066403,0.40435395,0.40920234,0.07055831,0.07108701,0.05752244,-0.026433151,-0.027867405,-0.0027771294,-0.005445751,0.0009939618,1.4106985,-2.805499,0.1508221,-3.0802658,0.0,0.12426373,0.026433151,0.005347253,0.0037927134,0.026303362,0.018720722,inf,inf,inf,inf,1,1,1,1,2,3,2,5,0,0,0
32320938306,0,0.0,0.0,0.48176324,0.40402374,-0.064851254,0.40435395,0.40920234,0.07055831,0.09675367,0.08611994,-0.043540046,-0.045634054,-0.0027771294,-0.005445751,0.0009939618,1.5170513,2.1081078,-0.17365798,-3.0845816,0.0,0.12845096,0.043540046,0.0054439036,0.0038611966,0.026590707,0.018928595,inf,inf,inf,inf,1,1,1,1,2,3,2,5,0,0,0
32321037476,0,0.0,0.0,0.49649554,0.41591308,-0.071755536,0.40435395,0.40920234,0.07055831,0.10468599,0.09726138,-0.07626777,-0.07858057,-0.0027771294,-0.005445751,0.0009939618,-5.2636795,-4.3111935,-0.3099869,-3.0875518,0.0,0.13535523,0.07626777,0.005021221,0.0035599002,0.025486045,0.01815077,inf,inf,inf,inf,1,1,1,1,2,3,2,5,0,0,0
32321141484,0,0.0,0.0,0.51418906,0.43251872,-0.08221084,0.40435395,0.40920234,0.07055831,0.14240755,0.13527475,-0.11745201,-0.12023298,-0.0027771294,-0.005445751,0.0009939618,1.2039096,0.0034821208,-3.1877515,-3.0895748,0.0,0.14581054,0.11745201,0.0051149772,0.0036269117,0.025749275,0.018317254,inf,inf,inf,inf,1,1,1,1,2,3,2,5,0,0,0
32321245470,0,0.0,0.0,0.5321369,0.45156366,-0.096589744,0.40435395,0.40920234,0.07055831,0.13867663,0.15726817,-0.1270025,-0.13104574,-0.0027771294,-0.005445751,0.0009939618,3.9931138,-2.912468,2.1959887,-3.0883584,0.0,0.16018945,0.1270025,0.005254837,0.0037248272,0.02625631,0.018629886,inf,inf,inf,inf,1,1,1,1,2,3,2,5,0,0,0
32321341476,0,0.0,0.0,0.54768634,0.4719482,-0.11346302,0.40435395,0.40920234,0.07055831,0.1486019,0.18875237,-0.16174833,-0.1674156,-0.0027771294,-0.005445751,0.0009939618,1.5145756,-2.3756003,-0.9631599,-3.0865047,0.0,0.17706272,0.16174833,0.0051615573,0.0036563785,0.025938513,0.018396238,inf,inf,inf,inf,1,1,1,1,2,3,2,5,0,0,0
32321445470,0,0.0,0.0,0.56208694,0.4962117,-0.13326797,0.40435395,0.40920234,0.07055831,0.13510945,0.22319843,-0.16269761,-0.17003424,-0.0027771294,-0.005445751,0.0009939618,-1.4124414,0.114646964,-0.21245429,-3.0831482,0.0,0.19686767,0.16269761,0.0052250433,0.0037004724,0.026036635,0.018476399,inf,inf,inf,inf,1,1,1,1,2,3,2,5,0,0,0
32321548682,0,0.0,0.0,0.5743487,0.5212671,-0.1521349,0.40435395,0.40920234,0.07055831,0.1257004,0.22625037,-0.14545667,-0.15353271,-0.0027771294,-0.005445751,0.0009939618,-2.1332605,-0.3513019,0.29712328,-3.0802104,0.0,0.2157346,0.14545667,0.005287523,0.0037447761,0.026169758,0.018593132,inf,inf,inf,inf,1,1,1,1,2,3,2,5,0,0,0
32321652720,0,0.0,0.0,0.58326554,0.54814935,-0.16783361,0.40435395,0.40920234,0.07055831,0.110628575,0.24565588,-0.12193197,-0.12916863,-0.0027771294,-0.005445751,0.0009939618,2.8562088,-3.520652,1.4109195,-3.0775297,0.0,0.23143332,0.12193197,0.0053646066,0.0038009577,0.026353441,0.018751444,inf,inf,inf,inf,1,1,1,1,2,3,2,5,0,0,0
32321756670,0,0.0,0.0,0.5886454,0.5760241,-0.17789695,0.40435395,0.40920234,0.07055831,0.087572485,0.27423748,-0.08191562,-0.08650921,-0.0027771294,-0.005445751,0.0009939618,1.6276854,2.1716218,0.45683688,-3.0750313,0.0,0.24149665,0.08191562,0.0054066735,0.0038338404,0.026391054,0.018823462,inf,inf,inf,inf,1,1,1,1,2,3,2,5,0,0,0
32321852680,0,0.0,0.0,0.59151363,0.60241586,-0.18132108,0.40435395,0.40920234,0.07055831,0.06865814,0.26311448,-0.042023018,-0.04290496,-0.0027771294,-0.005445751,0.0009939618,-0.050230056,-2.8964431,-0.93679315,-3.0754,0.0,0.24492079,0.042023018,0.0053450856,0.0037925649,0.026246672,0.018742107,inf,inf,inf,inf,1,1,1,1,2,3,2,5,0,0,0
32321955897,0,0.0,0.0,0.59283763,0.62859845,-0.17796154,0.40435395,0.40920234,0.07055831,0.037993547,0.26331705,0.007265384,0.011087836,-0.0027771294,-0.005445751,0.0009939618,-3.7823353,1.945634,0.6654172,-3.0768142,0.0,0.24156125,-0.007265384,0.0054358165,0.0038601896,0.026452739,0.018915994,inf,inf,inf,inf,1,1,1,1,2,3,2,5,0,0,0
32322059870,0,0.0,0.0,0.5927107,0.65432715,-0.16916546,0.40435395,0.40920234,0.07055831,0.035246354,0.25261068,0.037156295,0.045775738,-0.0027771294,-0.005445751,0.0009939618,0.87486213,1.9365238,-0.52599525,-3.0775065,0.0,0.23276517,-0.037156295,0.005120631,0.00363631,0.025586057,0.018304914,inf,inf,inf,inf,1,1,1,1,2,3,2,5,0,0,0
32322163884,0,0.0,0.0,0.59076166,0.67831653,-0.15847789,0.40435395,0.40920234,0.07055831,0.019648464,0.22516972,0.03517787,0.047640484,-0.0027771294,-0.005445751,0.0009939618,-1.2359836,0.13634592,1.0072362,-3.0772407,0.0,0.2220776,-0.03517787,0.0051728785,0.003675151,0.0257176,0.0184004,inf,inf,inf,inf,1,1,1,1,2,3,2,5,0,0,0
32322267935,0,0.0,0.0,0.5879373,0.70005643,-0.14953677,0.40435395,0.40920234,0.07055831,0.015280911,0.20796609,0.018151896,0.032248903,-0.0027771294,-0.005445751,0.0009939618,-1.1735091,-0.5696053,1.7565222,-3.0757606,0.0,0.21313648,-0.018151896,0.005204721,0.0036979846,0.025803661,0.018433971,inf,inf,inf,inf,1,1,1,1,2,3,2,5,0,0,0
32322363875,0,0.0,0.0,0.5862255,0.71745795,-0.14559561,0.40435395,0.40920234,0.07055831,0.0137551,0.21133302,0.0048056957,0.017833129,-0.0027771294,-0.005445751,0.0009939618,-0.80508727,2.012195,0.81588715,-3.074007,0.0,0.20919532,-0.0048056957,0.0051396377,0.003649941,0.025744313,0.018357743,inf,inf,inf,inf,1,1,1,1,2,3,2,5,0,0,0
32322467081,0,0.0,0.0,0.5856807,0.73414236,-0.146632,0.40435395,0.40920234,0.07055831,0.023925243,0.19448589,-0.042914875,-0.033423908,-0.0027771294,-0.005445751,0.0009939618,-0.16047886,0.8083504,0.06280102,-3.0708113,0.0,0.2102317,0.042914875,0.005240309,0.003719455,0.026061082,0.018544266,inf,inf,inf,inf,1,1,1,1,2,3,2,5,0,0,0
32322571071,0,0.0,0.0,0.58708686,0.7484132,-0.15780231,0.40435395,0.40920234,0.07055831,0.027555719,0.1475907,-0.12494438,-0.12049911,-0.0027771294,-0.005445751,0.0009939618,-2.540207,-5.5105715,0.062685154,-3.0701878,0.0,0.22140202,0.12494438,0.0053088614,0.0037656284,0.026226731,0.018644525,inf,inf,inf,inf,1,1,1,1,2,3,2,5,0,0,0
32322675078,0,0.0,0.0,0.5905995,0.7576498,-0.18034604,0.40435395,0.40920234,0.07055831,0.02752539,0.11597578,-0.19941404,-0.201228,-0.0027771294,-0.005445751,0.0009939618,-0.5727166,-2.1358542,-0.30096993,-3.069218,0.0,0.24394575,0.19941404,0.0053814766,0.0038147285,0.02646252,0.018777717,inf,inf,inf,inf,1,1,1,1,2,3,2,5,0,0,0
32322779076,0,0.0,0.0,0.59520054,0.7641455,-0.21219511,0.40435395,0.40920234,0.07055831,0.030455941,0.10430344,-0.25420374,-0.26289636,-0.0027771294,-0.005445751,0.0009939618,2.2924583,1.4971856,1.8431107,-3.0693269,0.0,0.2757948,0.25420374,0.0054463525,0.0038572177,0.02668262,0.01888097,inf,inf,inf,inf,1,1,1,1,2,3,2,5,0,0,0
32322875071,0,0.0,0.0,0.6004399,0.7669936,-0.24880098,0.40435395,0.40920234,0.07055831,0.028085154,0.05334989,-0.31072295,-0.32533923,-0.0027771294,-0.005445751,0.0009939618,2.1511354,2.2038171,-0.03805004,-3.071198,0.0,0.3124007,0.31072295,0.005394941,0.0038176095,0.026615886,0.018820811,inf,inf,inf,inf,1,1,1,1,2,3,2,5,0,0,0
32322978306,0,0.0,0.0,0.60629666,0.7677603,-0.29340833,0.40435395,0.40920234,0.07055831,0.030250655,0.025494011,-0.359874,-0.37912035,-0.0027771294,-0.005445751,0.0009939618,2.0478985,1.2882037,-0.10530742,-3.0752428,0.0,0.35700804,0.359874,0.005477897,0.0038746856,0.02679213,0.01895406,inf,inf,inf,inf,1,1,1,1,2,3,2,5,0,0,0
32323082270,0,0.0,0.0,0.61098784,0.7656452,-0.33946615,0.40435395,0.40920234,0.07055831,0.013787762,-0.012366262,-0.36928272,-0.3904534,-0.0027771294,-0.005445751,0.0009939618,0.8915412,-1.7688612,0.23377404,-3.0821712,0.0,0.40306586,0.36928272,0.0051374547,0.003633715,0.0258225,0.018286314,inf,inf,inf,inf,1,1,1,1,2,3,2,5,0,0,0
32323186276,0,0.0,0.0,0.6139547,0.75981057,-0.38367248,0.40435395,0.40920234,0.07055831,-0.00017799209,-0.047798686,-0.36511898,-0.38529116,-0.0027771294,-0.005445751,0.0009939618,-2.234932,-2.7620227,0.3770611,-3.090204,0.0,0.44727218,0.36511898,0.0052032103,0.0036813747,0.025971493,0.018424403,inf,inf,inf,inf,1,1,1,1,2,3,2,5,0,0,0
32323290270,0,0.0,0.0,0.6144757,0.75091434,-0.42219585,0.40435395,0.40920234,0.07055831,-0.011294279,-0.049030386,-0.34582612,-0.36227813,-0.0027771294,-0.005445751,0.0009939618,-1.402281,2.5798533,-1.746432,-3.0954812,0.0,0.48579556,0.34582612,0.0053111687,0.0037603949,0.02627257,0.01867274,inf,inf,inf,inf,1,1,1,1,2,3,2,5,0,0,0
32323386270,0,0.0,0.0,0.61281145,0.7406867,-0.45164546,0.40435395,0.40920234,0.07055831,-0.023924734,-0.068490624,-0.30209678,-0.3131461,-0.0027771294,-0.005445751,0.0009939618,-0.33779183,-0.54703945,-1.0426421,-3.0968719,0.0,0.5152452,0.30209678,0.0052272836,0.0037034801,0.025957953,0.018485744,inf,inf,inf,inf,1,1,1,1,2,3,2,5,0,0,0
32323489495,0,0.0,0.0,0.6088303,0.7282271,-0.47611,0.40435395,0.40920234,0.07055831,-0.032406732,-0.09882812,-0.27149755,-0.27525628,-0.0027771294,-0.005445751,0.0009939618,0.23507683,-2.4323578,-0.8924322,-3.0981438,0.0,0.5397097,0.27149755,0.0052989586,0.0037577439,0.026098695,0.018622573,inf,inf,inf,inf,1,1,1,1,2,3,2,5,0,0,0
32323593470,0,0.0,0.0,0.60331863,0.71459556,-0.4941476,0.40435395,0.40920234,0.07055831,-0.04817384,-0.116111614,-0.233715,-0.22988713,-0.0027771294,-0.005445751,0.0009939618,-1.3919718,-1.7655518,-1.2513363,-3.0960586,0.0,0.5577473,0.233715,0.0053347284,0.0037864377,0.026123952,0.01867408,inf,inf,inf,inf,1,1,1,1,2,3,2,5,0,0,0
32323689470,0,0.0,0.0,0.59669167,0.7006615,-0.5059427,0.40435395,0.40920234,0.07055831,-0.0647257,-0.13794458,-0.19694479,-0.18706296,-0.0027771294,-0.005445751,0.0009939618,1.8334811,1.8151023,-0.5042435,-3.0932457,0.0,0.5695424,0.19694479,0.005274222,0.0037452395,0.026014281,0.018595941,inf,inf,inf,inf,1,1,1,1,2,3,2,5,0,0,0
32323793470,0,0.0,0.0,0.58789533,0.6837129,-0.51504356,0.40435395,0.40920234,0.07055831,-0.07759762,-0.16897093,-0.16363086,-0.14888424,-0.0027771294,-0.005445751,0.0009939618,1.2438512,0.9269312,-0.91121995,-3.0930555,0.0,0.57864326,0.16363086,0.0053480626,0.0037993668,0.026190616,0.01872721,inf,inf,inf,inf,1,1,1,1,2,3,2,5,0,0,0
32323892676,0,0.0,0.0,0.578686,0.66626054,-0.5215156,0.40435395,0.40920234,0.07055831,-0.08675248,-0.20002428,-0.12162529,-0.104153246,-0.0027771294,-0.005445751,0.0009939618,0.42364138,-5.277453,2.2172444,-3.091735,0.0,0.5851153,0.12162529,0.0052997605,0.0037652135,0.026113177,0.018668788,inf,inf,inf,inf,1,1,1,1,2,3,2,5,0,0,0
32323996670,0,0.0,0.0,0.5682267,0.64505243,-0.525959,0.40435395,0.40920234,0.07055831,-0.10033069,-0.24591322,-0.09108611,-0.07250935,-0.0027771294,-0.005445751,0.0009939618,-2.202176,-5.815738,1.5541481,-3.0915039,0.0,0.5895587,0.09108611,0.0054688463,0.0038859202,0.026719397,0.019059194,inf,inf,inf,inf,1,1,1,1,2,3,2,5,0,0,0
32324100670,0,0.0,0.0,0.5579444,0.62106025,-0.5288569,0.40435395,0.40920234,0.07055831,-0.1053774,-0.2450817,-0.067423195,-0.04908176,-0.0027771294,-0.005445751,0.0009939618,-4.230735,-1.3929933,-0.19989797,-3.0941613,0.0,0.5924566,0.067423195,0.005149005,0.003655335,0.025810044,0.01841136,inf,inf,inf,inf,1,1,1,1,2,3,2,5,0,0,0
32324204687,0,0.0,0.0,0.54802084,0.59432024,-0.5301053,0.40435395,0.40920234,0.07055831,-0.10741893,-0.26490843,-0.025957864,-0.008753353,-0.0027771294,-0.005445751,0.0009939618,-3.4249783,-0.12578483,1.6446965,-3.0999722,0.0,0.593705,0.025957864,0.0052005965,0.0036917948,0.025859198,0.018451203,inf,inf,inf,inf,1,1,1,1,2,3,2,5,0,0,0
32324307869,0,0.0,0.0,0.5375733,0.56456053,-0.5272111,0.40435395,0.40920234,0.07055831,-0.10794963,-0.29212874,0.024956083,0.040561717,-0.0027771294,-0.005445751,0.0009939618,1.3016857,4.0225763,-0.47934735,-3.1036448,0.0,0.59081084,-0.024956083,0.0052498975,0.0037270803,0.025946876,0.018522704,inf,inf,inf,inf,1,1,1,1,2,3,2,5,0,0,0
32324403876,0,0.0,0.0,0.52746564,0.5352386,-0.52146816,0.40435395,0.40920234,0.07055831,-0.11784338,-0.29811096,0.05626823,0.07064115,-0.0027771294,-0.005445751,0.0009939618,-2.2612708,0.15130956,0.4771919,-3.1072495,0.0,0.58506787,-0.05626823,0.0051865987,0.0036825112,0.025786491,0.018428745,inf,inf,inf,inf,1,1,1,1,2,3,2,5,0,0,0
32324507870,0,0.0,0.0,0.516464,0.50094527,-0.5127512,0.40435395,0.40920234,0.07055831,-0.101942,-0.32257733,0.07340124,0.08681927,-0.0027771294,-0.005445751,0.0009939618,2.4089482,4.5698566,-2.4141445,-3.1115267,0.0,0.5763509,-0.07340124,0.005238624,0.0037214432,0.02591705,0.018543229,inf,inf,inf,inf,1,1,1,1,2,3,2,5,0,0,0
32324611870,0,0.0,0.0,0.5064687,0.46636093,-0.5016437,0.40435395,0.40920234,0.07055831,-0.11163834,-0.341455,0.11435532,0.12659456,-0.0027771294,-0.005445751,0.0009939618,3.055899,-1.1769378,0.5269357,-3.112836,0.0,0.5652434,-0.11435532,0.0052846726,0.0037553515,0.026014708,0.018610906,inf,inf,inf,inf,1,1,1,1,2,3,2,5,0,0,0
32324715894,0,0.0,0.0,0.497531,0.43176463,-0.48777354,0.40435395,0.40920234,0.07055831,-0.118846215,-0.331236,0.15060449,0.16109543,-0.0027771294,-0.005445751,0.0009939618,-5.7293143,-0.8230617,1.3948797,-3.1073396,0.0,0.55137324,-0.15060449,0.0053769588,0.0038215546,0.026338756,0.018833943,inf,inf,inf,inf,1,1,1,1,2,3,2,5,0,0,0
32324819070,0,0.0,0.0,0.48919553,0.39783168,-0.47070494,0.40435395,0.40920234,0.07055831,-0.082766235,-0.33041036,0.18862444,0.1971651,-0.0027771294,-0.005445751,0.0009939618,-0.08537016,1.1614368,0.78417397,-3.1020346,0.0,0.5343046,-0.18862444,0.0051013357,0.0036234339,0.025622796,0.01830592,inf,inf,inf,inf,1,1,1,1,2,3,2,5,0,0,0
32324915073,0,0.0,0.0,0.48217943,0.3681628,-0.45208108,0.40435395,0.40920234,0.07055831,-0.09064653,-0.32380733,0.21124017,0.21808566,-0.0027771294,-0.005445751,0.0009939618,-3.3214862,-4.8667493,1.2834948,-3.095862,0.0,0.5156808,-0.21124017,0.005369852,0.0038156381,0.026251204,0.018764982,inf,inf,inf,inf,1,1,1,1,2,3,2,5,0,0,0
32325019070,0,0.0,0.0,0.4758878,0.33943444,-0.430026,0.40435395,0.40920234,0.07055831,-0.07618695,-0.2938079,0.23631234,0.24149033,-0.0027771294,-0.005445751,0.0009939618,-2.1371567,-3.3781204,0.09667214,-3.0866916,0.0,0.4936257,-0.23631234,0.0050582737,0.003592507,0.02544989,0.018189788,inf,inf,inf,inf,1,1,1,1,2,3,2,5,0,0,0
32325123077,0,0.0,0.0,0.4714188,0.3164674,-0.4056155,0.40435395,0.40920234,0.07055831,-0.052338596,-0.23601834,0.26589516,0.26946485,-0.0027771294,-0.005445751,0.0009939618,2.1072638,2.3276634,1.3826721,-3.0771484,0.0,0.4692152,-0.26589516,0.0051406017,0.0036515598,0.02571274,0.018369801,inf,inf,inf,inf,1,1,1,1,2,3,2,5,0,0,0
32325218323,0,0.0,0.0,0.46883887,0.3009107,-0.3814457,0.40435395,0.40920234,0.07055831,-0.057708014,-0.19717233,0.2729165,0.27499336,-0.0027771294,-0.005445751,0.0009939618,-5.0945425,-0.12752116,1.2369297,-3.0695024,0.0,0.4450454,-0.2729165,0.0050970674,0.003620022,0.025620366,0.01829924,inf,inf,inf,inf,1,1,1,1,2,3,2,5,0,0,0
32325326276,0,0.0,0.0,0.46698293,0.28945813,-0.35346714,0.40435395,0.40920234,0.07055831,-0.04449539,-0.13501953,0.28426912,0.28470117,-0.0027771294,-0.005445751,0.0009939618,0.37629116,-1.8312478,-0.19238412,-3.060805,0.0,0.41706684,-0.28426912,0.0051959986,0.0036904754,0.025902743,0.018498586,inf,inf,inf,inf,1,1,1,1,2,3,2,5,0,0,0
32325422273,0,0.0,0.0,0.46632832,0.28669223,-0.32885563,0.40435395,0.40920234,0.07055831,-0.017305497,-0.06576835,0.27963325,0.27832773,-0.0027771294,-0.005445751,0.0009939618,2.3581119,2.1264,-0.30328694,-3.0525517,0.0,0.39245534,-0.27963325,0.0051714038,0.0036716242,0.025979815,0.01850344,inf,inf,inf,inf,1,1,1,1,2,3,2,5,0,0,0
32325526270,0,0.0,0.0,0.46609187,0.2903626,-0.3038434,0.40435395,0.40920234,0.07055831,-0.011667018,-0.031025715,0.2623415,0.2584774,-0.0027771294,-0.005445751,0.0009939618,1.1125509,-2.2887208,-0.24982151,-3.0447533,0.0,0.3674431,-0.2623415,0.0052332454,0.003713542,0.026099555,0.018582571,inf,inf,inf,inf,1,1,1,1,2,3,2,5,0,0,0
32325630311,0,0.0,0.0,0.46536824,0.30043846,-0.2796111,0.40435395,0.40920234,0.07055831,-0.015216104,0.034936152,0.27909395,0.2724067,-0.0027771294,-0.005445751,0.0009939618,3.3107474,1.8481798,-0.29371122,-3.0367393,0.0,0.34321082,-0.27909395,0.0053066756,0.0037641907,0.02623925,0.018674592,inf,inf,inf,inf,1,1,1,1,2,3,2,5,0,0,0
32325733469,0,0.0,0.0,0.46481305,0.31578687,-0.25831082,0.40435395,0.40920234,0.07055831,-0.009544085,0.08419283,0.23688884,0.22753765,-0.0027771294,-0.005445751,0.0009939618,1.3872538,-1.4029876,0.31619233,-3.0311103,0.0,0.32191053,-0.23688884,0.0053706695,0.003808391,0.026360888,0.018756278,inf,inf,inf,inf,1,1,1,1,2,3,2,5,0,0,0
32325829481,0,0.0,0.0,0.4644833,0.33371517,-0.24363552,0.40435395,0.40920234,0.07055831,0.0082955165,0.13562657,0.16463195,0.15303864,-0.0027771294,-0.005445751,0.0009939618,1.6532085,0.4608896,-1.9371115,-3.0257962,0.0,0.30723524,-0.16463195,0.0052815964,0.0037448234,0.026150731,0.018596098,inf,inf,inf,inf,1,1,1,1,2,3,2,5,0,0,0
32325933521,0,0.0,0.0,0.4647297,0.35617465,-0.23586771,0.40435395,0.40920234,0.07055831,0.0064451294,0.17537454,0.10546689,0.09094068,-0.0027771294,-0.005445751,0.0009939618,0.796329,4.958494,-0.4617142,-3.0235791,0.0,0.2994674,-0.10546689,0.005373914,0.0038096122,0.026471926,0.018805621,inf,inf,inf,inf,1,1,1,1,2,3,2,5,0,0,0
32326037486,0,0.0,0.0,0.46524867,0.38046345,-0.2352926,0.40435395,0.40920234,0.07055831,0.010644661,0.20269349,0.05500016,0.03666541,-0.0027771294,-0.005445751,0.0009939618,-0.9043206,-0.32484668,0.058051635,-3.0237257,0.0,0.29889232,-0.05500016,0.0054458394,0.0038578114,0.026688097,0.018902447,inf,inf,inf,inf,1,1,1,1,2,3,2,5,0,0,0
32326131883,0,0.0,0.0,0.4657143,0.4024769,-0.23964597,0.40435395,0.40920234,0.07055831,0.021817379,0.2156075,0.022664215,0.00064320315,-0.0027771294,-0.005445751,0.0009939618,1.9269543,1.2680622,0.9344436,-3.0244396,0.0,0.30324566,-0.022664215,0.0053571668,0.003791838,0.026462832,0.01872108,inf,inf,inf,inf,1,1,1,1,2,3,2,5,0,0,0
32326236670,0,0.0,0.0,0.4666417,0.42686507,-0.2475156,0.40435395,0.40920234,0.07055831,0.028200971,0.23354183,-0.012762536,-0.037516452,-0.0027771294,-0.005445751,0.0009939618,-0.09709384,2.0220556,-0.010322183,-3.0278277,0.0,0.31111532,0.012762536,0.005423972,0.0038372101,0.026639353,0.018850116,inf,inf,inf,inf,1,1,1,1,2,3,2,5,0,0,0
32326340670,0,0.0,0.0,0.46858862,0.45034617,-0.2570547,0.40435395,0.40920234,0.07055831,0.037414987,0.2492141,-0.03279345,-0.058063537,-0.0027771294,-0.005445751,0.0009939618,-2.0416586,1.442967,0.2465251,-3.0291848,0.0,0.3206544,0.03279345,0.0054929596,0.0038862587,0.026778053,0.018977756,inf,inf,inf,inf,1,1,1,1,2,3,2,5,0,0,0
32326444704,0,0.0,0.0,0.47191092,0.47389573,-0.26579535,0.40435395,0.40920234,0.07055831,0.057153385,0.24779381,-0.044416856,-0.06793118,-0.0027771294,-0.005445751,0.0009939618,1.3871028,-1.9017035,0.27229825,-3.0301673,0.0,0.32939506,0.044416856,0.0051840297,0.0036686477,0.025951609,0.018408893,inf,inf,inf,inf,1,1,1,1,2,3,2,5,0,0,0
32326548669,0,0.0,0.0,0.47670615,0.49722078,-0.2730093,0.40435395,0.40920234,0.07055831,0.055375855,0.2540252,-0.057455853,-0.07739813,-0.0027771294,-0.005445751,0.0009939618,-1.7355231,-3.395021,1.7367337,-3.0295937,0.0,0.336609,0.057455853,0.0052864044,0.0037428837,0.026207093,0.01862125,inf,inf,inf,inf,1,1,1,1,2,3,2,5,0,0,0
32326644670,0,0.0,0.0,0.482224,0.5191711,-0.27854043,0.40435395,0.40920234,0.07055831,0.07926511,0.28461903,-0.06799548,-0.08369613,-0.0027771294,-0.005445751,0.0009939618,3.0217261,3.4480364,-1.0127051,-3.0281432,0.0,0.34214014,0.06799548,0.0052007185,0.0036835829,0.025926162,0.018431937,inf,inf,inf,inf,1,1,1,1,2,3,2,5,0,0,0
32326747870,0,0.0,0.0,0.4887513,0.54372287,-0.28346553,0.40435395,0.40920234,0.07055831,0.07631275,0.2976255,-0.07018266,-0.08108319,-0.0027771294,-0.005445751,0.0009939618,3.6244698,1.4873205,-0.22118823,-3.0270698,0.0,0.34706524,0.07018266,0.0052419403,0.0037141184,0.025999336,0.018489294,inf,inf,inf,inf,1,1,1,1,2,3,2,5,0,0,0
32326851869,0,0.0,0.0,0.49600926,0.5701832,-0.2877366,0.40435395,0.40920234,0.07055831,0.07115604,0.30231217,-0.06974277,-0.076266736,-0.0027771294,-0.005445751,0.0009939618,-0.8643555,0.8996595,0.84413016,-3.024476,0.0,0.3513363,0.06974277,0.0052978336,0.0037549122,0.02616382,0.018615874,inf,inf,inf,inf,1,1,1,1,2,3,2,5,0,0,0
32326955889,0,0.0,0.0,0.5032839,0.5983773,-0.29059362,0.40435395,0.40920234,0.07055831,0.068384215,0.30558273,-0.06368764,-0.06655813,-0.0027771294,-0.005445751,0.0009939618,-4.2037573,-0.45434606,-0.6303486,-3.0238442,0.0,0.35419333,0.06368764,0.005403039,0.0038306317,0.026489759,0.018850366,inf,inf,inf,inf,1,1,1,1,2,3,2,5,0,0,0
32327059870,0,0.0,0.0,0.5102523,0.6283071,-0.29201126,0.40435395,0.40920234,0.07055831,0.081955485,0.33588827,-0.05669418,-0.056413025,-0.0027771294,-0.005445751,0.0009939618,-1.6126597,-0.34154698,-1.0455414,-3.0202837,0.0,0.35561097,0.05669418,0.0054876404,0.0038914701,0.026674392,0.018990058,inf,inf,inf,inf,1,1,1,1,2,3,2,5,0,0,0
32327155070,0,0.0,0.0,0.5159335,0.6573999,-0.29323307,0.40435395,0.40920234,0.07055831,0.06431123,0.3244521,-0.057850648,-0.05490666,-0.0027771294,-0.005445751,0.0009939618,-3.4695861,1.7977155,1.9958895,-3.0170174,0.0,0.35683277,0.057850648,0.005388142,0.0038213911,0.026378797,0.018795565,inf,inf,inf,inf,1,1,1,1,2,3,2,5,0,0,0
32327259076,0,0.0,0.0,0.5218523,0.6882147,-0.29499567,0.40435395,0.40920234,0.07055831,0.080141485,0.3006994,-0.06707412,-0.061923895,-0.0027771294,-0.005445751,0.0009939618,0.72959924,-2.6551015,-4.0911403,-3.0117679,0.0,0.35859537,0.06707412,0.005068737,0.0035943137,0.025538025,0.018192364,inf,inf,inf,inf,1,1,1,1,2,3,2,5,0,0,0
32327363070,0,0.0,0.0,0.52777296,0.71548307,-0.29730317,0.40435395,0.40920234,0.07055831,0.08277639,0.25683114,-0.052992497,-0.04663929,-0.0027771294,-0.005445751,0.0009939618,4.370426,1.2670535,1.1644236,-3.0067341,0.0,0.36090288,0.052992497,0.0051317574,0.003639566,0.025714496,0.018312592,inf,inf,inf,inf,1,1,1,1,2,3,2,5,0,0,0
32327459081,0,0.0,0.0,0.5337181,0.735768,-0.30034143,0.40435395,0.40920234,0.07055831,0.0873238,0.1908556,-0.059247248,-0.0525129,-0.0027771294,-0.005445751,0.0009939618,-0.81868523,-5.5410824,-0.6499107,-3.0040936,0.0,0.36394113,0.059247248,0.0050814184,0.0036036037,0.025635226,0.018251138,inf,inf,inf,inf,1,1,1,1,2,3,2,5,0,0,0
32327566294,0,0.0,0.0,0.54096586,0.7511505,-0.30364683,0.40435395,0.40920234,0.07055831,0.09966116,0.1225588,-0.04631402,-0.039795496,-0.0027771294,-0.005445751,0.0009939618,1.6157001,-0.0255699,-0.24621813,-3.0025036,0.0,0.36724654,0.04631402,0.0051728017,0.00366869,0.025866909,0.018416414,inf,inf,inf,inf,1,1,1,1,2,3,2,5,0,0,0
32327662288,0,0.0,0.0,0.548516,0.7588211,-0.30671424,0.40435395,0.40920234,0.07055831,0.09923943,0.07634252,-0.049593974,-0.043537997,-0.0027771294,-0.005445751,0.0009939618,-0.9425193,4.395396,0.8206381,-3.0040956,0.0,0.37031394,0.049593974,0.0051328316,0.003639874,0.025778634,0.018348567,inf,inf,inf,inf,1,1,1,1,2,3,2,5,0,0,0
32327766318,0,0.0,0.0,0.5594012,0.7605703,-0.31189913,0.40435395,0.40920234,0.07055831,0.11879204,0.0155888675,-0.0720372,-0.06639622,-0.0027771294,-0.005445751,0.0009939618,-3.9644463,-4.576224,-0.39839494,-3.008742,0.0,0.37549883,0.0720372,0.005225676,0.0037047707,0.026056066,0.018523328,inf,inf,inf,inf,1,1,1,1,2,3,2,5,0,0,0
32327870281,0,0.0,0.0,0.5734041,0.7548272,-0.31866103,0.40435395,0.40920234,0.07055831,0.14418955,-0.0106790755,-0.07518209,-0.07009014,-0.0027771294,-0.005445751,0.0009939618,0.7133781,0.10027253,-0.5454504,-3.0164328,0.0,0.38226074,0.07518209,0.0052727154,0.0037374005,0.026146954,0.018585362,inf,inf,inf,inf,1,1,1,1,2,3,2,5,0,0,0
32327966320,0,0.0,0.0,0.58931553,0.7441709,-0.3260997,0.40435395,0.40920234,0.07055831,0.16541234,-0.03412017,-0.08834176,-0.08409076,-0.0027771294,-0.005445751,0.0009939618,-1.3902453,-3.130311,-3.1557565,-3.0247214,0.0,0.3896994,0.08834176,0.00520462,0.0036883217,0.025964,0.01844891,inf,inf,inf,inf,1,1,1,1,2,3,2,5,0,0,0
32328069470,0,0.0,0.0,0.60862654,0.7278634,-0.3349107,0.40435395,0.40920234,0.07055831,0.17623094,-0.056937434,-0.084403604,-0.08119572,-0.0027771294,-0.005445751,0.0009939618,1.9431014,-0.97604376,-0.49251503,-3.031446,0.0,0.3985104,0.084403604,0.0052766376,0.0037395493,0.02613909,0.018584434,inf,inf,inf,inf,1,1,1,1,2,3,2,5,0,0,0
32328173518,0,0.0,0.0,0.62984735,0.7098858,-0.34415767,0.40435395,0.40920234,0.07055831,0.18062635,-0.070668705,-0.07969731,-0.077410914,-0.0027771294,-0.005445751,0.0009939618,0.29124743,2.0581408,1.0469218,-3.0355997,0.0,0.40775737,0.07969731,0.005329925,0.0037779661,0.026222609,0.01866814,inf,inf,inf,inf,1,1,1,1,2,3,2,5,0,0,0
32328277470,0,0.0,0.0,0.65184516,0.694513,-0.35325548,0.40435395,0.40920234,0.07055831,0.18048054,-0.07776816,-0.08205536,-0.08030122,-0.0027771294,-0.005445751,0.0009939618,-1.7122303,0.9650093,1.250238,-3.0407484,0.0,0.4168552,0.08205536,0.00504265,0.0035743804,0.025499858,0.01815576,inf,inf,inf,inf,1,1,1,1,2,3,2,5,0,0,0
32328373469,0,0.0,0.0,0.6722707,0.68341243,-0.36182922,0.40435395,0.40920234,0.07055831,0.19708811,-0.092587784,-0.0871846,-0.08561265,-0.0027771294,-0.005445751,0.0009939618,4.973493,2.342003,-0.06763774,-3.0433083,0.0,0.42542893,0.0871846,0.0053395806,0.0037869257,0.026270345,0.01871772,inf,inf,inf,inf,1,1,1,1,2,3,2,5,0,0,0
32328476717,0,0.0,0.0,0.694335,0.6748028,-0.37126347,0.40435395,0.40920234,0.07055831,0.19338633,-0.106531724,-0.08914182,-0.08756562,-0.0027771294,-0.005445751,0.0009939618,2.0033596,-0.13779272,0.6965936,-3.0445576,0.0,0.43486318,0.08914182,0.005399897,0.003830506,0.026390497,0.018800676,inf,inf,inf,inf,1,1,1,1,2,3,2,5,0,0,0
32328580670,0,0.0,0.0,0.71564776,0.6697991,-0.38065293,0.40435395,0.40920234,0.07055831,0.18150768,-0.107185215,-0.0961903,-0.09460641,-0.0027771294,-0.005445751,0.0009939618,-0.6541126,-2.851912,-1.9289013,-3.045695,0.0,0.44425264,0.0961903,0.0051099206,0.0036237577,0.025674654,0.018281257,inf,inf,inf,inf,1,1,1,1,2,3,2,5,0,0,0
32328684697,0,0.0,0.0,0.7343252,0.6654627,-0.38963348,0.40435395,0.40920234,0.07055831,0.16382565,-0.13428067,-0.07976371,-0.07829917,-0.0027771294,-0.005445751,0.0009939618,1.5743034,-1.1306491,1.7987158,-3.0462255,0.0,0.45323318,0.07976371,0.005187694,0.003679359,0.025871629,0.018426564,inf,inf,inf,inf,1,1,1,1,2,3,2,5,0,0,0
32328788670,0,0.0,0.0,0.74947023,0.65994847,-0.3975187,0.40435395,0.40920234,0.07055831,0.14458853,-0.14849506,-0.0708422,-0.06933255,-0.0027771294,-0.005445751,0.0009939618,0.74187076,0.2237211,1.0886747,-3.047973,0.0,0.4611184,0.0708422,0.005237438,0.0037149196,0.025973212,0.01850654,inf,inf,inf,inf,1,1,1,1,2,3,2,5,0,0,0
32328884671,0,0.0,0.0,0.7602008,0.65037936,-0.40427527,0.40435395,0.40920234,0.07055831,0.11144984,-0.18792601,-0.0819455,-0.080143526,-0.0027771294,-0.005445751,0.0009939618,-1.7711169,0.8604864,-1.7917159,-3.0487843,0.0,0.46787497,0.0819455,0.0051723295,0.0036687318,0.025820436,0.018400496,inf,inf,inf,inf,1,1,1,1,2,3,2,5,0,0,0
32328987904,0,0.0,0.0,0.7681383,0.63372666,-0.4108046,0.40435395,0.40920234,0.07055831,0.0849541,-0.23817492,-0.059744764,-0.05750796,-0.0027771294,-0.005445751,0.0009939618,2.182216,-1.161587,0.98923516,-3.0502574,0.0,0.4744043,0.059744764,0.00524351,0.0037197936,0.026011666,0.018533418,inf,inf,inf,inf,1,1,1,1,2,3,2,5,0,0,0
32329091877,0,0.0,0.0,0.7726667,0.6095461,-0.41621375,0.40435395,0.40920234,0.07055831,0.058671255,-0.26878324,-0.054025453,-0.05143842,-0.0027771294,-0.005445751,0.0009939618,2.0073707,2.346619,0.17114918,-3.053673,0.0,0.47981346,0.054025453,0.005325796,0.0037784614,0.02623308,0.018692082,inf,inf,inf,inf,1,1,1,1,2,3,2,5,0,0,0
32329195900,0,0.0,0.0,0.77463144,0.57885545,-0.4204266,0.40435395,0.40920234,0.07055831,0.027963785,-0.32269105,-0.0461462,-0.043227687,-0.0027771294,-0.005445751,0.0009939618,-2.9726417,-2.6390264,0.09459039,-3.0577455,0.0,0.4840263,0.0461462,0.0053685727,0.0038091706,0.026288105,0.018739317,inf,inf,inf,inf,1,1,1,1,2,3,2,5,0,0,0
32329299876,0,0.0,0.0,0.7747081,0.5431008,-0.42415434,0.40435395,0.40920234,0.07055831,0.014289329,-0.34250546,-0.0432539,-0.039990574,-0.0027771294,-0.005445751,0.0009939618,-3.571171,0.010083606,0.46222758,-3.063198,0.0,0.48775405,0.0432539,0.005429911,0.0038532147,0.026453627,0.018859707,inf,inf,inf,inf,1,1,1,1,2,3,2,5,0,0,0
32329395871,0,0.0,0.0,0.77379495,0.50503796,-0.42720252,0.40435395,0.40920234,0.07055831,0.019524252,-0.37674826,-0.04174628,-0.038263485,-0.0027771294,-0.005445751,0.0009939618,0.6184085,-0.6387457,0.38956463,-3.0693355,0.0,0.49080223,0.04174628,0.0053551462,0.003800069,0.026289558,0.018740132,inf,inf,inf,inf,1,1,1,1,2,3,2,5,0,0,0
32329499083,0,0.0,0.0,0.77248806,0.45977736,-0.4308279,0.40435395,0.40920234,0.07055831,0.014727063,-0.40004772,-0.04362776,-0.040183395,-0.0027771294,-0.005445751,0.0009939618,0.26037845,0.5724371,-0.5723981,-3.0752428,0.0,0.4944276,0.04362776,0.005423834,0.0038489732,0.026466653,0.018860627,inf,inf,inf,inf,1,1,1,1,2,3,2,5,0,0,0
32329603070,0,0.0,0.0,0.7716099,0.41031754,-0.43463144,0.40435395,0.40920234,0.07055831,0.013654759,-0.43682566,-0.041921105,-0.038894974,-0.0027771294,-0.005445751,0.0009939618,1.6657273,2.6661303,-1.2829489,-3.0786848,0.0,0.49823114,0.041921105,0.005126395,0.0036365357,0.025724772,0.018327663,inf,inf,inf,inf,1,1,1,1,2,3,2,5,0,0,0
32329699075,0,0.0,0.0,0.7716394,0.36346883,-0.43800807,0.40435395,0.40920234,0.07055831,-0.0049736607,-0.4569469,-0.03043874,-0.028063681,-0.0027771294,-0.005445751,0.0009939618,-3.9063659,-1.8544893,-1.4484184,-3.0795112,0.0,0.5016078,0.03043874,0.0054403814,0.003860661,0.026535558,0.018911283,inf,inf,inf,inf,1,1,1,1,2,3,2,5,0,0,0
32329803070,0,0.0,0.0,0.772776,0.3142587,-0.44119313,0.40435395,0.40920234,0.07055831,0.008246573,-0.456947,-0.0417171,-0.039963104,-0.0027771294,-0.005445751,0.0009939618,-2.3358364,-1.4145757,-2.2636328,-3.0789695,0.0,0.5047928,0.0417171,0.0051315897,0.003639933,0.025735185,0.018329032,inf,inf,inf,inf,1,1,1,1,2,3,2,5,0,0,0
32329902270,0,0.0,0.0,0.7752274,0.26877266,-0.4458292,0.40435395,0.40920234,0.07055831,0.011453135,-0.46266955,-0.045597315,-0.044254854,-0.0027771294,-0.005445751,0.0009939618,2.3456538,-0.7071688,0.5142449,-3.073551,0.0,0.5094289,0.045597315,0.0050948183,0.0036138482,0.025653524,0.018282736,inf,inf,inf,inf,1,1,1,1,2,3,2,5,0,0,0
32330006276,0,0.0,0.0,0.7787373,0.22311041,-0.45273548,0.40435395,0.40920234,0.07055831,0.006239881,-0.45058465,-0.077335946,-0.07671797,-0.0027771294,-0.005445751,0.0009939618,-1.4068502,0.4285521,-0.69273674,-3.0666401,0.0,0.5163352,0.077335946,0.005199095,0.0036882241,0.025946792,0.018483113,inf,inf,inf,inf,1,1,1,1,2,3,2,5,0,0,0
32330110269,0,0.0,0.0,0.78353673,0.18028235,-0.46285033,0.40435395,0.40920234,0.07055831,0.017570345,-0.4180699,-0.09801769,-0.098708056,-0.0027771294,-0.005445751,0.0009939618,-0.2492918,1.0687159,-0.87825197,-3.0572224,0.0,0.52645004,0.09801769,0.0053409557,0.003787762,0.0264275,0.018777376,inf,inf,inf,inf,1,1,1,1,2,3,2,5,0,0,0
32330214281,0,0.0,0.0,0.7890474,0.1458063,-0.47572848,0.40435395,0.40920234,0.07055831,0.007909214,-0.33814788,-0.099506535,-0.102026165,-0.0027771294,-0.005445751,0.0009939618,0.8758945,2.1109636,1.0463269,-3.0449333,0.0,0.5393282,0.099506535,0.0054110726,0.0038352811,0.026568878,0.018865446,inf,inf,inf,inf,1,1,1,1,2,3,2,5,0,0,0
32330310270,0,0.0,0.0,0.79190236,0.1200974,-0.48809046,0.40435395,0.40920234,0.07055831,-0.019487085,-0.30083588,-0.10606827,-0.110316955,-0.0027771294,-0.005445751,0.0009939618,0.6107775,2.1702127,0.17425318,-3.0315003,0.0,0.55169016,0.10606827,0.0053224964,0.0037710126,0.026308002,0.018675566,inf,inf,inf,inf,1,1,1,1,2,3,2,5,0,0,0
32330413469,0,0.0,0.0,0.7908289,0.102013014,-0.5013679,0.40435395,0.40920234,0.07055831,-0.05137175,-0.17488785,-0.09831464,-0.103639446,-0.0027771294,-0.005445751,0.0009939618,0.85870403,1.3549231,-0.38962173,-3.0177333,0.0,0.56496763,0.09831464,0.005365234,0.0038012068,0.026337666,0.018721735,inf,inf,inf,inf,1,1,1,1,2,3,2,5,0,0,0
32330517505,0,0.0,0.0,0.7846918,0.09637892,-0.5136043,0.40435395,0.40920234,0.07055831,-0.08716642,-0.095962726,-0.11112724,-0.116402194,-0.0027771294,-0.005445751,0.0009939618,2.74196,-1.3547764,-1.1691895,-3.0100954,0.0,0.577204,0.11112724,0.005420267,0.0038415832,0.026455313,0.018836156,inf,inf,inf,inf,1,1,1,1,2,3,2,5,0,0,0
32330613470,0,0.0,0.0,0.7736992,0.09864561,-0.52458036,0.40435395,0.40920234,0.07055831,-0.14134967,-0.01657468,-0.109030366,-0.11337817,-0.0027771294,-0.005445751,0.0009939618,0.066469006,-0.09751026,-1.3805941,-3.0042825,0.0,0.58818007,0.109030366,0.0053644944,0.0038034918,0.026358865,0.018777166,inf,inf,inf,inf,1,1,1,1,2,3,2,5,0,0,0
32330717492,0,0.0,0.0,0.75521994,0.1116239,-0.53578234,0.40435395,0.40920234,0.07055831,-0.1779403,0.07210594,-0.115996435,-0.119112074,-0.0027771294,-0.005445751,0.0009939618,4.402105,-0.12665482,-0.6528096,-2.998703,0.0,0.59938204,0.115996435,0.0054318816,0.0038520396,0.026512103,0.018869873,inf,inf,inf,inf,1,1,1,1,2,3,2,5,0,0,0
32330820669,0,0.0,0.0,0.7317523,0.13297293,-0.5479759,0.40435395,0.40920234,0.07055831,-0.2079321,0.13549028,-0.124238476,-0.12610814,-0.0027771294,-0.005445751,0.0009939618,1.9489925,3.2347836,0.68162644,-2.994013,0.0,0.6115756,0.124238476,0.0051374384,0.0036421581,0.02575615,0.018328154,inf,inf,inf,inf,1,1,1,1,2,3,2,5,0,0,0
32330924679,0,0.0,0.0,0.7035734,0.16255188,-0.5598737,0.40435395,0.40920234,0.07055831,-0.23667082,0.17465098,-0.11287252,-0.1139041,-0.0027771294,-0.005445751,0.0009939618,-4.7342277,-4.7193923,2.1923797,-2.9904525,0.0,0.6234734,0.11287252,0.0051988084,0.0036854509,0.025934698,0.01843483,inf,inf,inf,inf,1,1,1,1,2,3,2,5,0,0,0
32331028670,0,0.0,0.0,0.6721788,0.19633202,-0.56897235,0.40435395,0.40920234,0.07055831,-0.22919522,0.2345737,-0.076092534,-0.07649498,-0.0027771294,-0.005445751,0.0009939618,2.8032253,1.3223264,-1.940865,-2.991237,0.0,0.63257205,0.076092534,0.0052532637,0.0037240975,0.02606402,0.018546274,inf,inf,inf,inf,1,1,1,1,2,3,2,5,0,0,0
32331124678,0,0.0,0.0,0.6421163,0.22772521,-0.5734285,0.40435395,0.40920234,0.07055831,-0.23048958,0.25595468,-0.048169848,-0.047550518,-0.0027771294,-0.005445751,0.0009939618,0.82780176,0.34217054,-1.0831121,-2.9949043,0.0,0.6370282,0.048169848,0.0052178423,0.0036995418,0.02600639,0.018526452,inf,inf,inf,inf,1,1,1,1,2,3,2,5,0,0,0
32331227870,0,0.0,0.0,0.61100596,0.2595784,-0.57423085,0.40435395,0.40920234,0.07055831,-0.23164421,0.26181543,-0.019774977,-0.017118847,-0.0027771294,-0.005445751,0.0009939618,0.33905,2.5571814,0.5188666,-2.9994583,0.0,0.63783056,0.019774977,0.0052706664,0.0037389162,0.026044918,0.018585064,inf,inf,inf,inf,1,1,1,1,2,3,2,5,0,0,0
32331331876,0,0.0,0.0,0.58474934,0.28747764,-0.57181567,0.40435395,0.40920234,0.07055831,-0.2155034,0.25625333,0.0030044317,0.008252424,-0.0027771294,-0.005445751,0.0009939618,-3.550596,-1.2595425,-0.27324483,-3.0066423,0.0,0.6354154,-0.0030044317,0.0053199385,0.003776071,0.026131906,0.018667487,inf,inf,inf,inf,1,1,1,1,2,3,2,5,0,0,0
32331427870,0,0.0,0.0,0.5664343,0.3094031,-0.5668726,0.40435395,0.40920234,0.07055831,-0.16950293,0.25471315,0.02944482,0.036705088,-0.0027771294,-0.005445751,0.0009939618,3.1978333,-2.2549126,0.7429561,-3.017761,0.0,0.6304723,-0.02944482,0.0052321064,0.00371469,0.025933992,0.018527964,inf,inf,inf,inf,1,1,1,1,2,3,2,5,0,0,0
32331531885,0,0.0,0.0,0.5532442,0.3293264,-0.5590688,0.40435395,0.40920234,0.07055831,-0.137897,0.24982154,0.046481933,0.055049624,-0.0027771294,-0.005445751,0.0009939618,2.2944925,0.8698191,0.7673501,-3.0298645,0.0,0.6226685,-0.046481933,0.0052990993,0.0037632869,0.026103416,0.01864497,inf,inf,inf,inf,1,1,1,1,2,3,2,5,0,0,0
32331635876,0,0.0,0.0,0.5471833,0.34644622,-0.5513359,0.40435395,0.40920234,0.07055831,-0.09093122,0.24954902,0.045361117,0.05430684,-0.0027771294,-0.005445751,0.0009939618,2.4068463,0.88747764,-1.3317928,-3.0419235,0.0,0.6149356,-0.045361117,0.0053982735,0.0038345242,0.02639872,0.018856516,inf,inf,inf,inf,1,1,1,1,2,3,2,5,0,0,0
32331739879,0,0.0,0.0,0.54674107,0.36260328,-0.5455693,0.40435395,0.40920234,0.07055831,-0.06056532,0.2414983,0.029395591,0.03756164,-0.0027771294,-0.005445751,0.0009939618,1.0300151,-0.3568002,1.6322734,-3.0540173,0.0,0.609169,-0.029395591,0.005127916,0.0036405402,0.025736274,0.01835596,inf,inf,inf,inf,1,1,1,1,2,3,2,5,0,0,0
32331839070,0,0.0,0.0,0.55033064,0.37890652,-0.542773,0.40435395,0.40920234,0.07055831,-0.031960364,0.23983368,0.032850403,0.039112754,-0.0027771294,-0.005445751,0.0009939618,-2.5127409,-0.06025699,-0.30397853,-3.066525,0.0,0.6063727,-0.032850403,0.0050671007,0.0035960015,0.02558144,0.018226292,inf,inf,inf,inf,1,1,1,1,2,3,2,5,0,0,0
32331943071,0,0.0,0.0,0.55842173,0.39624307,-0.5418493,0.40435395,0.40920234,0.07055831,0.0122171,0.24644528,0.016848117,0.020091288,-0.0027771294,-0.005445751,0.0009939618,-0.45775792,0.02445022,1.0839195,-3.0771022,0.0,0.605449,-0.016848117,0.0051487386,0.0036525337,0.025798459,0.018353786,inf,inf,inf,inf,1,1,1,1,2,3,2,5,0,0,0
32332047072,0,0.0,0.0,0.56925744,0.4154012,-0.5452023,0.40435395,0.40920234,0.07055831,0.041691475,0.24253592,-0.029701313,-0.02959904,-0.0027771294,-0.005445751,0.0009939618,0.80544114,-4.465774,0.6389163,-3.0831277,0.0,0.608802,0.029701313,0.005280905,0.0037445081,0.02626006,0.018662525,inf,inf,inf,inf,1,1,1,1,2,3,2,5,0,0,0
32332143070,0,0.0,0.0,0.5808855,0.43533996,-0.55295247,0.40435395,0.40920234,0.07055831,0.053704157,0.26036096,-0.0571184,-0.059920095,-0.0027771294,-0.005445751,0.0009939618,-0.41956308,-3.495705,-1.5735701,-3.082516,0.0,0.6165522,0.0571184,0.005184661,0.0036745232,0.025947494,0.01842935,inf,inf,inf,inf,1,1,1,1,2,3,2,5,0,0,0
32332246273,0,0.0,0.0,0.59303457,0.4599589,-0.5641711,0.40435395,0.40920234,0.07055831,0.059914056,0.26810458,-0.072216004,-0.07830902,-0.0027771294,-0.005445751,0.0009939618,0.7030442,0.6725404,0.15602268,-3.0793467,0.0,0.6277708,0.072216004,0.0052416855,0.0037135112,0.02610961,0.018522106,inf,inf,inf,inf,1,1,1,1,2,3,2,5,0,0,0
32332350272,0,0.0,0.0,0.603834,0.48409602,-0.5786274,0.40435395,0.40920234,0.07055831,0.063847095,0.23354281,-0.10828015,-0.11708891,-0.0027771294,-0.005445751,0.0009939618,0.02230219,-3.339972,0.06894854,-3.0778847,0.0,0.6422271,0.10828015,0.0052888542,0.0037461848,0.02620346,0.018608186,inf,inf,inf,inf,1,1,1,1,2,3,2,5,0,0,0
32332454297,0,0.0,0.0,0.61254185,0.50856537,-0.5968274,0.40435395,0.40920234,0.07055831,0.060330667,0.23624833,-0.14448063,-0.15500727,-0.0027771294,-0.005445751,0.0009939618,-1.9546033,-0.7642341,0.44489124,-3.078908,0.0,0.6604271,0.14448063,0.0053518037,0.003791225,0.026351962,0.018719211,inf,inf,inf,inf,1,1,1,1,2,3,2,5,0,0,0
32332558320,0,0.0,0.0,0.6182848,0.5299332,-0.6162872,0.40435395,0.40920234,0.07055831,0.048028883,0.18870956,-0.15157323,-0.16306342,-0.0027771294,-0.005445751,0.0009939618,-1.5816411,0.47352478,0.23968089,-3.0768948,0.0,0.6798869,0.15157323,0.0054120882,0.0038340394,0.026525471,0.018829277,inf,inf,inf,inf,1,1,1,1,2,3,2,5,0,0,0
32332653477,0,0.0,0.0,0.6207225,0.54577225,-0.6343367,0.40435395,0.40920234,0.07055831,0.035034373,0.15804712,-0.15339977,-0.16504711,-0.0027771294,-0.005445751,0.0009939618,-0.13134532,-1.7826611,1.4696035,-3.0745337,0.0,0.6979364,0.15339977,0.00533796,0.0037810036,0.026338043,0.01870413,inf,inf,inf,inf,1,1,1,1,2,3,2,5,0,0,0
32332757470,0,0.0,0.0,0.62047505,0.5589044,-0.65248823,0.40435395,0.40920234,0.07055831,0.023023723,0.12930465,-0.15283443,-0.16343957,-0.0027771294,-0.005445751,0.0009939618,0.3544439,0.82048905,-0.071820736,-3.0722492,0.0,0.71608794,0.15283443,0.0051160427,0.0036240134,0.025856141,0.018373674,inf,inf,inf,inf,1,1,1,1,2,3,2,5,0,0,0
32332861470,0,0.0,0.0,0.6173479,0.5657725,-0.667194,0.40435395,0.40920234,0.07055831,-0.006526709,0.08176237,-0.12225056,-0.13065983,-0.0027771294,-0.005445751,0.0009939618,0.4712587,-2.75119,1.6367432,-3.069772,0.0,0.7307937,0.12225056,0.005253635,0.0037231452,0.026170919,0.018624682,inf,inf,inf,inf,1,1,1,1,2,3,2,5,0,0,0
32332957469,0,0.0,0.0,0.61217713,0.5675559,-0.6766357,0.40435395,0.40920234,0.07055831,-0.01843569,0.060888544,-0.10191337,-0.10728013,-0.0027771294,-0.005445751,0.0009939618,0.97967875,1.4165093,-0.13530259,-3.069478,0.0,0.7402354,0.10191337,0.0052267415,0.003705479,0.02602402,0.018543685,inf,inf,inf,inf,1,1,1,1,2,3,2,5,0,0,0
32333061469,0,0.0,0.0,0.6050543,0.56382763,-0.68381315,0.40435395,0.40920234,0.07055831,-0.030847836,-0.004562266,-0.093040615,-0.09431743,-0.0027771294,-0.005445751,0.0009939618,2.461567,-3.6489866,0.6678655,-3.0687287,0.0,0.74741286,0.093040615,0.0053090095,0.003766057,0.026146285,0.018654743,inf,inf,inf,inf,1,1,1,1,2,3,2,5,0,0,0
32333160703,0,0.0,0.0,0.5974034,0.55607355,-0.68959224,0.40435395,0.40920234,0.07055831,-0.05238437,-0.037783947,-0.10032378,-0.09793344,-0.0027771294,-0.005445751,0.0009939618,-2.1568027,-3.4884999,1.3637474,-3.0665157,0.0,0.75319195,0.10032378,0.0052545667,0.0037286794,0.026018776,0.018558178,inf,inf,inf,inf,1,1,1,1,2,3,2,5,0,0,0
32333264670,0,0.0,0.0,0.58880633,0.5450489,-0.6958943,0.40435395,0.40920234,0.07055831,-0.04263143,-0.05178051,-0.1058691,-0.10081974,-0.0027771294,-0.005445751,0.0009939618,2.3828728,0.9186969,-0.6213942,-3.0676425,0.0,0.759494,0.1058691,0.0053696823,0.0038116241,0.026349071,0.018795237,inf,inf,inf,inf,1,1,1,1,2,3,2,5,0,0,0
32333368675,0,0.0,0.0,0.5807825,0.53249687,-0.7031009,0.40435395,0.40920234,0.07055831,-0.05243293,-0.065012395,-0.097982325,-0.092006125,-0.0027771294,-0.005445751,0.0009939618,-2.411901,1.2358353,-1.3106968,-3.0718756,0.0,0.7667006,0.097982325,0.005490262,0.0038952818,0.02675492,0.01903039,inf,inf,inf,inf,1,1,1,1,2,3,2,5,0,0,0
32333472680,0,0.0,0.0,0.57366645,0.51944095,-0.7105714,0.40435395,0.40920234,0.07055831,-0.054083988,-0.080035,-0.08945853,-0.083794124,-0.0027771294,-0.005445751,0.0009939618,-1.0657758,-2.390962,0.9757143,-3.0780382,0.0,0.7741711,0.08945853,0.0051460136,0.0036480052,0.02578727,0.018332103,inf,inf,inf,inf,1,1,1,1,2,3,2,5,0,0,0
32333575870,0,0.0,0.0,0.5680034,0.5072689,-0.71765304,0.40435395,0.40920234,0.07055831,-0.04885738,-0.09216366,-0.07584099,-0.07084815,-0.0027771294,-0.005445751,0.0009939618,-0.18873085,-0.9485316,0.5932757,-3.085142,0.0,0.78125274,0.07584099,0.00519845,0.0036850914,0.025888672,0.01842533,inf,inf,inf,inf,1,1,1,1,2,3,2,5,0,0,0
32333671885,0,0.0,0.0,0.5643763,0.49665177,-0.7243324,0.40435395,0.40920234,0.07055831,-0.043035537,-0.093559094,-0.07151957,-0.06695339,-0.0027771294,-0.005445751,0.0009939618,1.8511744,2.019727,0.89578927,-3.087722,0.0,0.7879321,0.07151957,0.005127241,0.0036349343,0.02573108,0.018325133,inf,inf,inf,inf,1,1,1,1,2,3,2,5,0,0,0
32333775887,0,0.0,0.0,0.5627455,0.4875866,-0.7312961,0.40435395,0.40920234,0.07055831,-0.02950907,-0.082862996,-0.07503893,-0.07081332,-0.0027771294,-0.005445751,0.0009939618,-0.20742786,-3.1742716,-0.65297335,-3.0861213,0.0,0.7948958,0.07503893,0.0052192016,0.003701791,0.02600263,0.018526983,inf,inf,inf,inf,1,1,1,1,2,3,2,5,0,0,0
32333879896,0,0.0,0.0,0.56326425,0.481104,-0.73730683,0.40435395,0.40920234,0.07055831,-0.028635522,-0.079146035,-0.05702068,-0.053070944,-0.0027771294,-0.005445751,0.0009939618,-3.0097003,-0.7787265,0.7812709,-3.0849242,0.0,0.80090654,0.05702068,0.005289513,0.0037527408,0.026145378,0.018638955,inf,inf,inf,inf,1,1,1,1,2,3,2,5,0,0,0
32333975870,0,0.0,0.0,0.5650902,0.4782939,-0.74243516,0.40435395,0.40920234,0.07055831,-0.0057214126,-0.06256361,-0.056137364,-0.052360654,-0.0027771294,-0.005445751,0.0009939618,1.766121,-0.04741544,1.1193033,-3.085048,0.0,0.80603486,0.056137364,0.0052304007,0.0037108476,0.02599092,0.018528854,inf,inf,inf,inf,1,1,1,1,2,3,2,5,0,0,0
32334079070,0,0.0,0.0,0.567838,0.4772507,-0.7480737,0.40435395,0.40920234,0.07055831,0.004248027,-0.033152364,-0.069331735,-0.065660514,-0.0027771294,-0.005445751,0.0009939618,1.4763006,2.9831433,-1.6088947,-3.0832164,0.0,0.8116734,0.069331735,0.005270066,0.003739418,0.026038524,0.018560307,inf,inf,inf,inf,1,1,1,1,2,3,2,5,0,0,0
32334183118,0,0.0,0.0,0.5715236,0.47816822,-0.7544758,0.40435395,0.40920234,0.07055831,0.0050734505,-0.050434217,-0.06585735,-0.06253041,-0.0027771294,-0.005445751,0.0009939618,-1.6354958,-3.702001,-0.71056974,-3.083085,0.0,0.8180755,0.06585735,0.0053006834,0.0037609986,0.02610734,0.018604804,inf,inf,inf,inf,1,1,1,1,2,3,2,5,0,0,0
32334287070,0,0.0,0.0,0.5760859,0.4785209,-0.7625082,0.40435395,0.40920234,0.07055831,0.022489887,-0.040071614,-0.08021286,-0.0777209,-0.0027771294,-0.005445751,0.0009939618,0.89365923,1.3434536,0.9554279,-3.084609,0.0,0.8261079,0.08021286,0.005021988,0.003561742,0.02545976,0.0181341,inf,inf,inf,inf,1,1,1,1,2,3,2,5,0,0,0
32334383073,0,0.0,0.0,0.5811559,0.47896627,-0.77186203,0.40435395,0.40920234,0.07055831,0.03511691,-0.04223639,-0.109873004,-0.108524874,-0.0027771294,-0.005445751,0.0009939618,-1.9596733,1.0991056,-2.267532,-3.0870905,0.0,0.83546174,0.109873004,0.0052952752,0.003756519,0.02615929,0.018626502,inf,inf,inf,inf,1,1,1,1,2,3,2,5,0,0,0
32334486270,0,0.0,0.0,0.58728963,0.47729152,-0.7850765,0.40435395,0.40920234,0.07055831,0.04221075,-0.07015167,-0.11737489,-0.117736824,-0.0027771294,-0.005445751,0.0009939618,-0.8554592,-2.2751782,-0.43337595,-3.0897598,0.0,0.8486762,0.11737489,0.005380446,0.003816376,0.026389256,0.018783927,inf,inf,inf,inf,1,1,1,1,2,3,2,5,0,0,0
32334590276,0,0.0,0.0,0.5942857,0.47248164,-0.80055773,0.40435395,0.40920234,0.07055831,0.051137596,-0.08918967,-0.12904458,-0.13144265,-0.0027771294,-0.005445751,0.0009939618,-1.5323045,-0.8513427,-0.36271676,-3.0910094,0.0,0.86415744,0.12904458,0.005476091,0.003883383,0.026680129,0.018971257,inf,inf,inf,inf,1,1,1,1,2,3,2,5,0,0,0
32334694278,0,0.0,0.0,0.60105854,0.46446103,-0.8155041,0.40435395,0.40920234,0.07055831,0.054123916,-0.105471596,-0.114741676,-0.11889276,-0.0027771294,-0.005445751,0.0009939618,-0.69685435,-3.0769246,-1.1821882,-3.08872,0.0,0.8791038,0.114741676,0.005164927,0.0036609913,0.02584139,0.018379567,inf,inf,inf,inf,1,1,1,1,2,3,2,5,0,0,0
32334798308,0,0.0,0.0,0.60795116,0.45256558,-0.8293537,0.40435395,0.40920234,0.07055831,0.050174985,-0.11852675,-0.108124286,-0.11300501,-0.0027771294,-0.005445751,0.0009939618,-1.0460093,1.6031094,-0.20956387,-3.0828643,0.0,0.8929534,0.108124286,0.005278359,0.003742008,0.026158387,0.018627254,inf,inf,inf,inf,1,1,1,1,2,3,2,5,0,0,0
32334894276,0,0.0,0.0,0.6140631,0.43863696,-0.8408231,0.40435395,0.40920234,0.07055831,0.050550137,-0.13228591,-0.109724894,-0.11407722,-0.0027771294,-0.005445751,0.0009939618,-1.6054264,-2.0990124,-1.2458372,-3.0775883,0.0,0.9044228,0.109724894,0.005195307,0.003683891,0.025874577,0.018431757,inf,inf,inf,inf,1,1,1,1,2,3,2,5,0,0,0
32334997474,0,0.0,0.0,0.62010837,0.42183194,-0.8512485,0.40435395,0.40920234,0.07055831,0.04370895,-0.14514215,-0.09537958,-0.0982696,-0.0027771294,-0.005445751,0.0009939618,-1.8213576,-0.976514,2.1049306,-3.072214,0.0,0.9148482,0.09537958,0.00522005,0.0037024412,0.025867822,0.018438814,inf,inf,inf,inf,1,1,1,1,2,3,2,5,0,0,0
32335101476,0,0.0,0.0,0.62544274,0.40325963,-0.86012554,0.40435395,0.40920234,0.07055831,0.04568131,-0.14202116,-0.08811231,-0.08926687,-0.0027771294,-0.005445751,0.0009939618,-0.16445252,2.1913962,-0.43220854,-3.066335,0.0,0.92372525,0.08811231,0.005276503,0.0037434378,0.026055882,0.018577194,inf,inf,inf,inf,1,1,1,1,2,3,2,5,0,0,0
32335197470,0,0.0,0.0,0.62898755,0.38673136,-0.8668363,0.40435395,0.40920234,0.07055831,0.042112775,-0.13300754,-0.081210665,-0.08096117,-0.0027771294,-0.005445751,0.0009939618,2.4035742,1.3100477,1.0189242,-3.0611787,0.0,0.930436,0.081210665,0.00520031,0.0036898376,0.025907066,0.018476322,inf,inf,inf,inf,1,1,1,1,2,3,2,5,0,0,0
32335301470,0,0.0,0.0,0.63167727,0.37068522,-0.87428737,0.40435395,0.40920234,0.07055831,0.026601156,-0.13450903,-0.08686998,-0.085558735,-0.0027771294,-0.005445751,0.0009939618,0.3422181,0.13039151,0.4312719,-3.0568888,0.0,0.9378871,0.08686998,0.0052881483,0.0037529345,0.026136868,0.018637719,inf,inf,inf,inf,1,1,1,1,2,3,2,5,0,0,0
32335405481,0,0.0,0.0,0.6329633,0.35701868,-0.88322234,0.40435395,0.40920234,0.07055831,0.016209662,-0.098668285,-0.1100236,-0.10832556,-0.0027771294,-0.005445751,0.0009939618,-1.2444137,2.1144452,-0.9971715,-3.0545685,0.0,0.94682205,0.1100236,0.0053846156,0.00382185,0.0264143,0.018831598,inf,inf,inf,inf,1,1,1,1,2,3,2,5,0,0,0
32335508674,0,0.0,0.0,0.63385564,0.3476656,-0.8949408,0.40435395,0.40920234,0.07055831,0.011036522,-0.081909984,-0.12166013,-0.12049132,-0.0027771294,-0.005445751,0.0009939618,-1.1412426,-0.9891301,0.49328628,-3.0583227,0.0,0.9585405,0.12166013,0.005440488,0.0038609111,0.026504012,0.018880002,inf,inf,inf,inf,1,1,1,1,2,3,2,5,0,0,0
32335604670,0,0.0,0.0,0.6343297,0.3418517,-0.9077872,0.40435395,0.40920234,0.07055831,0.011139271,-0.0769696,-0.13357985,-0.13372396,-0.0027771294,-0.005445751,0.0009939618,-0.75090903,-2.776627,0.18584672,-3.0671628,0.0,0.9713869,0.13357985,0.0053621344,0.0038036758,0.026347848,0.018743372,inf,inf,inf,inf,1,1,1,1,2,3,2,5,0,0,0
32335708676,0,0.0,0.0,0.6347831,0.33880013,-0.92384094,0.40435395,0.40920234,0.07055831,0.01430524,-0.05793945,-0.14123508,-0.14309554,-0.0027771294,-0.005445751,0.0009939618,-0.1280134,-4.2439475,-0.029573057,-3.0780442,0.0,0.98744065,0.14123508,0.0054357145,0.0038550575,0.026522081,0.018879157,inf,inf,inf,inf,1,1,1,1,2,3,2,5,0,0,0
32335812669,0,0.0,0.0,0.635329,0.33825254,-0.9399255,0.40435395,0.40920234,0.07055831,0.007829149,-0.041563917,-0.12425439,-0.12748945,-0.0027771294,-0.005445751,0.0009939618,-4.108884,-2.6684034,1.4186722,-3.0888495,0.0,1.0035253,0.12425439,0.005143516,0.003646421,0.0257933,0.018349493,inf,inf,inf,inf,1,1,1,1,2,3,2,5,0,0,0
32335907870,0,0.0,0.0,0.6355345,0.33917657,-0.9517403,0.40435395,0.40920234,0.07055831,0.0077322293,-0.041558743,-0.09296795,-0.09666653,-0.0027771294,-0.005445751,0.0009939618,1.2089949,-3.821251,1.24636,-3.0993135,0.0,1.0153401,0.09296795,0.0054353187,0.0038543504,0.026521727,0.018883195,inf,inf,inf,inf,1,1,1,1,2,3,2,5,0,0,0
32336011869,0,0.0,0.0,0.63559824,0.34066838,-0.9606017,0.40435395,0.40920234,0.07055831,-0.00904888,-0.029542528,-0.06448043,-0.06711535,-0.0027771294,-0.005445751,0.0009939618,-3.6041389,-1.8818045,1.8225118,-3.1084883,0.0,1.0242014,0.06448043,0.0055157524,0.003912978,0.026684502,0.019035082,inf,inf,inf,inf,1,1,1,1,2,3,2,5,0,0,0
32336115870,0,0.0,0.0,0.63489115,0.3403405,-0.96408033,0.40435395,0.40920234,0.07055831,-0.0111466935,-0.036775332,-0.035984065,-0.035999306,-0.0027771294,-0.005445751,0.0009939618,-2.51769,3.0037255,-0.98334587,-3.1145432,0.0,1.02768,0.035984065,0.0051931213,0.0036850055,0.025830612,0.018444307,inf,inf,inf,inf,1,1,1,1,2,3,2,5,0,0,0
32336219876,0,0.0,0.0,0.6326965,0.33790478,-0.9623607,0.40435395,0.40920234,0.07055831,-0.026246086,-0.051310077,0.0010739295,0.004343416,-0.0027771294,-0.005445751,0.0009939618,1.698959,0.5494175,-1.5438585,-3.1180987,0.0,1.0259604,-0.0010739295,0.0052658594,0.0037389013,0.02600944,0.01858854,inf,inf,inf,inf,1,1,1,1,2,3,2,5,0,0,0
32336323121,0,0.0,0.0,0.6285319,0.33214062,-0.95736325,0.40435395,0.40920234,0.07055831,-0.0438114,-0.0697763,0.018881874,0.025258182,-0.0027771294,-0.005445751,0.0009939618,0.9393003,-1.2460349,0.2235674,-3.117014,0.0,1.020963,-0.018881874,0.005333272,0.0037883925,0.026173525,0.018714737,inf,inf,inf,inf,1,1,1,1,2,3,2,5,0,0,0
32336423919,0,0.0,0.0,0.6225952,0.32429236,-0.9512332,0.40435395,0.40920234,0.07055831,-0.050538093,-0.06237974,0.023836032,0.03217959,-0.0027771294,-0.005445751,0.0009939618,-0.8510951,0.32741266,0.4150461,-3.1133926,0.0,1.014833,-0.023836032,0.0052950666,0.003761661,0.026138736,0.018677307,inf,inf,inf,inf,1,1,1,1,2,3,2,5,0,0,0
32336527086,0,0.0,0.0,0.6148145,0.3145483,-0.9447599,0.40435395,0.40920234,0.07055831,-0.05615375,-0.063820794,0.032756016,0.041673083,-0.0027771294,-0.005445751,0.0009939618,3.2116575,4.625527,-1.1706504,-3.1078038,0.0,1.0083597,-0.032756016,0.0054555493,0.0038757212,0.026746294,0.01906606,inf,inf,inf,inf,1,1,1,1,2,3,2,5,0,0,0
32336623070,0,0.0,0.0,0.6062491,0.303859,-0.9402125,0.40435395,0.40920234,0.07055831,-0.07672677,-0.07603389,0.03060629,0.038552888,-0.0027771294,-0.005445751,0.0009939618,-2.8009732,-1.680443,0.2626281,-3.1026533,0.0,1.0038122,-0.03060629,0.005372636,0.0038135734,0.026478708,0.018857382,inf,inf,inf,inf,1,1,1,1,2,3,2,5,0,0,0
32336727129,0,0.0,0.0,0.5957364,0.2916303,-0.9361947,0.40435395,0.40920234,0.07055831,-0.07802047,-0.083968654,0.040676825,0.04643648,-0.0027771294,-0.005445751,0.0009939618,0.33467662,0.5252216,0.5543616,-3.0985126,0.0,0.9997944,-0.040676825,0.005426189,0.0038502046,0.026536554,0.018890154,inf,inf,inf,inf,1,1,1,1,2,3,2,5,0,0,0
32336830270,0,0.0,0.0,0.58494055,0.27902693,-0.9339599,0.40435395,0.40920234,0.07055831,-0.08023449,-0.08038806,0.037750416,0.040829256,-0.0027771294,-0.005445751,0.0009939618,1.1254696,0.7006033,1.6075556,-3.0945346,0.0,0.9975596,-0.037750416,0.005122112,0.003632231,0.0257146,0.01830302,inf,inf,inf,inf,1,1,1,1,2,3,2,5,0,0,0
32336934301,0,0.0,0.0,0.57436717,0.26739267,-0.93232703,0.40435395,0.40920234,0.07055831,-0.08010272,-0.08270036,0.034543727,0.035115026,-0.0027771294,-0.005445751,0.0009939618,0.07586976,-0.12811598,-0.24900006,-3.0892365,0.0,0.99592674,-0.034543727,0.0052020834,0.0036892663,0.025913358,0.01845122,inf,inf,inf,inf,1,1,1,1,2,3,2,5,0,0,0
32337038302,0,0.0,0.0,0.5644656,0.257482,-0.9305291,0.40435395,0.40920234,0.07055831,-0.085596256,-0.064802654,0.05250431,0.051080618,-0.0027771294,-0.005445751,0.0009939618,0.8383423,0.29790834,0.5640382,-3.082611,0.0,0.9941288,-0.05250431,0.0052629476,0.0037330987,0.026070211,0.018580118,inf,inf,inf,inf,1,1,1,1,2,3,2,5,0,0,0
32337134270,0,0.0,0.0,0.55570954,0.25090468,-0.9271742,0.40435395,0.40920234,0.07055831,-0.09583924,-0.057007153,0.07263631,0.070028864,-0.0027771294,-0.005445751,0.0009939618,-1.4611121,1.2258353,0.5128317,-3.073648,0.0,0.9907739,-0.07263631,0.005166884,0.0036648256,0.025785528,0.01837277,inf,inf,inf,inf,1,1,1,1,2,3,2,5,0,0,0
32337238297,0,0.0,0.0,0.5467329,0.24621285,-0.919152,0.40435395,0.40920234,0.07055831,-0.09732744,-0.041342184,0.11310646,0.11022355,-0.0027771294,-0.005445751,0.0009939618,-1.8592649,1.4220688,1.6975752,-3.0637603,0.0,0.9827517,-0.11310646,0.005255232,0.003728606,0.026055962,0.018578982,inf,inf,inf,inf,1,1,1,1,2,3,2,5,0,0,0
32337341469,0,0.0,0.0,0.5389843,0.24423349,-0.9059061,0.40435395,0.40920234,0.07055831,-0.08983288,-0.026500404,0.15230809,0.1504371,-0.0027771294,-0.005445751,0.0009939618,-0.7847437,1.413422,1.0640352,-3.0572197,0.0,0.9695058,-0.15230809,0.005311733,0.003769997,0.026131447,0.018658916,inf,inf,inf,inf,1,1,1,1,2,3,2,5,0,0,0
32337437476,0,0.0,0.0,0.53211784,0.24383152,-0.8890676,0.40435395,0.40920234,0.07055831,-0.08468125,-0.019748664,0.17736645,0.17742187,-0.0027771294,-0.005445751,0.0009939618,0.20439741,0.051772404,0.5948862,-3.051914,0.0,0.9526673,-0.17736645,0.0052187974,0.003704889,0.025860036,0.018482473,inf,inf,inf,inf,1,1,1,1,2,3,2,5,0,0,0
32337541470,0,0.0,0.0,0.5245197,0.24468844,-0.8670326,0.40435395,0.40920234,0.07055831,-0.08279918,-0.012440423,0.19500437,0.19752857,-0.0027771294,-0.005445751,0.0009939618,0.85535204,-1.0911686,-0.67265147,-3.0475671,0.0,0.9306323,-0.19500437,0.0052815606,0.0037515943,0.026024554,0.018614864,inf,inf,inf,inf,1,1,1,1,2,3,2,5,0,0,0
32337645470,0,0.0,0.0,0.51696575,0.24555945,-0.84452397,0.40435395,0.40920234,0.07055831,-0.07683446,-0.019173926,0.18418802,0.18866178,-0.0027771294,-0.005445751,0.0009939618,-0.5183145,0.03476967,-0.23372595,-3.0423574,0.0,0.9081237,-0.18418802,0.0053893444,0.0038297162,0.026363675,0.018853078,inf,inf,inf,inf,1,1,1,1,2,3,2,5,0,0,0
32337749521,0,0.0,0.0,0.5097345,0.24644461,-0.8240798,0.40435395,0.40920234,0.07055831,-0.07584619,-0.008238481,0.16763286,0.17240395,-0.0027771294,-0.005445751,0.0009939618,-1.2212441,2.6358347,-1.6902081,-3.035733,0.0,0.8876795,-0.16763286,0.005091051,0.0036152329,0.02559375,0.018258695,inf,inf,inf,inf,1,1,1,1,2,3,2,5,0,0,0
32337848676,0,0.0,0.0,0.5033645,0.24633381,-0.80712825,0.40435395,0.40920234,0.07055831,-0.06925817,-0.020233067,0.16469616,0.16789754,-0.0027771294,-0.005445751,0.0009939618,-1.7595562,-1.8993446,-1.0212463,-3.027272,0.0,0.87072796,-0.16469616,0.005059785,0.0035911847,0.025591562,0.01822476,inf,inf,inf,inf,1,1,1,1,2,3,2,5,0,0,0
32337952680,0,0.0,0.0,0.49712515,0.24462993,-0.7916253,0.40435395,0.40920234,0.07055831,-0.068393305,-0.015628202,0.16135022,0.16160262,-0.0027771294,-0.005445751,0.0009939618,-2.847401,0.30909893,-0.0009988048,-3.0177767,0.0,0.855225,-0.16135022,0.0051911077,0.0036822264,0.026060507,0.018510265,inf,inf,inf,inf,1,1,1,1,2,3,2,5,0,0,0
32338056670,0,0.0,0.0,0.4915511,0.2414598,-0.7777545,0.40435395,0.40920234,0.07055831,-0.05262045,-0.023429656,0.17022905,0.16716896,-0.0027771294,-0.005445751,0.0009939618,-0.7010962,1.1257519,0.6970355,-3.010241,0.0,0.8413542,-0.17022905,0.0052578794,0.0037270407,0.026178623,0.018594926,inf,inf,inf,inf,1,1,1,1,2,3,2,5,0,0,0
32338152676,0,0.0,0.0,0.48713914,0.23764987,-0.76474726,0.40435395,0.40920234,0.07055831,-0.046671204,-0.0277603,0.17704955,0.1716054,-0.0027771294,-0.005445751,0.0009939618,0.79523957,2.9512208,-1.7899102,-3.0058317,0.0,0.82834697,-0.17704955,0.005169822,0.0036633518,0.025860913,0.018383712,inf,inf,inf,inf,1,1,1,1,2,3,2,5,0,0,0
32338259869,0,0.0,0.0,0.48266432,0.23161948,-0.7471939,0.40435395,0.40920234,0.07055831,-0.043755047,-0.045180164,0.21085468,0.2041327,-0.0027771294,-0.005445751,0.0009939618,2.4482195,-0.09401968,0.544293,-3.0018992,0.0,0.8107936,-0.21085468,0.0052270275,0.0037044436,0.025981065,0.018482557,inf,inf,inf,inf,1,1,1,1,2,3,2,5,0,0,0
32338355884,0,0.0,0.0,0.47927552,0.22534436,-0.72818726,0.40435395,0.40920234,0.07055831,-0.04138502,-0.042709682,0.2322423,0.225965,-0.0027771294,-0.005445751,0.0009939618,2.861699,-0.7964751,1.7067335,-3.0007622,0.0,0.79178697,-0.2322423,0.0052041067,0.003689533,0.025978703,0.01851404,inf,inf,inf,inf,1,1,1,1,2,3,2,5,0,0,0
32338459869,0,0.0,0.0,0.4763071,0.21764252,-0.7038595,0.40435395,0.40920234,0.07055831,-0.041911457,-0.06528209,0.24016002,0.23560539,-0.0027771294,-0.005445751,0.0009939618,-1.5422931,-1.5466523,-1.4880917,-3.0030863,0.0,0.7674592,-0.24016002,0.0053185965,0.0037722064,0.026311727,0.018746778,inf,inf,inf,inf,1,1,1,1,2,3,2,5,0,0,0
32338563903,0,0.0,0.0,0.47412506,0.21021067,-0.6783139,0.40435395,0.40920234,0.07055831,-0.026870336,-0.04376317,0.22773273,0.2252115,-0.0027771294,-0.005445751,0.0009939618,1.0439035,4.598022,-0.15406875,-3.0043933,0.0,0.7419136,-0.22773273,0.005396776,0.0038287323,0.026471594,0.018866599,inf,inf,inf,inf,1,1,1,1,2,3,2,5,0,0,0
32338659870,0,0.0,0.0,0.47271478,0.20397417,-0.6576283,0.40435395,0.40920234,0.07055831,-0.0133185815,-0.042432725,0.18344098,0.18205073,-0.0027771294,-0.005445751,0.0009939618,1.4265956,3.017906,-0.80145615,-3.0036166,0.0,0.721228,-0.18344098,0.005294023,0.0037558947,0.02614489,0.018629305,inf,inf,inf,inf,1,1,1,1,2,3,2,5,0,0,0
32338763083,0,0.0,0.0,0.47205096,0.1992951,-0.6412451,0.40435395,0.40920234,0.07055831,-0.0073809335,-0.0232872,0.13464175,0.13246427,-0.0027771294,-0.005445751,0.0009939618,-1.8640448,0.43959123,-1.717094,-3.004765,0.0,0.70484483,-0.13464175,0.0053291596,0.003780102,0.026237518,0.01866009,inf,inf,inf,inf,1,1,1,1,2,3,2,5,0,0,0
32338867112,0,0.0,0.0,0.47232974,0.19736938,-0.6335114,0.40435395,0.40920234,0.07055831,0.0039028418,0.00032499913,0.071796276,0.06645576,-0.0027771294,-0.005445751,0.0009939618,-0.87954336,0.61008614,0.16143498,-3.0062003,0.0,0.6971111,-0.071796276,0.005376528,0.0038114982,0.02642856,0.018767117,inf,inf,inf,inf,1,1,1,1,2,3,2,5,0,0,0
32338971070,0,0.0,0.0,0.47273156,0.19929555,-0.63498324,0.40435395,0.40920234,0.07055831,0.020750837,0.030052993,-0.0022644063,-0.012162827,-0.0027771294,-0.005445751,0.0009939618,1.2245536,-0.5207508,-0.2937839,-3.0063508,0.0,0.69858295,0.0022644063,0.0051474534,0.0036459062,0.025977831,0.018398471,inf,inf,inf,inf,1,1,1,1,2,3,2,5,0,0,0
32339075087,0,0.0,0.0,0.47354355,0.20638111,-0.6454973,0.40435395,0.40920234,0.07055831,0.01813473,0.06623089,-0.07000363,-0.084725074,-0.0027771294,-0.005445751,0.0009939618,-1.3686271,-0.93268496,-2.0799036,-3.007464,0.0,0.709097,0.07000363,0.005194949,0.0036767842,0.026013197,0.01840387,inf,inf,inf,inf,1,1,1,1,2,3,2,5,0,0,0
32339169519,0,0.0,0.0,0.47510117,0.21646194,-0.6623224,0.40435395,0.40920234,0.07055831,0.024651188,0.09215837,-0.12492517,-0.14361703,-0.0027771294,-0.005445751,0.0009939618,-0.5395192,0.32827374,-0.7868977,-3.007357,0.0,0.7259221,0.12492517,0.0051134666,0.0036169246,0.025814546,0.018249994,inf,inf,inf,inf,1,1,1,1,2,3,2,5,0,0,0
32339274270,0,0.0,0.0,0.477244,0.23097742,-0.68537945,0.40435395,0.40920234,0.07055831,0.028604696,0.10854781,-0.16254437,-0.18408594,-0.0027771294,-0.005445751,0.0009939618,0.92811316,1.6921092,0.20182312,-3.0080976,0.0,0.74897915,0.16254437,0.005175225,0.0036593273,0.025984956,0.01836027,inf,inf,inf,inf,1,1,1,1,2,3,2,5,0,0,0
32339378293,0,0.0,0.0,0.47913703,0.24755345,-0.7098461,0.40435395,0.40920234,0.07055831,0.024816373,0.107287996,-0.17771332,-0.19991462,-0.0027771294,-0.005445751,0.0009939618,0.5309215,0.40609363,-0.20173036,-3.0102918,0.0,0.7734458,0.17771332,0.005229887,0.0036979434,0.02610322,0.018472875,inf,inf,inf,inf,1,1,1,1,2,3,2,5,0,0,0
32339482270,0,0.0,0.0,0.48005834,0.26337835,-0.73250335,0.40435395,0.40920234,0.07055831,0.010452634,0.10561473,-0.18343396,-0.20366052,-0.0027771294,-0.005445751,0.0009939618,-2.9116855,-0.015860343,-0.49617827,-3.0108898,0.0,0.79610306,0.18343396,0.0052933465,0.00374408,0.026230244,0.018598322,inf,inf,inf,inf,1,1,1,1,2,3,2,5,0,0,0
32339578285,0,0.0,0.0,0.47942144,0.27751386,-0.74980986,0.40435395,0.40920234,0.07055831,-0.0011283659,0.1015961,-0.16869739,-0.18485475,-0.0027771294,-0.005445751,0.0009939618,-1.6814737,-0.9523911,-0.32340825,-3.0116806,0.0,0.81340957,0.16869739,0.005252827,0.003717712,0.026136538,0.018567177,inf,inf,inf,inf,1,1,1,1,2,3,2,5,0,0,0
32339681499,0,0.0,0.0,0.4773199,0.29042307,-0.76311797,0.40435395,0.40920234,0.07055831,-0.0077744606,0.091733366,-0.13126205,-0.14138871,-0.0027771294,-0.005445751,0.0009939618,1.7683668,-1.6514959,0.1539376,-3.0117528,0.0,0.8267177,0.13126205,0.005350509,0.0037900445,0.026324272,0.018735811,inf,inf,inf,inf,1,1,1,1,2,3,2,5,0,0,0
32339785475,0,0.0,0.0,0.4734261,0.30048576,-0.76932913,0.40435395,0.40920234,0.07055831,-0.025231605,0.1039937,-0.10134138,-0.10434184,-0.0027771294,-0.005445751,0.0009939618,-0.91543967,2.3726118,-0.008248596,-3.0096784,0.0,0.83292884,0.10134138,0.0053946367,0.003824441,0.026345454,0.018787794,inf,inf,inf,inf,1,1,1,1,2,3,2,5,0,0,0
32339889484,0,0.0,0.0,0.46793854,0.3074921,-0.769221,0.40435395,0.40920234,0.07055831,-0.03530307,0.0802377,-0.07350201,-0.06896189,-0.0027771294,-0.005445751,0.0009939618,-0.38394016,1.451885,-0.37667167,-3.0089571,0.0,0.8328207,0.07350201,0.00507839,0.0036019767,0.025492107,0.01820207,inf,inf,inf,inf,1,1,1,1,2,3,2,5,0,0,0
32339985471,0,0.0,0.0,0.46217626,0.3110739,-0.7670023,0.40435395,0.40920234,0.07055831,-0.038499318,0.07079264,-0.061366655,-0.05050549,-0.0027771294,-0.005445751,0.0009939618,-1.2527894,1.6382179,-0.7142475,-3.0106125,0.0,0.830602,0.061366655,0.0053912057,0.0038278534,0.026352305,0.018834194,inf,inf,inf,inf,1,1,1,1,2,3,2,5,0,0,0
32340089470,0,0.0,0.0,0.4559095,0.31292677,-0.76393324,0.40435395,0.40920234,0.07055831,-0.027228313,0.051732637,-0.068544336,-0.052876364,-0.0027771294,-0.005445751,0.0009939618,-1.704726,-0.48081106,-0.2326224,-3.015625,0.0,0.82753295,0.068544336,0.005475982,0.0038897537,0.026587702,0.01898254,inf,inf,inf,inf,1,1,1,1,2,3,2,5,0,0,0
32340192687,0,0.0,0.0,0.45093963,0.3133015,-0.76314324,0.40435395,0.40920234,0.07055831,-0.0078005525,0.034950566,-0.08758738,-0.06986511,-0.0027771294,-0.005445751,0.0009939618,2.6694407,-1.271381,-1.458172,-3.025629,0.0,0.82674295,0.08758738,0.005536311,0.003932326,0.026736157,0.019076595,inf,inf,inf,inf,1,1,1,1,2,3,2,5,0,0,0
32340296670,0,0.0,0.0,0.44822928,0.31157464,-0.76771545,0.40435395,0.40920234,0.07055831,-0.00240331,0.01084784,-0.10078356,-0.08367633,-0.0027771294,-0.005445751,0.0009939618,2.043935,2.2539015,-0.057293266,-3.0347052,0.0,0.83131516,0.10078356,0.0051785265,0.0036748822,0.025803069,0.01838477,inf,inf,inf,inf,1,1,1,1,2,3,2,5,0,0,0
32340392670,0,0.0,0.0,0.44765684,0.30901057,-0.77670527,0.40435395,0.40920234,0.07055831,0.014407822,-0.0029851291,-0.13375847,-0.11920669,-0.0027771294,-0.005445751,0.0009939618,0.35450038,-2.9681814,0.52512974,-3.043868,0.0,0.840305,0.13375847,0.005113738,0.0036271494,0.025716947,0.018286718,inf,inf,inf,inf,1,1,1,1,2,3,2,5,0,0,0
32340496676,0,0.0,0.0,0.44960997,0.30544183,-0.79132396,0.40435395,0.40920234,0.07055831,0.03297191,-0.02428653,-0.15261605,-0.14204648,-0.0027771294,-0.005445751,0.0009939618,1.3312427,1.8107756,-1.0241772,-3.0554626,0.0,0.85492367,0.15261605,0.005199769,0.0036867945,0.025945399,0.018448386,inf,inf,inf,inf,1,1,1,1,2,3,2,5,0,0,0
32340599877,0,0.0,0.0,0.4547516,0.30119053,-0.8103497,0.40435395,0.40920234,0.07055831,0.047362614,-0.030687585,-0.16690148,-0.16049072,-0.0027771294,-0.005445751,0.0009939618,1.8643987,-1.1050335,2.0980208,-3.0640535,0.0,0.8739494,0.16690148,0.005309931,0.0037638182,0.026286732,0.018678647,inf,inf,inf,inf,1,1,1,1,2,3,2,5,0,0,0
32340703874,0,0.0,0.0,0.4626914,0.296552,-0.8317836,0.40435395,0.40920234,0.07055831,0.07160861,-0.036248155,-0.18722345,-0.18418096,-0.0027771294,-0.005445751,0.0009939618,3.6550133,1.7444905,0.6210124,-3.0695786,0.0,0.8953833,0.18722345,0.0053614927,0.0037997828,0.026343325,0.018725578,inf,inf,inf,inf,1,1,1,1,2,3,2,5,0,0,0
32340799870,0,0.0,0.0,0.47228613,0.29157922,-0.85221773,0.40435395,0.40920234,0.07055831,0.0733538,-0.048216544,-0.18101524,-0.18002498,-0.0027771294,-0.005445751,0.0009939618,-3.6311734,-3.6754665,1.0756569,-3.073233,0.0,0.91581744,0.18101524,0.0052519133,0.0037220006,0.026000053,0.018499702,inf,inf,inf,inf,1,1,1,1,2,3,2,5,0,0,0
32340903870,0,0.0,0.0,0.4838733,0.28620452,-0.8728528,0.40435395,0.40920234,0.07055831,0.08586991,-0.044338115,-0.1772669,-0.17718022,-0.0027771294,-0.005445751,0.0009939618,-0.8615081,0.22726913,-0.38066438,-3.0730875,0.0,0.9364525,0.1772669,0.0053284415,0.0037772027,0.026242642,0.018679516,inf,inf,inf,inf,1,1,1,1,2,3,2,5,0,0,0
32341007870,0,0.0,0.0,0.49568173,0.2810794,-0.8903379,0.40435395,0.40920234,0.07055831,0.08482112,-0.032010596,-0.15142104,-0.1508408,-0.0027771294,-0.005445751,0.0009939618,-1.1599311,0.8979597,0.64972126,-3.0698214,0.0,0.9539376,0.15142104,0.00505728,0.0035851998,0.025553484,0.01820097,inf,inf,inf,inf,1,1,1,1,2,3,2,5,0,0,0
32341111074,0,0.0,0.0,0.5066041,0.27743962,-0.90417206,0.40435395,0.40920234,0.07055831,0.07660853,-0.031410266,-0.13028228,-0.12807742,-0.0027771294,-0.005445751,0.0009939618,-0.21073397,-1.8962508,-0.35639423,-3.06514,0.0,0.96777177,0.13028228,0.005503099,0.0039046123,0.026653402,0.019014405,inf,inf,inf,inf,1,1,1,1,2,3,2,5,0,0,0
32341207078,0,0.0,0.0,0.5153812,0.27550977,-0.9141992,0.40435395,0.40920234,0.07055831,0.07993281,-0.008735059,-0.12754558,-0.12308256,-0.0027771294,-0.005445751,0.0009939618,1.4323647,0.08319403,-1.1343979,-3.060339,0.0,0.9777989,0.12754558,0.0054128626,0.0038418206,0.026415467,0.018857168,inf,inf,inf,inf,1,1,1,1,2,3,2,5,0,0,0
32341311070,0,0.0,0.0,0.52328634,0.27628312,-0.92217356,0.40435395,0.40920234,0.07055831,0.06499305,0.00031871066,-0.093532756,-0.086695366,-0.0027771294,-0.005445751,0.0009939618,3.5397298,1.0747463,1.7851496,-3.0558524,0.0,0.98577327,0.093532756,0.0051014004,0.003620486,0.025578635,0.018261263,inf,inf,inf,inf,1,1,1,1,2,3,2,5,0,0,0
32341415070,0,0.0,0.0,0.528961,0.2799169,-0.9276177,0.40435395,0.40920234,0.07055831,0.04609694,0.020449819,-0.07343578,-0.06486135,-0.0027771294,-0.005445751,0.0009939618,-0.24380009,-2.5239425,-0.065841004,-3.053734,0.0,0.99121743,0.07343578,0.0051762233,0.0036743768,0.025793878,0.018410943,inf,inf,inf,inf,1,1,1,1,2,3,2,5,0,0,0
32341518281,0,0.0,0.0,0.53162736,0.2872205,-0.9311072,0.40435395,0.40920234,0.07055831,0.037828483,0.053358953,-0.061386645,-0.051714215,-0.0027771294,-0.005445751,0.0009939618,2.4120553,2.948034,0.0063951854,-3.0521433,0.0,0.9947069,0.061386645,0.0052296347,0.0037128113,0.025932066,0.018509397,inf,inf,inf,inf,1,1,1,1,2,3,2,5,0,0,0
32341614270,0,0.0,0.0,0.53139704,0.29584587,-0.9333148,0.40435395,0.40920234,0.07055831,0.022429325,0.070314206,-0.04165809,-0.031567715,-0.0027771294,-0.005445751,0.0009939618,0.8032142,2.4553752,-0.13468046,-3.0532072,0.0,0.9969145,0.04165809,0.0051522204,0.0036575382,0.025743715,0.01837148,inf,inf,inf,inf,1,1,1,1,2,3,2,5,0,0,0
32341718278,0,0.0,0.0,0.5291145,0.30674484,-0.93492264,0.40435395,0.40920234,0.07055831,0.012587954,0.07895605,-0.03848732,-0.028569588,-0.0027771294,-0.005445751,0.0009939618,0.12568551,-3.2119396,-2.2606366,-3.0547113,0.0,0.99852234,0.03848732,0.0052121254,0.003700508,0.025901308,0.018490871,inf,inf,inf,inf,1,1,1,1,2,3,2,5,0,0,0
32341822270,0,0.0,0.0,0.5257459,0.31891626,-0.9364946,0.40435395,0.40920234,0.07055831,0.008244128,0.09440676,-0.02413062,-0.01490653,-0.0027771294,-0.005445751,0.0009939618,2.4972692,1.6283642,0.7245653,-3.056461,0.0,1.0000943,0.02413062,0.005295071,0.0037598473,0.026135933,0.018655926,inf,inf,inf,inf,1,1,1,1,2,3,2,5,0,0,0
32341926286,0,0.0,0.0,0.5226977,0.33158815,-0.93829185,0.40435395,0.40920234,0.07055831,0.0025297173,0.101019114,-0.02198101,-0.013954366,-0.0027771294,-0.005445751,0.0009939618,0.14487246,-2.5030522,-0.87875116,-3.0586972,0.0,1.0018916,0.02198101,0.0054006767,0.003835113,0.026441356,0.018864127,inf,inf,inf,inf,1,1,1,1,2,3,2,5,0,0,0
32342029488,0,0.0,0.0,0.52031195,0.34336182,-0.9394878,0.40435395,0.40920234,0.07055831,0.0013784143,0.08936549,-0.0031610457,0.003343628,-0.0027771294,-0.005445751,0.0009939618,0.79476523,0.21929242,0.24069537,-3.061516,0.0,1.0030875,0.0031610457,0.005099667,0.0036190238,0.025625942,0.01827237,inf,inf,inf,inf,1,1,1,1,2,3,2,5,0,0,0
32342125481,0,0.0,0.0,0.5186041,0.35237598,-0.939784,0.40435395,0.40920234,0.07055831,0.003663376,0.07906701,-0.0032433507,0.0019479298,-0.0027771294,-0.005445751,0.0009939618,-0.65548414,-1.2074653,-1.71929,-3.0671697,0.0,1.0033836,0.0032433507,0.005354449,0.003800704,0.026216257,0.01870718,inf,inf,inf,inf,1,1,1,1,2,3,2,5,0,0,0
32342229477,0,0.0,0.0,0.5177766,0.35957867,-0.9406548,0.40435395,0.40920234,0.07055831,0.0053279526,0.06324761,-0.012529377,-0.008395878,-0.0027771294,-0.005445751,0.0009939618,1.1899116,-1.8964045,0.4891622,-3.072056,0.0,1.0042546,0.012529377,0.005441393,0.0038633633,0.026494734,0.018909957,inf,inf,inf,inf,1,1,1,1,2,3,2,5,0,0,0
32342333501,0,0.0,0.0,0.5179893,0.36336145,-0.9447758,0.40435395,0.40920234,0.07055831,-0.008504879,0.039922908,-0.044521235,-0.0415128,-0.0027771294,-0.005445751,0.0009939618,-0.15298925,2.3413808,-1.1006519,-3.075122,0.0,1.0083755,0.044521235,0.005142816,0.003649816,0.025744712,0.018361505,inf,inf,inf,inf,1,1,1,1,2,3,2,5,0,0,0
32342428670,0,0.0,0.0,0.51796174,0.36403677,-0.9512564,0.40435395,0.40920234,0.07055831,-0.029650016,0.016110728,-0.055737503,-0.054520834,-0.0027771294,-0.005445751,0.0009939618,0.30347282,-2.6135473,-1.3659322,-3.0784125,0.0,1.0148561,0.055737503,0.005467681,0.0038812647,0.026647445,0.018979121,inf,inf,inf,inf,1,1,1,1,2,3,2,5,0,0,0
32342532670,0,0.0,0.0,0.5156215,0.36055225,-0.96043324,0.40435395,0.40920234,0.07055831,-0.06915388,-0.010957437,-0.0708968,-0.07238506,-0.0027771294,-0.005445751,0.0009939618,-1.3091723,-2.638434,1.5693747,-3.0797534,0.0,1.024033,0.0708968,0.005153774,0.0036548919,0.025813913,0.01835201,inf,inf,inf,inf,1,1,1,1,2,3,2,5,0,0,0
32342636670,0,0.0,0.0,0.50972855,0.35470784,-0.9727735,0.40435395,0.40920234,0.07055831,-0.096557334,-0.014189367,-0.0989942,-0.10312498,-0.0027771294,-0.005445751,0.0009939618,1.6645262,3.1283526,-0.9737116,-3.0836656,0.0,1.0363731,0.0989942,0.005271621,0.0037381358,0.02621262,0.01865188,inf,inf,inf,inf,1,1,1,1,2,3,2,5,0,0,0
32342740680,0,0.0,0.0,0.50059325,0.3463634,-0.98825616,0.40435395,0.40920234,0.07055831,-0.11427306,-0.023858732,-0.1261221,-0.1324935,-0.0027771294,-0.005445751,0.0009939618,-0.4155107,1.7354877,-1.7021568,-3.089066,0.0,1.0518558,0.1261221,0.0050572422,0.003584794,0.025655158,0.018237896,inf,inf,inf,inf,1,1,1,1,2,3,2,5,0,0,0
32342844676,0,0.0,0.0,0.48896733,0.33771458,-1.0050088,0.40435395,0.40920234,0.07055831,-0.12469788,-0.032730192,-0.122321576,-0.13047864,-0.0027771294,-0.005445751,0.0009939618,-0.9661264,0.18160605,0.23319384,-3.0973825,0.0,1.0686085,0.122321576,0.005154308,0.0036532006,0.025859544,0.018379467,inf,inf,inf,inf,1,1,1,1,2,3,2,5,0,0,0
32342939869,0,0.0,0.0,0.4755846,0.32913378,-1.019833,0.40435395,0.40920234,0.07055831,-0.13790223,-0.04525523,-0.11813648,-0.12726942,-0.0027771294,-0.005445751,0.0009939618,-2.4948905,-3.499279,-0.8105624,-3.1077256,0.0,1.0834327,0.11813648,0.00514293,0.0036445863,0.025850967,0.018374303,inf,inf,inf,inf,1,1,1,1,2,3,2,5,0,0,0
32343043870,0,0.0,0.0,0.45825043,0.32047132,-1.0336738,0.40435395,0.40920234,0.07055831,-0.11728503,-0.03498299,-0.11474251,-0.12354318,-0.0027771294,-0.005445751,0.0009939618,-0.86973804,1.911795,-1.1956366,-3.118786,0.0,1.0972735,0.11474251,0.005186597,0.0036759377,0.025825802,0.018373717,inf,inf,inf,inf,1,1,1,1,2,3,2,5,0,0,0
32343147894,0,0.0,0.0,0.43995035,0.31223348,-1.0450958,0.40435395,0.40920234,0.07055831,-0.112858236,-0.047684804,-0.10153562,-0.108420305,-0.0027771294,-0.005445751,0.0009939618,1.6995697,1.5581148,-1.8621914,-3.129228,0.0,1.1086955,0.10153562,0.005223014,0.0037033586,0.025873328,0.018441679,inf,inf,inf,inf,1,1,1,1,2,3,2,5,0,0,0
32343251870,0,0.0,0.0,0.42357233,0.30505997,-1.0543207,0.40435395,0.40920234,0.07055831,-0.10350144,-0.03586848,-0.09227782,-0.09646663,-0.0027771294,-0.005445751,0.0009939618,0.5292894,0.7215541,-0.79107827,-3.136194,0.0,1.1179204,0.09227782,0.0049897656,0.003538518,0.025384407,0.01809947,inf,inf,inf,inf,1,1,1,1,2,3,2,5,0,0,0
32343356699,0,0.0,0.0,0.41071072,0.2998626,-1.0607046,0.40435395,0.40920234,0.07055831,-0.09202897,-0.028995208,-0.083593,-0.08517268,-0.0027771294,-0.005445751,0.0009939618,-0.761676,3.0520751,-1.1470731,-3.138873,0.0,1.1243043,0.083593,0.005126687,0.0036371693,0.025762023,0.018364936,inf,inf,inf,inf,1,1,1,1,2,3,2,5,0,0,0
32343459083,0,0.0,0.0,0.40315467,0.29642418,-1.0655888,0.40435395,0.40920234,0.07055831,-0.06737572,-0.022166047,-0.061491758,-0.06084591,-0.0027771294,-0.005445751,0.0009939618,2.488442,2.1941218,-0.17775036,-3.1370273,0.0,1.1291885,0.061491758,0.005228013,0.0037096285,0.025987461,0.018529603,inf,inf,inf,inf,1,1,1,1,2,3,2,5,0,0,0
32343563070,0,0.0,0.0,0.40012628,0.2948464,-1.0696375,0.40435395,0.40920234,0.07055831,-0.04928432,-0.018037906,-0.056811243,-0.054499887,-0.0027771294,-0.005445751,0.0009939618,3.552125,-1.6139717,1.1474109,-3.1302702,0.0,1.1332372,0.056811243,0.0052841,0.0037494302,0.02609423,0.018602073,inf,inf,inf,inf,1,1,1,1,2,3,2,5,0,0,0
32343659075,0,0.0,0.0,0.4003188,0.29471096,-1.0729965,0.40435395,0.40920234,0.07055831,-0.03381098,0.0062692086,-0.06070977,-0.057495188,-0.0027771294,-0.005445751,0.0009939618,-0.30900732,1.114646,-1.4527287,-3.1207252,0.0,1.1365962,0.06070977,0.005258594,0.0037316736,0.026075708,0.018590994,inf,inf,inf,inf,1,1,1,1,2,3,2,5,0,0,0
32343763070,0,0.0,0.0,0.40306783,0.295455,-1.0779583,0.40435395,0.40920234,0.07055831,-0.008204728,0.0078585595,-0.06830775,-0.06477804,-0.0027771294,-0.005445751,0.0009939618,1.8832283,0.93213516,-1.9084778,-3.1077816,0.0,1.141558,0.06830775,0.005320087,0.0037752024,0.026190178,0.018670427,inf,inf,inf,inf,1,1,1,1,2,3,2,5,0,0,0
32343862287,0,0.0,0.0,0.4068634,0.29665595,-1.0834789,0.40435395,0.40920234,0.07055831,-0.003814281,0.009778441,-0.06556378,-0.06247791,-0.0027771294,-0.005445751,0.0009939618,2.6799376,2.228289,-0.04917023,-3.0946355,0.0,1.1470786,0.06556378,0.0053144917,0.0037711042,0.026302548,0.018735744,inf,inf,inf,inf,1,1,1,1,2,3,2,5,0,0,0
32343966270,0,0.0,0.0,0.41205084,0.29794645,-1.0904526,0.40435395,0.40920234,0.07055831,0.0012725084,-0.0081090955,-0.062479917,-0.060377,-0.0027771294,-0.005445751,0.0009939618,-1.1122677,-4.2983594,0.9683798,-3.0825539,0.0,1.1540523,0.062479917,0.0054821623,0.0038899027,0.026873874,0.019111047,inf,inf,inf,inf,1,1,1,1,2,3,2,5,0,0,0
32344070269,0,0.0,0.0,0.4173933,0.29798716,-1.0981764,0.40435395,0.40920234,0.07055831,0.015354531,-0.01465716,-0.07228478,-0.07116156,-0.0027771294,-0.005445751,0.0009939618,-0.11911206,-1.238092,1.664069,-3.071554,0.0,1.1617761,0.07228478,0.0051317406,0.0036379294,0.025802953,0.018346095,inf,inf,inf,inf,1,1,1,1,2,3,2,5,0,0,0
32344174270,0,0.0,0.0,0.42175367,0.296546,-1.104834,0.40435395,0.40920234,0.07055831,0.0056994837,-0.014399796,-0.040643234,-0.040258516,-0.0027771294,-0.005445751,0.0009939618,-2.5986934,1.4113561,0.80489033,-3.0632324,0.0,1.1684337,0.040643234,0.0051759426,0.0036690556,0.025845235,0.01838614,inf,inf,inf,inf,1,1,1,1,2,3,2,5,0,0,0
32344269476,0,0.0,0.0,0.4240248,0.29306257,-1.1075898,0.40435395,0.40920234,0.07055831,0.019925565,-0.024532825,-0.003850665,-0.0036556718,-0.0027771294,-0.005445751,0.0009939618,3.2428758,4.5730424,-0.3393805,-3.0573707,0.0,1.1711895,0.003850665,0.005449907,0.0038643272,0.026531074,0.018891016,inf,inf,inf,inf,1,1,1,1,2,3,2,5,0,0,0
32344373470,0,0.0,0.0,0.4243043,0.28676382,-1.1053809,0.40435395,0.40920234,0.07055831,0.011196267,-0.04287215,0.025370413,0.026539106,-0.0027771294,-0.005445751,0.0009939618,1.1907654,0.8184084,-1.4467956,-3.0523264,0.0,1.1689806,-0.025370413,0.005123815,0.003633375,0.025645714,0.01828916,inf,inf,inf,inf,1,1,1,1,2,3,2,5,0,0,0
32344477481,0,0.0,0.0,0.42329708,0.27793297,-1.0987748,0.40435395,0.40920234,0.07055831,-0.00048908126,-0.07007657,0.06393911,0.06728441,-0.0027771294,-0.005445751,0.0009939618,0.29257587,-3.810004,-0.0075485175,-3.048118,0.0,1.1623745,-0.06393911,0.0051876353,0.003681324,0.025780914,0.01842813,inf,inf,inf,inf,1,1,1,1,2,3,2,5,0,0,0
32344581495,0,0.0,0.0,0.42140758,0.26761326,-1.0885736,0.40435395,0.40920234,0.07055831,0.0021008134,-0.06919892,0.06347529,0.06934305,-0.0027771294,-0.005445751,0.0009939618,-1.8073192,0.496616,-1.4620007,-3.047358,0.0,1.1521733,-0.06347529,0.0052961456,0.0037613676,0.026128236,0.018679766,inf,inf,inf,inf,1,1,1,1,2,3,2,5,0,0,0
32344677469,0,0.0,0.0,0.4195561,0.25755218,-1.0773649,0.40435395,0.40920234,0.07055831,0.0056537874,-0.06508993,0.10120709,0.10872896,-0.0027771294,-0.005445751,0.0009939618,2.74504,2.0068254,0.24168372,-3.048569,0.0,1.1409646,-0.10120709,0.005217684,0.003706107,0.025907911,0.018517954,inf,inf,inf,inf,1,1,1,1,2,3,2,5,0,0,0
32344784679,0,0.0,0.0,0.41807973,0.24541941,-1.0629098,0.40435395,0.40920234,0.07055831,0.015265014,-0.07837731,0.12664892,0.13470753,-0.0027771294,-0.005445751,0.0009939618,-1.1791388,0.05683944,0.7373915,-3.047381,0.0,1.1265095,-0.12664892,0.005329876,0.0037861809,0.02625505,0.01874319,inf,inf,inf,inf,1,1,1,1,2,3,2,5,0,0,0
32344888670,0,0.0,0.0,0.41705048,0.23330994,-1.0459952,0.40435395,0.40920234,0.07055831,0.030892802,-0.07605936,0.15182565,0.15947671,-0.0027771294,-0.005445751,0.0009939618,0.2212939,2.2275312,-1.0046806,-3.0481467,0.0,1.109595,-0.15182565,0.0051230458,0.003637246,0.025888853,0.0184447,inf,inf,inf,inf,1,1,1,1,2,3,2,5,0,0,0
32344984703,0,0.0,0.0,0.41751856,0.22241868,-1.0298324,0.40435395,0.40920234,0.07055831,0.025608484,-0.089954674,0.16059542,0.16749589,-0.0027771294,-0.005445751,0.0009939618,-3.1042297,-0.46350014,-0.9124941,-3.0467691,0.0,1.0934321,-0.16059542,0.0053857625,0.0038233432,0.026433466,0.018847203,inf,inf,inf,inf,1,1,1,1,2,3,2,5,0,0,0
32345088681,0,0.0,0.0,0.42000628,0.21142508,-1.0126235,0.40435395,0.40920234,0.07055831,0.042360067,-0.10373328,0.15831524,0.16403961,-0.0027771294,-0.005445751,0.0009939618,-2.064213,-1.2893379,1.2922418,-3.045662,0.0,1.0762233,-0.15831524,0.0054400642,0.003861745,0.026531432,0.018912828,inf,inf,inf,inf,1,1,1,1,2,3,2,5,0,0,0
32345190276,0,0.0,0.0,0.4246385,0.20108624,-0.9968541,0.40435395,0.40920234,0.07055831,0.0584428,-0.08217621,0.15685381,0.16077448,-0.0027771294,-0.005445751,0.0009939618,-0.7120267,1.7607574,-2.6545045,-3.044689,0.0,1.0604539,-0.15685381,0.0051290225,0.0036390643,0.025729906,0.018337986,inf,inf,inf,inf,1,1,1,1,2,3,2,5,0,0,0
32345291870,0,0.0,0.0,0.43197083,0.19289777,-0.9825103,0.40435395,0.40920234,0.07055831,0.0764613,-0.073550396,0.15509088,0.15668727,-0.0027771294,-0.005445751,0.0009939618,0.15080535,1.6224896,0.980839,-3.0459409,0.0,1.04611,-0.15509088,0.0051767584,0.0036724599,0.025835035,0.018402874,inf,inf,inf,inf,1,1,1,1,2,3,2,5,0,0,0
32345395901,0,0.0,0.0,0.441745,0.18524188,-0.9692641,0.40435395,0.40920234,0.07055831,0.086614706,-0.070766725,0.14439172,0.14334369,-0.0027771294,-0.005445751,0.0009939618,-0.7843002,0.80144316,-1.3131791,-3.0490806,0.0,1.0328639,-0.14439172,0.005156978,0.003658329,0.02567869,0.01831337,inf,inf,inf,inf,1,1,1,1,2,3,2,5,0,0,0
32345491871,0,0.0,0.0,0.45219716,0.18012492,-0.9590895,0.40435395,0.40920234,0.07055831,0.09613785,-0.042452317,0.13208936,0.12867256,-0.0027771294,-0.005445751,0.0009939618,-1.9753277,0.88491005,-0.5935587,-3.0529299,0.0,1.0226892,-0.13208936,0.005087124,0.0036093947,0.025558792,0.018233508,inf,inf,inf,inf,1,1,1,1,2,3,2,5,0,0,0
32345595881,0,0.0,0.0,0.46431318,0.17610464,-0.94967693,0.40435395,0.40920234,0.07055831,0.11429162,-0.045278657,0.12101229,0.115292996,-0.0027771294,-0.005445751,0.0009939618,0.8044947,-0.7619493,-0.20837243,-3.0574152,0.0,1.0132766,-0.12101229,0.0051892954,0.0036825272,0.025912317,0.018461924,inf,inf,inf,inf,1,1,1,1,2,3,2,5,0,0,0
32345698322,0,0.0,0.0,0.4755801,0.17307758,-0.9418092,0.40435395,0.40920234,0.07055831,0.11338203,-0.021637067,0.110036716,0.1022529,-0.0027771294,-0.005445751,0.0009939618,0.6831159,1.9059193,-0.90145826,-3.0603821,0.0,1.0054089,-0.110036716,0.005240839,0.0037182923,0.026022775,0.01853349,inf,inf,inf,inf,1,1,1,1,2,3,2,5,0,0,0
