timestamp,ref_timestamp,ref_lat,ref_lon,x,y,z,delta_xy[0],delta_xy[1],delta_z,vx,vy,vz,z_deriv,delta_vxy[0],delta_vxy[1],delta_vz,ax,ay,az,yaw,ref_alt,dist_bottom,dist_bottom_rate,eph,epv,evh,evv,vxy_max,vz_max,hagl_min,hagl_max,xy_valid,z_valid,v_xy_valid,v_z_valid,xy_reset_counter,z_reset_counter,vxy_reset_counter,vz_reset_counter,xy_global,z_global,dist_bottom_valid
66662669,0,0.0,0.0,0.32040942,0.39815027,-0.03480958,0.30814168,0.4012223,-0.2562831,-0.009951037,-0.0011823997,0.010149094,0.0028650495,-0.0011462775,-0.00034762072,-0.0010003077,-0.034673188,-0.0029277806,0.01926126,-3.0854337,0.0,0.1,-0.010149094,0.0057838527,0.003966616,0.026692335,0.017658744,inf,inf,inf,inf,1,1,1,1,2,1,2,3,0,0,0
66765902,0,0.0,0.0,0.32033715,0.39812067,-0.035127137,0.30814168,0.4012223,-0.2562831,-0.009075458,-0.00090932974,0.009576494,0.0021780315,-0.0011462775,-0.00034762072,-0.0010003077,-0.021612234,0.011095996,0.022369796,-3.0854216,0.0,0.1,-0.009576494,0.005190637,0.0035744784,0.02573659,0.017090987,inf,inf,inf,inf,1,1,1,1,2,1,2,3,0,0,0
66869920,0,0.0,0.0,0.3202762,0.39815217,-0.035416555,0.30814168,0.4012223,-0.2562831,-0.00924742,-0.00082288496,0.009294602,0.0018691341,-0.0011462775,-0.00034762072,-0.0010003077,-0.020533042,0.0034471122,0.04475884,-3.085417,0.0,0.1,-0.009294602,0.0051624817,0.0035510466,0.025888475,0.017180126,inf,inf,inf,inf,1,1,1,1,2,1,2,3,0,0,0
66973919,0,0.0,0.0,0.32022893,0.39817864,-0.035688583,0.30814168,0.4012223,-0.2562831,-0.009054764,-0.0008802973,0.008893486,0.0014987639,-0.0011462775,-0.00034762072,-0.0010003077,-0.037613295,0.0066842744,0.017620476,-3.0854084,0.0,0.1,-0.008893486,0.0052251997,0.0035878376,0.026143199,0.017328672,inf,inf,inf,inf,1,1,1,1,2,1,2,3,0,0,0
67069869,0,0.0,0.0,0.32022965,0.39814878,-0.035864994,0.30814168,0.4012223,-0.2562831,-0.0073840334,-0.0020100814,0.009924125,0.0026010876,-0.0011462775,-0.00034762072,-0.0010003077,0.42667198,-0.044365264,0.14350396,-3.0852456,0.0,0.1,-0.009924125,0.0051730038,0.0035530499,0.025977204,0.017232144,inf,inf,inf,inf,1,1,1,1,2,1,2,3,0,0,0
67173879,0,0.0,0.0,0.32025394,0.39810878,-0.03592764,0.30814168,0.4012223,-0.2562831,-0.0072626183,-0.001543367,0.0100744935,0.0028417185,-0.0011462775,-0.00034762072,-0.0010003077,0.20621906,-0.049000382,0.07588485,-3.0851614,0.0,0.1,-0.0100744935,0.0052676895,0.0036142787,0.026168343,0.01734723,inf,inf,inf,inf,1,1,1,1,2,1,2,3,0,0,0
67277868,0,0.0,0.0,0.32027876,0.39806262,-0.03595421,0.30814168,0.4012223,-0.2562831,-0.008287296,-0.002083998,0.009556388,0.0024369808,-0.0011462775,-0.00034762072,-0.0010003077,0.05648882,-0.02450756,0.015826052,-3.0848978,0.0,0.1,-0.009556388,0.005341845,0.0036630358,0.026291018,0.017422471,inf,inf,inf,inf,1,1,1,1,2,1,2,3,0,0,0
67373899,0,0.0,0.0,0.32039186,0.3980336,-0.035995707,0.30814168,0.4012223,-0.2562831,-0.0074405936,-0.00017669378,0.009288606,0.002273825,-0.0011462775,-0.00034762072,-0.0010003077,-0.11349629,-0.3947526,0.0049443035,-3.0858486,0.0,0.1,-0.009288606,0.005285989,0.0036270053,0.02614167,0.017333398,inf,inf,inf,inf,1,1,1,1,2,1,2,3,0,0,0
67477884,0,0.0,0.0,0.3205418,0.39794216,-0.03605041,0.30814168,0.4012223,-0.2562831,-0.0054249405,-0.003561725,0.007728092,0.00080323464,-0.0011462775,-0.00034762072,-0.0010003077,-0.26994357,-0.2738417,-0.15521601,-3.0848596,0.0,0.1,-0.007728092,0.0053276876,0.0036551778,0.026185485,0.017358916,inf,inf,inf,inf,1,1,1,1,2,1,2,3,0,0,0
67581914,0,0.0,0.0,0.32084543,0.39801806,-0.036165956,0.30814168,0.4012223,-0.2562831,-0.0089915935,-0.0039045424,0.009978049,0.0031097236,-0.0011462775,-0.00034762072,-0.0010003077,-0.54874146,-0.2275492,0.051547486,-3.0860517,0.0,0.1,-0.009978049,0.005368647,0.0036823722,0.026253093,0.017397074,inf,inf,inf,inf,1,1,1,1,2,1,2,3,0,0,0
67677874,0,0.0,0.0,0.32099128,0.39810935,-0.036135077,0.30814168,0.4012223,-0.2562831,-0.004102473,0.004508293,0.010708281,0.003860422,-0.0011462775,-0.00034762072,-0.0010003077,0.40882868,0.6169574,-0.08034751,-3.0862775,0.0,0.1,-0.010708281,0.005191693,0.0035693105,0.025746804,0.017098822,inf,inf,inf,inf,1,1,1,1,2,1,2,3,0,0,0
67781076,0,0.0,0.0,0.3210771,0.39833897,-0.036049396,0.30814168,0.4012223,-0.2562831,-0.0072882357,-0.0023856575,0.011478935,0.0046710363,-0.0011462775,-0.00034762072,-0.0010003077,-0.25374988,-0.36309233,-0.042226333,-3.0851724,0.0,0.1,-0.011478935,0.005194261,0.0035702945,0.025808621,0.017132655,inf,inf,inf,inf,1,1,1,1,2,1,2,3,0,0,0
67885071,0,0.0,0.0,0.3211109,0.39850175,-0.03588773,0.30814168,0.4012223,-0.2562831,-0.005117962,9.0236994e-05,0.0120017715,0.0052366005,-0.0011462775,-0.00034762072,-0.0010003077,0.51950645,-0.6621615,-0.07301466,-3.0852187,0.0,0.1,-0.0120017715,0.0052688867,0.0036159733,0.026108006,0.017300405,inf,inf,inf,inf,1,1,1,1,2,1,2,3,0,0,0
67989069,0,0.0,0.0,0.32101077,0.3984644,-0.035755396,0.30814168,0.4012223,-0.2562831,-0.0074057262,0.003321379,0.011863891,0.0051250984,-0.0011462775,-0.00034762072,-0.0010003077,0.26971036,1.3335587,0.18277162,-3.0853963,0.0,0.1,-0.011863891,0.005322429,0.0036504671,0.026224762,0.017372582,inf,inf,inf,inf,1,1,1,1,2,1,2,3,0,0,0
68085077,0,0.0,0.0,0.3208616,0.39845577,-0.03562377,0.30814168,0.4012223,-0.2562831,-0.008075433,-0.0010980848,0.012662756,0.005890944,-0.0011462775,-0.00034762072,-0.0010003077,-0.43248183,0.6778081,-0.11758307,-3.085885,0.0,0.1,-0.012662756,0.0052467687,0.0036009229,0.026051361,0.01726943,inf,inf,inf,inf,1,1,1,1,2,1,2,3,0,0,0
68189084,0,0.0,0.0,0.32072023,0.3983507,-0.03546474,0.30814168,0.4012223,-0.2562831,-0.007927353,-0.0006196458,0.012384239,0.005555315,-0.0011462775,-0.00034762072,-0.0010003077,0.14130053,-0.28497803,-0.004050856,-3.085778,0.0,0.1,-0.012384239,0.0053593535,0.0036728103,0.02635463,0.01744368,inf,inf,inf,inf,1,1,1,1,2,1,2,3,0,0,0
68293098,0,0.0,0.0,0.32063407,0.39816022,-0.035300743,0.30814168,0.4012223,-0.2562831,-0.005123974,-0.0035419248,0.011731923,0.0048398017,-0.0011462775,-0.00034762072,-0.0010003077,0.24378097,-0.5854923,-0.17488275,-3.0856843,0.0,0.1,-0.011731923,0.005451306,0.0037320736,0.026580084,0.017575942,inf,inf,inf,inf,1,1,1,1,2,1,2,3,0,0,0
68389075,0,0.0,0.0,0.32059205,0.39807308,-0.035199013,0.30814168,0.4012223,-0.2562831,-0.0055730958,-0.0020032001,0.010848431,0.0038966315,-0.0011462775,-0.00034762072,-0.0010003077,0.28774747,-0.44367653,-0.098855294,-3.0853643,0.0,0.1,-0.010848431,0.0053691906,0.0036798026,0.026331296,0.017430382,inf,inf,inf,inf,1,1,1,1,2,1,2,3,0,0,0
68491508,0,0.0,0.0,0.3206035,0.39805967,-0.035221692,0.30814168,0.4012223,-0.2562831,-0.004315908,-0.0020501718,0.011878444,0.0048571196,-0.0011462775,-0.00034762072,-0.0010003077,0.37503418,-0.12735714,0.17033914,-3.0850768,0.0,0.1,-0.011878444,0.0053939917,0.003697272,0.026328081,0.017428981,inf,inf,inf,inf,1,1,1,1,2,1,2,3,0,0,0
68596268,0,0.0,0.0,0.32063672,0.39797935,-0.03528459,0.30814168,0.4012223,-0.2562831,-0.0042707464,0.0014866302,0.012677906,0.005542194,-0.0011462775,-0.00034762072,-0.0010003077,-0.36522278,0.8154314,0.32162094,-3.0857842,0.0,0.1,-0.012677906,0.005104952,0.0035093098,0.025652131,0.01702519,inf,inf,inf,inf,1,1,1,1,2,1,2,3,0,0,0
68700300,0,0.0,0.0,0.32073915,0.3979348,-0.03535559,0.30814168,0.4012223,-0.2562831,-0.0036376133,-0.0037775494,0.011496845,0.0042640353,-0.0011462775,-0.00034762072,-0.0010003077,-0.8266509,-0.8491753,0.045676596,-3.0855742,0.0,0.1,-0.011496845,0.0051423023,0.003533711,0.025713779,0.01706262,inf,inf,inf,inf,1,1,1,1,2,1,2,3,0,0,0
68804308,0,0.0,0.0,0.3208972,0.39796063,-0.035435896,0.30814168,0.4012223,-0.2562831,-0.0050872443,-0.0026001635,0.011039874,0.0037353057,-0.0011462775,-0.00034762072,-0.0010003077,-0.74680793,-0.20380601,-0.19304639,-3.0852957,0.0,0.1,-0.011039874,0.0052310624,0.0035899386,0.02601478,0.017239312,inf,inf,inf,inf,1,1,1,1,2,1,2,3,0,0,0
68900268,0,0.0,0.0,0.32105523,0.39788428,-0.035536677,0.30814168,0.4012223,-0.2562831,-0.0025745686,0.0008050058,0.011251855,0.0039080535,-0.0011462775,-0.00034762072,-0.0010003077,-0.70416856,-0.498791,-0.10731254,-3.0853734,0.0,0.1,-0.011251855,0.005172741,0.003552245,0.025855396,0.017147161,inf,inf,inf,inf,1,1,1,1,2,1,2,3,0,0,0
69004325,0,0.0,0.0,0.32120278,0.39791453,-0.035563562,0.30814168,0.4012223,-0.2562831,-0.0014751931,-0.003071412,0.013555249,0.006185177,-0.0011462775,-0.00034762072,-0.0010003077,-0.04430293,-0.5762805,-0.0256158,-3.08511,0.0,0.1,-0.013555249,0.005262625,0.0036102256,0.026087506,0.017287409,inf,inf,inf,inf,1,1,1,1,2,1,2,3,0,0,0
69108268,0,0.0,0.0,0.3212934,0.39801413,-0.035504986,0.30814168,0.4012223,-0.2562831,-0.005274595,-0.0010935429,0.012215692,0.00485547,-0.0011462775,-0.00034762072,-0.0010003077,-0.35630324,-0.2465501,-0.12901036,-3.085291,0.0,0.1,-0.012215692,0.0053173215,0.0036465246,0.0261725,0.01733377,inf,inf,inf,inf,1,1,1,1,2,1,2,3,0,0,0
69204327,0,0.0,0.0,0.3213918,0.39806548,-0.035372466,0.30814168,0.4012223,-0.2562831,-0.002130542,-0.00050895684,0.015798906,0.008434684,-0.0011462775,-0.00034762072,-0.0010003077,-0.084604196,-0.8388028,0.19131185,-3.085286,0.0,0.1,-0.015798906,0.0052569928,0.003607048,0.026058543,0.017268127,inf,inf,inf,inf,1,1,1,1,2,1,2,3,0,0,0
69312281,0,0.0,0.0,0.32150027,0.39818084,-0.035046596,0.30814168,0.4012223,-0.2562831,-0.0041207112,-0.0020637834,0.0149314385,0.007547127,-0.0011462775,-0.00034762072,-0.0010003077,-0.059752494,-0.21347852,0.16748439,-3.085458,0.0,0.1,-0.0149314385,0.0053550503,0.0036695534,0.026352687,0.017441386,inf,inf,inf,inf,1,1,1,1,2,1,2,3,0,0,0
69407514,0,0.0,0.0,0.32157743,0.39819914,-0.034800403,0.30814168,0.4012223,-0.2562831,-0.0026028694,-0.0016968171,0.01520129,0.0077798176,-0.0011462775,-0.00034762072,-0.0010003077,-0.32043132,-1.0499034,-0.27690247,-3.0851789,0.0,0.1,-0.01520129,0.0053110467,0.0036410964,0.026232237,0.017370172,inf,inf,inf,inf,1,1,1,1,2,1,2,3,0,0,0
69511469,0,0.0,0.0,0.32164115,0.3982536,-0.034539636,0.30814168,0.4012223,-0.2562831,-0.0018357715,-3.5602523e-05,0.014613389,0.007135338,-0.0011462775,-0.00034762072,-0.0010003077,-0.17303392,0.39236033,-0.31336805,-3.085142,0.0,0.1,-0.014613389,0.00542181,0.0037141864,0.026574604,0.017593058,inf,inf,inf,inf,1,1,1,1,2,1,2,3,0,0,0
69615475,0,0.0,0.0,0.32166648,0.39830554,-0.034360778,0.30814168,0.4012223,-0.2562831,0.00055073434,0.0006919043,0.01552618,0.007911393,-0.0011462775,-0.00034762072,-0.0010003077,0.93856853,0.24780889,0.29221505,-3.0854895,0.0,0.1,-0.01552618,0.005119309,0.003519726,0.025751993,0.017103953,inf,inf,inf,inf,1,1,1,1,2,1,2,3,0,0,0
69711468,0,0.0,0.0,0.32164362,0.3982438,-0.03432577,0.30814168,0.4012223,-0.2562831,-0.003030254,0.0010126572,0.013465894,0.005669951,-0.0011462775,-0.00034762072,-0.0010003077,-0.4487328,0.7167597,-0.15936051,-3.0853193,0.0,0.1,-0.013465894,0.0054097488,0.003706869,0.02647832,0.017525883,inf,inf,inf,inf,1,1,1,1,2,1,2,3,0,0,0
69815469,0,0.0,0.0,0.3216143,0.3981825,-0.034313127,0.30814168,0.4012223,-0.2562831,-0.0020597407,-0.0005331172,0.014594384,0.006612909,-0.0011462775,-0.00034762072,-0.0010003077,-0.14709401,-0.016947336,0.014447015,-3.0852036,0.0,0.1,-0.014594384,0.0051001925,0.00350707,0.025634086,0.01702043,inf,inf,inf,inf,1,1,1,1,2,1,2,3,0,0,0
69919475,0,0.0,0.0,0.32156152,0.3981365,-0.03440659,0.30814168,0.4012223,-0.2562831,0.00069363613,-0.0022887515,0.014116427,0.0059659053,-0.0011462775,-0.00034762072,-0.0010003077,0.8238416,-0.13139176,0.3942201,-3.0852613,0.0,0.1,-0.014116427,0.0051633297,0.0035475444,0.02580027,0.017117726,inf,inf,inf,inf,1,1,1,1,2,1,2,3,0,0,0
70023520,0,0.0,0.0,0.32151407,0.39809257,-0.034667805,0.30814168,0.4012223,-0.2562831,-0.0016956055,0.00075814617,0.010506762,0.0021996207,-0.0011462775,-0.00034762072,-0.0010003077,-0.068613894,0.46422905,-0.22498508,-3.0852659,0.0,0.1,-0.010506762,0.0052431943,0.0035982553,0.026043968,0.017256098,inf,inf,inf,inf,1,1,1,1,2,1,2,3,0,0,0
70118669,0,0.0,0.0,0.32148173,0.39811864,-0.035079062,0.30814168,0.4012223,-0.2562831,-0.0016868842,-0.0013956067,0.009690309,0.0012701007,-0.0011462775,-0.00034762072,-0.0010003077,0.36484972,-1.0005127,0.14660247,-3.0850794,0.0,0.1,-0.009690309,0.00517743,0.003555476,0.025862718,0.01714968,inf,inf,inf,inf,1,1,1,1,2,1,2,3,0,0,0
70218669,0,0.0,0.0,0.32145664,0.3982284,-0.035449173,0.30814168,0.4012223,-0.2562831,-0.0038675931,0.00093304546,0.01164382,0.0031625608,-0.0011462775,-0.00034762072,-0.0010003077,-0.08809182,-0.08225848,0.36664644,-3.0850742,0.0,0.1,-0.01164382,0.0051303916,0.003524554,0.025746575,0.01707703,inf,inf,inf,inf,1,1,1,1,2,1,2,3,0,0,0
70322678,0,0.0,0.0,0.32142177,0.39857653,-0.03576304,0.30814168,0.4012223,-0.2562831,-0.0008810586,0.0034528926,0.013663663,0.0052100522,-0.0011462775,-0.00034762072,-0.0010003077,0.51010126,0.82420945,0.58163273,-3.0852985,0.0,0.1,-0.013663663,0.0052976334,0.0036320456,0.026397342,0.017487979,inf,inf,inf,inf,1,1,1,1,2,1,2,3,0,0,0
70426668,0,0.0,0.0,0.3213037,0.398947,-0.035937496,0.30814168,0.4012223,-0.2562831,-0.0037578277,0.005012276,0.011852075,0.003529224,-0.0011462775,-0.00034762072,-0.0010003077,-0.6915814,0.12696406,0.28225583,-3.0851102,0.0,0.1,-0.011852075,0.005344255,0.003663828,0.026397537,0.01748647,inf,inf,inf,inf,1,1,1,1,2,1,2,3,0,0,0
70530670,0,0.0,0.0,0.32113647,0.39934984,-0.035965633,0.30814168,0.4012223,-0.2562831,-0.0035621275,0.0043329094,0.011847921,0.0036840423,-0.0011462775,-0.00034762072,-0.0010003077,0.20225097,0.027240904,-0.2584671,-3.0852122,0.0,0.1,-0.011847921,0.005389388,0.0036941809,0.026411956,0.01749033,inf,inf,inf,inf,1,1,1,1,2,1,2,3,0,0,0
70626669,0,0.0,0.0,0.32107815,0.39954177,-0.035920087,0.30814168,0.4012223,-0.2562831,-0.0022799748,0.0035527102,0.011755242,0.0037213222,-0.0011462775,-0.00034762072,-0.0010003077,-0.49717462,0.20396167,0.04299708,-3.0853052,0.0,0.1,-0.011755242,0.0053043757,0.0036391807,0.026179653,0.01734581,inf,inf,inf,inf,1,1,1,1,2,1,2,3,0,0,0
70730669,0,0.0,0.0,0.32111958,0.39955676,-0.035854377,0.30814168,0.4012223,-0.2562831,-0.003735121,0.002409432,0.013473187,0.0055541336,-0.0011462775,-0.00034762072,-0.0010003077,-1.117183,0.015055761,0.34210822,-3.0850632,0.0,0.1,-0.013473187,0.00536563,0.0036786078,0.026312878,0.017419195,inf,inf,inf,inf,1,1,1,1,2,1,2,3,0,0,0
70834716,0,0.0,0.0,0.32123703,0.39943743,-0.03578679,0.30814168,0.4012223,-0.2562831,-0.0016170387,0.0034273018,0.012165286,0.004306069,-0.0011462775,-0.00034762072,-0.0010003077,-0.38672477,0.9806655,0.015916038,-3.084928,0.0,0.1,-0.012165286,0.005069302,0.003486207,0.02557038,0.01697691,inf,inf,inf,inf,1,1,1,1,2,1,2,3,0,0,0
70938721,0,0.0,0.0,0.32143402,0.39918965,-0.03574871,0.30814168,0.4012223,-0.2562831,0.002318608,0.0029327052,0.010671649,0.0028459188,-0.0011462775,-0.00034762072,-0.0010003077,0.69109124,-0.43663925,-0.51471496,-3.0848687,0.0,0.1,-0.010671649,0.0051325173,0.003526943,0.025727581,0.017064784,inf,inf,inf,inf,1,1,1,1,2,1,2,3,0,0,0
71042685,0,0.0,0.0,0.3217256,0.39894623,-0.035753936,0.30814168,0.4012223,-0.2562831,0.0023829108,-0.0010900727,0.010578749,0.0027626462,-0.0011462775,-0.00034762072,-0.0010003077,0.1589631,-1.4460299,-0.016604008,-3.0850213,0.0,0.1,-0.010578749,0.0052254857,0.003586067,0.02600638,0.017232291,inf,inf,inf,inf,1,1,1,1,2,1,2,3,0,0,0
71145869,0,0.0,0.0,0.3219897,0.39883652,-0.035851024,0.30814168,0.4012223,-0.2562831,0.0007889189,0.00046305053,0.009206509,0.0014065672,-0.0011462775,-0.00034762072,-0.0010003077,-0.712569,-0.1700506,0.13896497,-3.085053,0.0,0.1,-0.009206509,0.005305214,0.003637362,0.026204698,0.01734798,inf,inf,inf,inf,1,1,1,1,2,1,2,3,0,0,0
71241875,0,0.0,0.0,0.3221591,0.3987424,-0.035971723,0.30814168,0.4012223,-0.2562831,0.0033936885,0.002308765,0.008820547,0.0010382867,-0.0011462775,-0.00034762072,-0.0010003077,0.4032955,-0.22574453,-0.25839812,-3.085008,0.0,0.1,-0.008820547,0.005192082,0.0035651468,0.025835574,0.01712431,inf,inf,inf,inf,1,1,1,1,2,1,2,3,0,0,0
71345869,0,0.0,0.0,0.32227308,0.39864329,-0.036152415,0.30814168,0.4012223,-0.2562831,-0.00027067208,-0.0014290164,0.008592835,0.00083210075,-0.0011462775,-0.00034762072,-0.0010003077,-0.55810285,-1.3831742,-0.08989024,-3.085012,0.0,0.1,-0.008592835,0.005267261,0.0036131286,0.026067184,0.017262597,inf,inf,inf,inf,1,1,1,1,2,1,2,3,0,0,0
71449869,0,0.0,0.0,0.32232618,0.39849398,-0.03636888,0.30814168,0.4012223,-0.2562831,-0.00077171164,0.0010244336,0.009169818,0.0014555913,-0.0011462775,-0.00034762072,-0.0010003077,-0.49709156,0.9965843,0.50248384,-3.0851848,0.0,0.1,-0.009169818,0.0053361994,0.003657478,0.026249826,0.017370418,inf,inf,inf,inf,1,1,1,1,2,1,2,3,0,0,0
71545875,0,0.0,0.0,0.32229075,0.39842936,-0.03657674,0.30814168,0.4012223,-0.2562831,-0.0004208491,-3.9269806e-05,0.005445143,-0.0021831144,-0.0011462775,-0.00034762072,-0.0010003077,-0.69956684,-0.8335602,-0.66945446,-3.0848389,0.0,0.1,-0.005445143,0.005266519,0.0036123048,0.026091332,0.017277637,inf,inf,inf,inf,1,1,1,1,2,1,2,3,0,0,0
71649869,0,0.0,0.0,0.3221784,0.39836857,-0.03683024,0.30814168,0.4012223,-0.2562831,-0.0005965858,-0.00045439173,0.008137001,0.00062974216,-0.0011462775,-0.00034762072,-0.0010003077,-0.7916311,-0.60152715,0.2447051,-3.0849247,0.0,0.1,-0.008137001,0.0053368853,0.0036578565,0.026260106,0.017379634,inf,inf,inf,inf,1,1,1,1,2,1,2,3,0,0,0
71753869,0,0.0,0.0,0.32195866,0.3983128,-0.037009496,0.30814168,0.4012223,-0.2562831,0.0007861791,3.7877726e-05,0.008325115,0.00095106795,-0.0011462775,-0.00034762072,-0.0010003077,0.89571923,0.13052043,0.540777,-3.0848563,0.0,0.1,-0.008325115,0.0054194713,0.0037108664,0.026482502,0.017509738,inf,inf,inf,inf,1,1,1,1,2,1,2,3,0,0,0
71856299,0,0.0,0.0,0.3217388,0.39825842,-0.037181135,0.30814168,0.4012223,-0.2562831,0.0006031694,-9.594565e-05,0.0078108655,0.00059550593,-0.0011462775,-0.00034762072,-0.0010003077,0.6515348,0.80248696,0.16511075,-3.0848167,0.0,0.1,-0.0078108655,0.0051334957,0.0035264443,0.025739457,0.017073479,inf,inf,inf,inf,1,1,1,1,2,1,2,3,0,0,0
71953078,0,0.0,0.0,0.32155088,0.39795193,-0.03729743,0.30814168,0.4012223,-0.2562831,-0.0025740287,-0.005398092,0.0067815767,-0.00027534307,-0.0011462775,-0.00034762072,-0.0010003077,-0.12670803,-1.5649315,0.07825258,-3.084974,0.0,0.1,-0.0067815767,0.005067714,0.0034838722,0.02556919,0.01697456,inf,inf,inf,inf,1,1,1,1,2,1,2,3,0,0,0
72057069,0,0.0,0.0,0.32133797,0.3975548,-0.037248127,0.30814168,0.4012223,-0.2562831,0.00047503534,-0.001907939,0.009651438,0.0027743762,-0.0011462775,-0.00034762072,-0.0010003077,0.45021757,1.0379544,0.27450806,-3.084964,0.0,0.1,-0.009651438,0.0051248875,0.0035212033,0.025691204,0.017044429,inf,inf,inf,inf,1,1,1,1,2,1,2,3,0,0,0
72161073,0,0.0,0.0,0.32121548,0.39713436,-0.03708829,0.30814168,0.4012223,-0.2562831,-0.0015840401,-0.0024660046,0.011145204,0.004441899,-0.0011462775,-0.00034762072,-0.0010003077,-0.58431923,0.88781613,0.22370332,-3.0850983,0.0,0.1,-0.011145204,0.005189237,0.0035630988,0.025857208,0.017143223,inf,inf,inf,inf,1,1,1,1,2,1,2,3,0,0,0
72257074,0,0.0,0.0,0.32113642,0.39676732,-0.03685807,0.30814168,0.4012223,-0.2562831,-0.0009510093,-0.0041996096,0.011113714,0.0045562442,-0.0011462775,-0.00034762072,-0.0010003077,0.12067191,-0.74258655,0.12960659,-3.085122,0.0,0.1,-0.011113714,0.0051192096,0.0035177546,0.025698757,0.017054407,inf,inf,inf,inf,1,1,1,1,2,1,2,3,0,0,0
72361109,0,0.0,0.0,0.32106075,0.396427,-0.03655187,0.30814168,0.4012223,-0.2562831,0.0016142731,-0.005933054,0.01137344,0.004924516,-0.0011462775,-0.00034762072,-0.0010003077,0.35774758,-0.55169296,0.066133685,-3.0850923,0.0,0.1,-0.01137344,0.005187475,0.003562072,0.025869392,0.017155735,inf,inf,inf,inf,1,1,1,1,2,1,2,3,0,0,0
72465095,0,0.0,0.0,0.3210482,0.39624554,-0.036238663,0.30814168,0.4012223,-0.2562831,0.0006425063,-0.0032619352,0.010395576,0.0039876774,-0.0011462775,-0.00034762072,-0.0010003077,-0.1893454,0.21886481,-0.21376838,-3.0850708,0.0,0.1,-0.010395576,0.005250023,0.0036026633,0.026026487,0.017245442,inf,inf,inf,inf,1,1,1,1,2,1,2,3,0,0,0
72561069,0,0.0,0.0,0.321031,0.39617303,-0.035986226,0.30814168,0.4012223,-0.2562831,0.0005607695,0.0001798479,0.011447359,0.0050253896,-0.0011462775,-0.00034762072,-0.0010003077,0.21962848,0.4987707,-0.14264327,-3.0850441,0.0,0.1,-0.011447359,0.0051732874,0.0035533537,0.025807003,0.01711686,inf,inf,inf,inf,1,1,1,1,2,1,2,3,0,0,0
72665082,0,0.0,0.0,0.32105115,0.3961912,-0.035790276,0.30814168,0.4012223,-0.2562831,0.00029717878,-0.003672314,0.009568612,0.0030827054,-0.0011462775,-0.00034762072,-0.0010003077,-0.19886458,-1.4325808,-0.40963018,-3.0848908,0.0,0.1,-0.009568612,0.0052595693,0.0036084163,0.026072968,0.017273232,inf,inf,inf,inf,1,1,1,1,2,1,2,3,0,0,0
72769072,0,0.0,0.0,0.32111114,0.3963055,-0.035634972,0.30814168,0.4012223,-0.2562831,-0.002314798,-0.0042633167,0.012439683,0.0058630584,-0.0011462775,-0.00034762072,-0.0010003077,-0.9651321,-0.5673724,0.17938054,-3.084974,0.0,0.1,-0.012439683,0.005318426,0.00364664,0.026204905,0.017350072,inf,inf,inf,inf,1,1,1,1,2,1,2,3,0,0,0
72872301,0,0.0,0.0,0.32108963,0.39643693,-0.035473596,0.30814168,0.4012223,-0.2562831,0.00018902053,-0.0022176676,0.012092022,0.0053870683,-0.0011462775,-0.00034762072,-0.0010003077,0.28410652,0.20290728,0.31909147,-3.0849247,0.0,0.1,-0.012092022,0.005069571,0.00348444,0.025595125,0.01698474,inf,inf,inf,inf,1,1,1,1,2,1,2,3,0,0,0
72976268,0,0.0,0.0,0.32103413,0.3965651,-0.035373952,0.30814168,0.4012223,-0.2562831,0.0010725397,0.00117591,0.012725219,0.005910551,-0.0011462775,-0.00034762072,-0.0010003077,0.5084512,0.75505877,0.23058072,-3.0850174,0.0,0.1,-0.012725219,0.005134665,0.0035275829,0.025710441,0.0170564,inf,inf,inf,inf,1,1,1,1,2,1,2,3,0,0,0
73080277,0,0.0,0.0,0.32098332,0.3967585,-0.0354108,0.30814168,0.4012223,-0.2562831,0.0008679599,-0.00047944827,0.014368623,0.0074297264,-0.0011462775,-0.00034762072,-0.0010003077,0.15868084,-0.26119244,0.37325633,-3.0848186,0.0,0.1,-0.014368623,0.0051942216,0.0035665324,0.025849883,0.01713962,inf,inf,inf,inf,1,1,1,1,2,1,2,3,0,0,0
73176294,0,0.0,0.0,0.32088807,0.39698574,-0.03543342,0.30814168,0.4012223,-0.2562831,0.0015901607,0.0018889703,0.012732575,0.0056742276,-0.0011462775,-0.00034762072,-0.0010003077,0.8187228,0.7155595,0.20745945,-3.0848062,0.0,0.1,-0.012732575,0.0051205964,0.0035187176,0.02567903,0.017036047,inf,inf,inf,inf,1,1,1,1,2,1,2,3,0,0,0
73280295,0,0.0,0.0,0.32078227,0.3971714,-0.035511542,0.30814168,0.4012223,-0.2562831,-0.0027864557,0.004269628,0.013524417,0.00636664,-0.0011462775,-0.00034762072,-0.0010003077,-0.89024705,1.0282239,0.49740586,-3.0849116,0.0,0.1,-0.013524417,0.0052034617,0.0035719296,0.025916543,0.017175663,inf,inf,inf,inf,1,1,1,1,2,1,2,3,0,0,0
73384309,0,0.0,0.0,0.32066745,0.39740926,-0.035584204,0.30814168,0.4012223,-0.2562831,-0.0020106211,0.0006770865,0.011020131,0.0037982985,-0.0011462775,-0.00034762072,-0.0010003077,-0.64383125,0.13266306,0.3457001,-3.0849452,0.0,0.1,-0.011020131,0.0052749007,0.003618113,0.026097646,0.01728692,inf,inf,inf,inf,1,1,1,1,2,1,2,3,0,0,0
73488274,0,0.0,0.0,0.32060128,0.39765352,-0.03567506,0.30814168,0.4012223,-0.2562831,0.00044087486,0.0007767389,0.011232313,0.0039712973,-0.0011462775,-0.00034762072,-0.0010003077,0.38434654,-0.3802541,-0.17514928,-3.0850306,0.0,0.1,-0.011232313,0.0053402176,0.0036604402,0.026257085,0.017377127,inf,inf,inf,inf,1,1,1,1,2,1,2,3,0,0,0
73584315,0,0.0,0.0,0.32059917,0.39776325,-0.035760406,0.30814168,0.4012223,-0.2562831,-0.003312955,0.0009683248,0.011597605,0.0043206983,-0.0011462775,-0.00034762072,-0.0010003077,-0.7730392,-0.020183032,0.58519256,-3.0849333,0.0,0.1,-0.011597605,0.005217349,0.003582249,0.025887271,0.017161954,inf,inf,inf,inf,1,1,1,1,2,1,2,3,0,0,0
73687469,0,0.0,0.0,0.32057893,0.39798886,-0.03579626,0.30814168,0.4012223,-0.2562831,-0.0011915428,0.002611741,0.012926199,0.005634286,-0.0011462775,-0.00034762072,-0.0010003077,0.21648833,0.48563108,0.3267511,-3.0850105,0.0,0.1,-0.012926199,0.005261881,0.0036104063,0.026019301,0.017236443,inf,inf,inf,inf,1,1,1,1,2,1,2,3,0,0,0
73791521,0,0.0,0.0,0.3205308,0.3980147,-0.03586214,0.30814168,0.4012223,-0.2562831,-0.0015146302,0.00063144113,0.010967282,0.0036746124,-0.0011462775,-0.00034762072,-0.0010003077,-0.10473523,-0.12966192,0.3704513,-3.0846694,0.0,0.1,-0.010967282,0.005338554,0.003659715,0.02631539,0.01742235,inf,inf,inf,inf,1,1,1,1,2,1,2,3,0,0,0
73887506,0,0.0,0.0,0.3204884,0.3979279,-0.035940725,0.30814168,0.4012223,-0.2562831,-0.00236183,0.00087648176,0.009864607,0.002561929,-0.0011462775,-0.00034762072,-0.0010003077,-0.6290128,1.1378582,-0.004718595,-3.08493,0.0,0.1,-0.009864607,0.005260396,0.003608887,0.026097165,0.017287904,inf,inf,inf,inf,1,1,1,1,2,1,2,3,0,0,0
73991469,0,0.0,0.0,0.32048926,0.39766434,-0.036010675,0.30814168,0.4012223,-0.2562831,-0.00087353436,-0.00090018637,0.010659853,0.0033577837,-0.0011462775,-0.00034762072,-0.0010003077,0.039007105,0.4541091,0.21394439,-3.0849154,0.0,0.1,-0.010659853,0.005355773,0.0036698247,0.026358102,0.017440228,inf,inf,inf,inf,1,1,1,1,2,1,2,3,0,0,0
74095475,0,0.0,0.0,0.3205323,0.39737543,-0.036044236,0.30814168,0.4012223,-0.2562831,-0.00019353298,-0.0026689651,0.012320038,0.005024468,-0.0011462775,-0.00034762072,-0.0010003077,0.07374098,-0.6423785,0.03576834,-3.0848053,0.0,0.1,-0.012320038,0.0050858487,0.003495436,0.025642797,0.017020136,inf,inf,inf,inf,1,1,1,1,2,1,2,3,0,0,0
74191469,0,0.0,0.0,0.3205605,0.39704826,-0.036024734,0.30814168,0.4012223,-0.2562831,-0.00020777315,-0.0048262645,0.010623821,0.003357734,-0.0011462775,-0.00034762072,-0.0010003077,0.2694487,-0.56505084,0.3787921,-3.0848992,0.0,0.1,-0.010623821,0.005387166,0.0036901825,0.026408346,0.017468726,inf,inf,inf,inf,1,1,1,1,2,1,2,3,0,0,0
74295476,0,0.0,0.0,0.3205782,0.39668554,-0.035957757,0.30814168,0.4012223,-0.2562831,-2.48424e-05,0.00043274002,0.0101484945,0.0029174867,-0.0011462775,-0.00034762072,-0.0010003077,0.14440481,0.75433576,-0.58426183,-3.085114,0.0,0.1,-0.0101484945,0.005092676,0.00350057,0.025612231,0.016999999,inf,inf,inf,inf,1,1,1,1,2,1,2,3,0,0,0
74391505,0,0.0,0.0,0.3205641,0.39644527,-0.03588174,0.30814168,0.4012223,-0.2562831,-0.0006741129,-0.005210065,0.011634663,0.0044342815,-0.0011462775,-0.00034762072,-0.0010003077,0.13350852,-0.62285244,0.25300843,-3.0849814,0.0,0.1,-0.011634663,0.005384148,0.0036890127,0.026358943,0.017444117,inf,inf,inf,inf,1,1,1,1,2,1,2,3,0,0,0
74498669,0,0.0,0.0,0.3205238,0.3962572,-0.035700623,0.30814168,0.4012223,-0.2562831,-0.00083043054,-0.0018168918,0.011413475,0.0042141015,-0.0011462775,-0.00034762072,-0.0010003077,-0.4578727,0.5789637,-0.0137603525,-3.0851176,0.0,0.1,-0.011413475,0.0051188017,0.0035169562,0.025709921,0.017055163,inf,inf,inf,inf,1,1,1,1,2,1,2,3,0,0,0
74602679,0,0.0,0.0,0.32042354,0.39615345,-0.03568931,0.30814168,0.4012223,-0.2562831,-0.0026718888,-0.0011017881,0.011890519,0.0046940283,-0.0011462775,-0.00034762072,-0.0010003077,0.017439073,0.061544046,0.22536097,-3.0848892,0.0,0.1,-0.011890519,0.005262492,0.0036105171,0.026244614,0.017396783,inf,inf,inf,inf,1,1,1,1,2,1,2,3,0,0,0
74706669,0,0.0,0.0,0.3202266,0.39618444,-0.03573308,0.30814168,0.4012223,-0.2562831,-0.0034457394,-0.0031491218,0.011653309,0.0044291606,-0.0011462775,-0.00034762072,-0.0010003077,-0.4807725,-0.727137,0.28935835,-3.084907,0.0,0.1,-0.011653309,0.005314769,0.0036449046,0.026284387,0.017416408,inf,inf,inf,inf,1,1,1,1,2,1,2,3,0,0,0
74810675,0,0.0,0.0,0.3200113,0.3963023,-0.03579185,0.30814168,0.4012223,-0.2562831,-0.0031589465,-0.0035769353,0.009918224,0.002637151,-0.0011462775,-0.00034762072,-0.0010003077,-0.6428509,-0.38043076,-0.48299792,-3.0847528,0.0,0.1,-0.009918224,0.005381096,0.0036877922,0.026423834,0.01748798,inf,inf,inf,inf,1,1,1,1,2,1,2,3,0,0,0
74906668,0,0.0,0.0,0.31979495,0.39636186,-0.035862315,0.30814168,0.4012223,-0.2562831,-0.0027690788,-0.003555368,0.011793351,0.004469251,-0.0011462775,-0.00034762072,-0.0010003077,0.16185339,-1.1630688,0.20472035,-3.084845,0.0,0.1,-0.011793351,0.005322042,0.0036492546,0.026258327,0.017389283,inf,inf,inf,inf,1,1,1,1,2,1,2,3,0,0,0
75010669,0,0.0,0.0,0.31963572,0.39637926,-0.035962436,0.30814168,0.4012223,-0.2562831,-0.00268737,-0.0042968504,0.009409079,0.0020709278,-0.0011462775,-0.00034762072,-0.0010003077,-0.43694356,-0.74415386,-0.4751115,-3.0849557,0.0,0.1,-0.009409079,0.005362916,0.0036764909,0.026296927,0.017403567,inf,inf,inf,inf,1,1,1,1,2,1,2,3,0,0,0
75114690,0,0.0,0.0,0.31958812,0.39643747,-0.036095057,0.30814168,0.4012223,-0.2562831,-0.0031063666,-0.0022727095,0.010075983,0.0027359012,-0.0011462775,-0.00034762072,-0.0010003077,-0.104139075,0.14388822,-0.08659864,-3.084854,0.0,0.1,-0.010075983,0.005463496,0.0037398387,0.026605722,0.017583678,inf,inf,inf,inf,1,1,1,1,2,1,2,3,0,0,0
75210669,0,0.0,0.0,0.31962913,0.39641887,-0.03627405,0.30814168,0.4012223,-0.2562831,-0.000363612,-0.0028777805,0.0092372205,0.0019126885,-0.0011462775,-0.00034762072,-0.0010003077,0.38867545,-0.7063084,-0.4641019,-3.0846672,0.0,0.1,-0.0092372205,0.0053566475,0.0036716308,0.026287898,0.017393045,inf,inf,inf,inf,1,1,1,1,2,1,2,3,0,0,0
75314679,0,0.0,0.0,0.3197805,0.39634305,-0.036531184,0.30814168,0.4012223,-0.2562831,-0.00041915494,-0.0013711415,0.008309552,0.0010237662,-0.0011462775,-0.00034762072,-0.0010003077,0.43844908,0.6588027,-0.15177317,-3.0847461,0.0,0.1,-0.008309552,0.005426348,0.0037159703,0.026486756,0.017511405,inf,inf,inf,inf,1,1,1,1,2,1,2,3,0,0,0
75417869,0,0.0,0.0,0.32005227,0.39620316,-0.036769327,0.30814168,0.4012223,-0.2562831,0.00078272243,-0.004542909,0.007759999,0.0005395693,-0.0011462775,-0.00034762072,-0.0010003077,0.33953163,-0.29153305,-0.032140933,-3.0848215,0.0,0.1,-0.007759999,0.0051204013,0.0035183663,0.025697067,0.017046854,inf,inf,inf,inf,1,1,1,1,2,1,2,3,0,0,0
75521884,0,0.0,0.0,0.32034725,0.39599848,-0.036941573,0.30814168,0.4012223,-0.2562831,0.00065593934,-0.0030655845,0.010172301,0.0030372983,-0.0011462775,-0.00034762072,-0.0010003077,0.19708736,0.1011074,0.43551055,-3.0849328,0.0,0.1,-0.010172301,0.0052272747,0.003585996,0.026026396,0.01723749,inf,inf,inf,inf,1,1,1,1,2,1,2,3,0,0,0
75617882,0,0.0,0.0,0.3206236,0.39581448,-0.037007134,0.30814168,0.4012223,-0.2562831,0.0021068703,-0.0035427997,0.008269335,0.001255577,-0.0011462775,-0.00034762072,-0.0010003077,0.41059822,0.487949,0.010315762,-3.0846965,0.0,0.1,-0.008269335,0.0051584584,0.0035421713,0.025804335,0.017107558,inf,inf,inf,inf,1,1,1,1,2,1,2,3,0,0,0
75721869,0,0.0,0.0,0.3208701,0.3957014,-0.036892038,0.30814168,0.4012223,-0.2562831,0.0023103098,-0.002977353,0.010795039,0.003944027,-0.0011462775,-0.00034762072,-0.0010003077,0.053071834,0.1062288,0.1281876,-3.0846455,0.0,0.1,-0.010795039,0.0052225166,0.0035841863,0.025940383,0.017190708,inf,inf,inf,inf,1,1,1,1,2,1,2,3,0,0,0
75825869,0,0.0,0.0,0.32114124,0.3955925,-0.036713194,0.30814168,0.4012223,-0.2562831,0.004006533,-0.00288552,0.011258303,0.004561502,-0.0011462775,-0.00034762072,-0.0010003077,0.8236006,0.5424215,0.24678424,-3.084758,0.0,0.1,-0.011258303,0.0052667796,0.003613353,0.02604044,0.017252479,inf,inf,inf,inf,1,1,1,1,2,1,2,3,0,0,0
75921900,0,0.0,0.0,0.32140353,0.39557105,-0.036525853,0.30814168,0.4012223,-0.2562831,0.0029301792,-0.0022680864,0.011629663,0.0050343405,-0.0011462775,-0.00034762072,-0.0010003077,0.118417636,0.32945198,-0.061504744,-3.0847938,0.0,0.1,-0.011629663,0.005197005,0.0035680416,0.025882294,0.017156858,inf,inf,inf,inf,1,1,1,1,2,1,2,3,0,0,0
76025918,0,0.0,0.0,0.32165545,0.3956373,-0.03626058,0.30814168,0.4012223,-0.2562831,0.004170131,-0.00233039,0.013704776,0.0071649677,-0.0011462775,-0.00034762072,-0.0010003077,0.9076,0.017197132,0.3612998,-3.0849183,0.0,0.1,-0.013704776,0.005270908,0.0036155412,0.026091974,0.017284298,inf,inf,inf,inf,1,1,1,1,2,1,2,3,0,0,0
76124328,0,0.0,0.0,0.3218787,0.39577457,-0.036020584,0.30814168,0.4012223,-0.2562831,0.0043172543,-0.0013678614,0.011513164,0.0049689347,-0.0011462775,-0.00034762072,-0.0010003077,-0.1438565,-0.3301685,-0.46339595,-3.084784,0.0,0.1,-0.011513164,0.005224903,0.0035850175,0.026020322,0.01723936,inf,inf,inf,inf,1,1,1,1,2,1,2,3,0,0,0
76229069,0,0.0,0.0,0.32207277,0.39594674,-0.03583439,0.30814168,0.4012223,-0.2562831,0.004425371,-0.0028909156,0.011348653,0.004761354,-0.0011462775,-0.00034762072,-0.0010003077,0.08859226,-0.7345617,-0.48435763,-3.0848665,0.0,0.1,-0.011348653,0.005321095,0.0036471537,0.02625275,0.017377408,inf,inf,inf,inf,1,1,1,1,2,1,2,3,0,0,0
76333074,0,0.0,0.0,0.32214242,0.39614585,-0.03575791,0.30814168,0.4012223,-0.2562831,0.00450719,-0.0024938511,0.011206152,0.004566886,-0.0011462775,-0.00034762072,-0.0010003077,0.17751579,-0.35698256,0.18175308,-3.0847137,0.0,0.1,-0.011206152,0.00545621,0.0037349146,0.026688604,0.01765402,inf,inf,inf,inf,1,1,1,1,2,1,2,3,0,0,0
76429083,0,0.0,0.0,0.32219872,0.39639202,-0.0357054,0.30814168,0.4012223,-0.2562831,0.0034832451,-0.0011708711,0.011361282,0.0046424833,-0.0011462775,-0.00034762072,-0.0010003077,-0.39983952,-0.55742407,-0.44004753,-3.0845635,0.0,0.1,-0.011361282,0.005364082,0.003677133,0.026395112,0.017480196,inf,inf,inf,inf,1,1,1,1,2,1,2,3,0,0,0
76533074,0,0.0,0.0,0.32214868,0.39662206,-0.03566709,0.30814168,0.4012223,-0.2562831,0.003286945,-0.0009498222,0.010152796,0.003340353,-0.0011462775,-0.00034762072,-0.0010003077,-0.08627375,-0.62917745,-0.22992373,-3.0845907,0.0,0.1,-0.010152796,0.005433207,0.0037217988,0.026549997,0.017570369,inf,inf,inf,inf,1,1,1,1,2,1,2,3,0,0,0
76637085,0,0.0,0.0,0.32207355,0.3967627,-0.035680234,0.30814168,0.4012223,-0.2562831,0.0041266186,-0.00026274388,0.011170617,0.004265654,-0.0011462775,-0.00034762072,-0.0010003077,0.6284285,-0.43210793,-0.10242417,-3.0846648,0.0,0.1,-0.011170617,0.0051112347,0.0035140563,0.025679896,0.01704957,inf,inf,inf,inf,1,1,1,1,2,1,2,3,0,0,0
76733078,0,0.0,0.0,0.32198715,0.3968365,-0.03581093,0.30814168,0.4012223,-0.2562831,0.00058048044,0.00037233956,0.008764776,0.0017794567,-0.0011462775,-0.00034762072,-0.0010003077,-0.9026282,-0.018458452,-0.1997303,-3.084604,0.0,0.1,-0.008764776,0.0053969347,0.0036982314,0.026423365,0.01748187,inf,inf,inf,inf,1,1,1,1,2,1,2,3,0,0,0
76837069,0,0.0,0.0,0.32189366,0.39693195,-0.03604259,0.30814168,0.4012223,-0.2562831,0.0020186985,-0.00070878415,0.008587267,0.0015311809,-0.0011462775,-0.00034762072,-0.0010003077,-0.45445898,-0.43072233,-0.4652436,-3.0846374,0.0,0.1,-0.008587267,0.0051083993,0.0035112267,0.025675993,0.017037876,inf,inf,inf,inf,1,1,1,1,2,1,2,3,0,0,0
76941072,0,0.0,0.0,0.32188585,0.39694273,-0.03632051,0.30814168,0.4012223,-0.2562831,0.003934087,-0.0016737173,0.009657166,0.0025700624,-0.0011462775,-0.00034762072,-0.0010003077,0.2851449,-0.4585698,-0.13754743,-3.0844088,0.0,0.1,-0.009657166,0.005164956,0.0035479674,0.025788879,0.017101875,inf,inf,inf,inf,1,1,1,1,2,1,2,3,0,0,0
77044334,0,0.0,0.0,0.3219101,0.3969316,-0.036592487,0.30814168,0.4012223,-0.2562831,0.0040178276,-0.0016223784,0.008322608,0.0012629768,-0.0011462775,-0.00034762072,-0.0010003077,0.3657568,-0.22637622,0.4387131,-3.0845425,0.0,0.1,-0.008322608,0.0052392026,0.0035952504,0.026013209,0.017233776,inf,inf,inf,inf,1,1,1,1,2,1,2,3,0,0,0
77140268,0,0.0,0.0,0.32198584,0.39692917,-0.036809,0.30814168,0.4012223,-0.2562831,0.0042089,-0.0013439164,0.008306327,0.0013104201,-0.0011462775,-0.00034762072,-0.0010003077,0.22153085,-0.4646666,-0.32822254,-3.0841906,0.0,0.1,-0.008306327,0.0051520504,0.0035384633,0.0257859,0.017094148,inf,inf,inf,inf,1,1,1,1,2,1,2,3,0,0,0
77244314,0,0.0,0.0,0.32209504,0.39681038,-0.03703141,0.30814168,0.4012223,-0.2562831,0.0032671737,-0.00040131557,0.0064095757,-0.0004810382,-0.0011462775,-0.00034762072,-0.0010003077,-0.1125269,-0.24607415,0.019524794,-3.0842278,0.0,0.1,-0.0064095757,0.005217188,0.0035808347,0.025936702,0.017187472,inf,inf,inf,inf,1,1,1,1,2,1,2,3,0,0,0
77348276,0,0.0,0.0,0.322123,0.39667436,-0.037162427,0.30814168,0.4012223,-0.2562831,0.0037315325,-0.0009779995,0.008199416,0.0014350961,-0.0011462775,-0.00034762072,-0.0010003077,0.1820159,0.1728543,-0.08904852,-3.084424,0.0,0.1,-0.008199416,0.0052948543,0.0036307902,0.026151085,0.01731478,inf,inf,inf,inf,1,1,1,1,2,1,2,3,0,0,0
77444292,0,0.0,0.0,0.3221419,0.3965689,-0.03728857,0.30814168,0.4012223,-0.2562831,0.0020363338,-0.0011334772,0.0062401583,-0.00038561577,-0.0011462775,-0.00034762072,-0.0010003077,-0.8132943,-0.22737183,-0.23224953,-3.0843954,0.0,0.1,-0.0062401583,0.00523154,0.0035896562,0.026005697,0.017228154,inf,inf,inf,inf,1,1,1,1,2,1,2,3,0,0,0
77548269,0,0.0,0.0,0.3221336,0.39645174,-0.037316706,0.30814168,0.4012223,-0.2562831,0.0034040157,-0.0032181924,0.0077903294,0.0013309183,-0.0011462775,-0.00034762072,-0.0010003077,-0.03586629,-0.57077324,-0.1581582,-3.084505,0.0,0.1,-0.0077903294,0.0053164973,0.0036447742,0.026202878,0.017347557,inf,inf,inf,inf,1,1,1,1,2,1,2,3,0,0,0
77652283,0,0.0,0.0,0.32213968,0.39637122,-0.037325714,0.30814168,0.4012223,-0.2562831,0.005309756,-0.0027559442,0.009216474,0.0029068894,-0.0011462775,-0.00034762072,-0.0010003077,0.51135576,-0.60433143,-0.09503916,-3.0843608,0.0,0.1,-0.009216474,0.005372144,0.003681433,0.026311113,0.01741356,inf,inf,inf,inf,1,1,1,1,2,1,2,3,0,0,0
77748269,0,0.0,0.0,0.32216424,0.39629102,-0.03727656,0.30814168,0.4012223,-0.2562831,0.003867592,-0.001308194,0.008855347,0.0026584044,-0.0011462775,-0.00034762072,-0.0010003077,0.14866294,-0.3837494,-0.20974958,-3.0843782,0.0,0.1,-0.008855347,0.0053135287,0.003642891,0.026213339,0.017353391,inf,inf,inf,inf,1,1,1,1,2,1,2,3,0,0,0
77852284,0,0.0,0.0,0.3221883,0.39627475,-0.03717058,0.30814168,0.4012223,-0.2562831,0.0046057855,-0.00063003245,0.009312485,0.0032321545,-0.0011462775,-0.00034762072,-0.0010003077,0.1687345,-0.03690268,-0.17050472,-3.0841703,0.0,0.1,-0.009312485,0.0053800414,0.0036859252,0.02638273,0.01745425,inf,inf,inf,inf,1,1,1,1,2,1,2,3,0,0,0
77955468,0,0.0,0.0,0.322339,0.39628485,-0.037175894,0.30814168,0.4012223,-0.2562831,0.005576044,-0.005065915,0.0056715924,-0.0003147863,-0.0011462775,-0.00034762072,-0.0010003077,-0.57757545,-1.3746929,0.1749702,-3.0839698,0.0,0.1,-0.0056715924,0.005075559,0.0034894978,0.025579069,0.016982147,inf,inf,inf,inf,1,1,1,1,2,1,2,3,0,0,0
78059511,0,0.0,0.0,0.32255796,0.3961302,-0.037229765,0.30814168,0.4012223,-0.2562831,0.0022727584,0.0017245963,0.01344382,0.0074921725,-0.0011462775,-0.00034762072,-0.0010003077,0.0082244,0.39359435,0.8934338,-3.0844553,0.0,0.1,-0.01344382,0.0051421025,0.0035324374,0.02574414,0.017077021,inf,inf,inf,inf,1,1,1,1,2,1,2,3,0,0,0
78163475,0,0.0,0.0,0.322621,0.39604855,-0.03720635,0.30814168,0.4012223,-0.2562831,0.006927249,-0.0037736492,0.009073858,0.0031056013,-0.0011462775,-0.00034762072,-0.0010003077,1.7286699,-0.13409382,0.34822792,-3.0844836,0.0,0.1,-0.009073858,0.0052465997,0.0035992523,0.026062876,0.017266404,inf,inf,inf,inf,1,1,1,1,2,1,2,3,0,0,0
78259469,0,0.0,0.0,0.32252744,0.39624086,-0.03715245,0.30814168,0.4012223,-0.2562831,0.006068846,-0.00022313956,0.012101652,0.0061328984,-0.0011462775,-0.00034762072,-0.0010003077,1.4897877,-1.2610925,1.5372314,-3.0855148,0.0,0.1,-0.012101652,0.005165506,0.0035474165,0.0258048,0.017112652,inf,inf,inf,inf,1,1,1,1,2,1,2,3,0,0,0
78363484,0,0.0,0.0,0.3223804,0.3961852,-0.037009567,0.30814168,0.4012223,-0.2562831,0.0015751347,-0.0014696295,0.010517982,0.004557338,-0.0011462775,-0.00034762072,-0.0010003077,-1.5104864,-0.20060787,-0.18381917,-3.0847178,0.0,0.1,-0.010517982,0.0052413326,0.0035962898,0.026007587,0.017228436,inf,inf,inf,inf,1,1,1,1,2,1,2,3,0,0,0
78467475,0,0.0,0.0,0.32206613,0.39652416,-0.036821455,0.30814168,0.4012223,-0.2562831,0.0010416206,-0.00018956156,0.01569435,0.009727056,-0.0011462775,-0.00034762072,-0.0010003077,0.7458854,0.61043715,-0.15831159,-3.0845551,0.0,0.1,-0.01569435,0.005309694,0.0036403267,0.026193954,0.017332647,inf,inf,inf,inf,1,1,1,1,2,1,2,3,0,0,0
78563517,0,0.0,0.0,0.32167965,0.3966554,-0.036594745,0.30814168,0.4012223,-0.2562831,0.004308131,0.00021646929,0.011664725,0.005684276,-0.0011462775,-0.00034762072,-0.0010003077,-0.042705666,-0.26361933,-0.059405502,-3.0842023,0.0,0.1,-0.011664725,0.005255655,0.00360494,0.026069058,0.017261585,inf,inf,inf,inf,1,1,1,1,2,1,2,3,0,0,0
78667491,0,0.0,0.0,0.32130697,0.3968528,-0.03631637,0.30814168,0.4012223,-0.2562831,0.0020101662,0.0025751197,0.014885991,0.0088710105,-0.0011462775,-0.00034762072,-0.0010003077,0.3367616,0.9313609,-1.3045763,-3.0846198,0.0,0.1,-0.014885991,0.005317534,0.0036452834,0.026209004,0.017346468,inf,inf,inf,inf,1,1,1,1,2,1,2,3,0,0,0
78770669,0,0.0,0.0,0.3209251,0.39685518,-0.036071103,0.30814168,0.4012223,-0.2562831,-0.00321986,-0.00039901165,0.015861774,0.009763032,-0.0011462775,-0.00034762072,-0.0010003077,-0.71289796,-0.49018905,-0.13039638,-3.0847821,0.0,0.1,-0.015861774,0.0053754905,0.0036829258,0.026339646,0.017418325,inf,inf,inf,inf,1,1,1,1,2,1,2,3,0,0,0
78874716,0,0.0,0.0,0.32069558,0.39677507,-0.035887506,0.30814168,0.4012223,-0.2562831,0.0037351502,0.0016993395,0.009710342,0.003477085,-0.0011462775,-0.00034762072,-0.0010003077,0.20943768,0.7624069,-0.14552651,-3.0845141,0.0,0.1,-0.009710342,0.0050779586,0.0034901847,0.025576698,0.016971977,inf,inf,inf,inf,1,1,1,1,2,1,2,3,0,0,0
78978668,0,0.0,0.0,0.32066804,0.39664844,-0.03589189,0.30814168,0.4012223,-0.2562831,0.0023053763,0.0017934511,0.0067062,0.0003072896,-0.0011462775,-0.00034762072,-0.0010003077,0.36882994,1.5688869,0.16441567,-3.0845597,0.0,0.1,-0.0067062,0.0051546055,0.003539714,0.025787398,0.017099349,inf,inf,inf,inf,1,1,1,1,2,1,2,3,0,0,0
79082669,0,0.0,0.0,0.32071304,0.39634603,-0.035992153,0.30814168,0.4012223,-0.2562831,0.0042908257,-0.000275551,0.0074576708,0.00088843086,-0.0011462775,-0.00034762072,-0.0010003077,0.18127339,-0.369303,0.41105777,-3.084676,0.0,0.1,-0.0074576708,0.005203523,0.0035721043,0.025879055,0.01715195,inf,inf,inf,inf,1,1,1,1,2,1,2,3,0,0,0
79178674,0,0.0,0.0,0.3208496,0.39619884,-0.036081523,0.30814168,0.4012223,-0.2562831,0.004247238,-0.0053052623,0.012532231,0.0058181696,-0.0011462775,-0.00034762072,-0.0010003077,-0.6946229,-0.46290377,1.3431674,-3.0845487,0.0,0.1,-0.012532231,0.0051246407,0.0035209977,0.025682556,0.017047113,inf,inf,inf,inf,1,1,1,1,2,1,2,3,0,0,0
79282668,0,0.0,0.0,0.32109866,0.39597514,-0.03622558,0.30814168,0.4012223,-0.2562831,0.0036973981,-0.004934679,0.014437397,0.0076217516,-0.0011462775,-0.00034762072,-0.0010003077,-1.9721183,-1.6718326,1.9641293,-3.084287,0.0,0.1,-0.014437397,0.0052014072,0.0035705408,0.025886945,0.017156603,inf,inf,inf,inf,1,1,1,1,2,1,2,3,0,0,0
79386669,0,0.0,0.0,0.32162026,0.3956086,-0.036669966,0.30814168,0.4012223,-0.2562831,0.005254822,-0.0062830457,0.008517414,0.0016236787,-0.0011462775,-0.00034762072,-0.0010003077,0.43731642,-0.15644078,-0.76987594,-3.0847373,0.0,0.1,-0.008517414,0.0052730017,0.0036166876,0.026092224,0.017276652,inf,inf,inf,inf,1,1,1,1,2,1,2,3,0,0,0
79490669,0,0.0,0.0,0.3220323,0.39559957,-0.03703135,0.30814168,0.4012223,-0.2562831,0.0085049905,0.0030027211,0.00574485,-0.001255665,-0.0011462775,-0.00034762072,-0.0010003077,2.3477085,1.5282762,-2.3305955,-3.084571,0.0,0.1,-0.00574485,0.0053772107,0.0036828432,0.026419211,0.01746129,inf,inf,inf,inf,1,1,1,1,2,1,2,3,0,0,0
79590693,0,0.0,0.0,0.3222453,0.39565644,-0.03737141,0.30814168,0.4012223,-0.2562831,0.0045719254,-0.0021893894,0.015061026,0.007990846,-0.0011462775,-0.00034762072,-0.0010003077,0.084180385,-3.1020694,0.7443388,-3.0847008,0.0,0.1,-0.015061026,0.005455989,0.0037341446,0.026563514,0.017556623,inf,inf,inf,inf,1,1,1,1,2,1,2,3,0,0,0
79693875,0,0.0,0.0,0.32206562,0.39611715,-0.03755212,0.30814168,0.4012223,-0.2562831,-0.0020877873,0.006908697,0.010819288,0.003764837,-0.0011462775,-0.00034762072,-0.0010003077,-0.91476554,1.1648418,-0.99451,-3.0852275,0.0,0.1,-0.010819288,0.005470991,0.0037452492,0.026533443,0.017531581,inf,inf,inf,inf,1,1,1,1,2,1,2,3,0,0,0
79789874,0,0.0,0.0,0.32190657,0.39658058,-0.03771151,0.30814168,0.4012223,-0.2562831,0.009122565,0.0038789376,0.0049835234,-0.002028253,-0.0011462775,-0.00034762072,-0.0010003077,1.4654692,0.22211948,0.061083302,-3.0851004,0.0,0.1,-0.0049835234,0.005294293,0.0036301895,0.026011463,0.017189054,inf,inf,inf,inf,1,1,1,1,2,1,2,3,0,0,0
79893869,0,0.0,0.0,0.32166368,0.39693213,-0.037649874,0.30814168,0.4012223,-0.2562831,0.0061423667,-0.0029231845,0.007507234,0.00055371516,-0.0011462775,-0.00034762072,-0.0010003077,-0.9698715,-0.16886143,-0.6378746,-3.0846267,0.0,0.1,-0.007507234,0.0053956895,0.0036931324,0.026380803,0.017411428,inf,inf,inf,inf,1,1,1,1,2,1,2,3,0,0,0
79997875,0,0.0,0.0,0.32159525,0.39728653,-0.037642978,0.30814168,0.4012223,-0.2562831,0.0073972195,0.0010077958,0.011494116,0.0046234615,-0.0011462775,-0.00034762072,-0.0010003077,1.4758459,-1.8689396,2.3943167,-3.0847423,0.0,0.1,-0.011494116,0.005109453,0.0035083923,0.025659176,0.017002122,inf,inf,inf,inf,1,1,1,1,2,1,2,3,0,0,0
80101869,0,0.0,0.0,0.32191253,0.39723986,-0.037872747,0.30814168,0.4012223,-0.2562831,0.008093697,0.010997136,0.012380696,0.00555811,-0.0011462775,-0.00034762072,-0.0010003077,1.0666785,4.048173,2.6552885,-3.085134,0.0,0.1,-0.012380696,0.0051831715,0.0035564085,0.025857342,0.017125882,inf,inf,inf,inf,1,1,1,1,2,1,2,3,0,0,0
80197869,0,0.0,0.0,0.32206056,0.39734685,-0.037935518,0.30814168,0.4012223,-0.2562831,0.0036598656,-0.0063055772,0.011928522,0.005065594,-0.0011462775,-0.00034762072,-0.0010003077,-1.8465658,-0.1431517,2.379263,-3.085547,0.0,0.1,-0.011928522,0.005117475,0.003514339,0.025685653,0.017022869,inf,inf,inf,inf,1,1,1,1,2,1,2,3,0,0,0
80301880,0,0.0,0.0,0.32251024,0.3970891,-0.038222328,0.30814168,0.4012223,-0.2562831,0.01695616,-0.00034013845,0.0118825575,0.0049745436,-0.0011462775,-0.00034762072,-0.0010003077,2.0006015,1.2241579,-0.5075009,-3.0857973,0.0,0.100236446,-0.0118825575,0.0051688636,0.003548688,0.025783084,0.01707965,inf,inf,inf,inf,1,1,1,1,2,1,2,3,0,0,0
80401072,0,0.0,0.0,0.32309556,0.39684072,-0.038603995,0.30814168,0.4012223,-0.2562831,0.012228933,-0.004254001,0.012384198,0.0054002167,-0.0011462775,-0.00034762072,-0.0010003077,1.7522473,-1.4940155,-0.22062333,-3.086624,0.0,0.10061811,-0.012384198,0.005108567,0.0035092952,0.025662046,0.017019415,inf,inf,inf,inf,1,1,1,1,2,1,2,3,0,0,0
80504328,0,0.0,0.0,0.32327458,0.39675084,-0.038478386,0.30814168,0.4012223,-0.2562831,0.013529419,0.0059185578,0.013784942,0.0066635762,-0.0011462775,-0.00034762072,-0.0010003077,1.3151674,1.4042885,-0.69862354,-3.0865793,0.0,0.1004925,-0.013784942,0.0052153203,0.0035774196,0.02598943,0.017203216,inf,inf,inf,inf,1,1,1,1,2,1,2,3,0,0,0
80609070,0,0.0,0.0,0.3233325,0.39707097,-0.03843696,0.30814168,0.4012223,-0.2562831,-0.00082648726,0.014304379,0.015328274,0.008166913,-0.0011462775,-0.00034762072,-0.0010003077,-1.9053354,3.7584095,2.1576233,-3.087101,0.0,0.100451075,-0.015328274,0.005348627,0.0036640165,0.026480202,0.017521342,inf,inf,inf,inf,1,1,1,1,2,1,2,3,0,0,0
80705078,0,0.0,0.0,0.32337314,0.39718652,-0.03859586,0.30814168,0.4012223,-0.2562831,0.015157907,0.009556085,0.0073334924,0.0001425719,-0.0011462775,-0.00034762072,-0.0010003077,-0.71111965,0.9209709,0.10645054,-3.0873144,0.0,0.10060997,-0.0073334924,0.0052646026,0.0036105006,0.026194233,0.017347472,inf,inf,inf,inf,1,1,1,1,2,1,2,3,0,0,0
80809078,0,0.0,0.0,0.3239234,0.3970368,-0.039408736,0.30814168,0.4012223,-0.2562831,0.0055415104,-0.0014839093,0.0038956096,-0.0034748542,-0.0011462775,-0.00034762072,-0.0010003077,-2.385539,0.8269888,-0.33018804,-3.0875354,0.0,0.10142285,-0.0038956096,0.0053630415,0.0036734648,0.026443738,0.017489364,inf,inf,inf,inf,1,1,1,1,2,1,2,3,0,0,0
80913075,0,0.0,0.0,0.32406256,0.3961445,-0.04022488,0.30814168,0.4012223,-0.2562831,0.0073483535,0.0006814251,0.016623987,0.008836013,-0.0011462775,-0.00034762072,-0.0010003077,1.7468449,2.2436023,1.9154596,-3.0860481,0.0,0.102239,-0.016623987,0.0054151407,0.003708266,0.026459021,0.017486243,inf,inf,inf,inf,1,1,1,1,2,1,2,3,0,0,0
81017075,0,0.0,0.0,0.32331416,0.39562753,-0.04024607,0.30814168,0.4012223,-0.2562831,0.007899126,0.0037552984,0.020865813,0.012606176,-0.0011462775,-0.00034762072,-0.0010003077,0.72609943,1.1668961,1.5447649,-3.0846398,0.0,0.10226019,-0.020865813,0.0051161516,0.0035147197,0.025688179,0.017014248,inf,inf,inf,inf,1,1,1,1,2,1,2,3,0,0,0
81121069,0,0.0,0.0,0.32235283,0.39598656,-0.04002765,0.30814168,0.4012223,-0.2562831,-0.0038392001,0.0035305966,0.014474289,0.006014007,-0.0011462775,-0.00034762072,-0.0010003077,-0.7574697,0.69777125,-0.13145064,-3.0860298,0.0,0.102041766,-0.014474289,0.0051980535,0.003567055,0.02588466,0.017136082,inf,inf,inf,inf,1,1,1,1,2,1,2,3,0,0,0
81223499,0,0.0,0.0,0.3209796,0.39635727,-0.03961922,0.30814168,0.4012223,-0.2562831,0.004888792,-0.003964641,0.016819395,0.008316555,-0.0011462775,-0.00034762072,-0.0010003077,0.31827316,-2.0721052,-1.2919534,-3.0859797,0.0,0.10163333,-0.016819395,0.005272437,0.0036139586,0.02608789,0.01723411,inf,inf,inf,inf,1,1,1,1,2,1,2,3,0,0,0
81321081,0,0.0,0.0,0.31960365,0.39672008,-0.038910314,0.30814168,0.4012223,-0.2562831,-0.0039320686,-0.0019803585,0.02259461,0.013999308,-0.0011462775,-0.00034762072,-0.0010003077,-0.11809787,1.0190595,-0.98059696,-3.0861356,0.0,0.10092443,-0.02259461,0.0051712818,0.0035489085,0.025779547,0.017059475,inf,inf,inf,inf,1,1,1,1,2,1,2,3,0,0,0
81424327,0,0.0,0.0,0.31883192,0.39779952,-0.03852504,0.30814168,0.4012223,-0.2562831,0.0004133647,0.014744193,0.019502776,0.0106751975,-0.0011462775,-0.00034762072,-0.0010003077,-2.717888,0.45201203,2.356626,-3.0851498,0.0,0.100539155,-0.019502776,0.005243834,0.0035945387,0.026027817,0.017205844,inf,inf,inf,inf,1,1,1,1,2,1,2,3,0,0,0
81528272,0,0.0,0.0,0.3184528,0.39846,-0.03831102,0.30814168,0.4012223,-0.2562831,-0.0042849355,-0.0060219513,0.019511757,0.010337756,-0.0011462775,-0.00034762072,-0.0010003077,-0.35623097,0.14634755,1.9658558,-3.0860791,0.0,0.10032514,-0.019511757,0.0053175716,0.0036410277,0.026240237,0.017324077,inf,inf,inf,inf,1,1,1,1,2,1,2,3,0,0,0
81624319,0,0.0,0.0,0.31874058,0.39840958,-0.03865323,0.30814168,0.4012223,-0.2562831,0.0071330685,0.0062394813,0.013955448,0.0043775868,-0.0011462775,-0.00034762072,-0.0010003077,-2.8406029,1.612923,-0.55025285,-3.0856788,0.0,0.10066734,-0.013955448,0.005261454,0.0036041676,0.026109563,0.017243871,inf,inf,inf,inf,1,1,1,1,2,1,2,3,0,0,0
81728304,0,0.0,0.0,0.31884873,0.39820585,-0.038792986,0.30814168,0.4012223,-0.2562831,0.0005509525,0.005259731,0.023499206,0.013474875,-0.0011462775,-0.00034762072,-0.0010003077,0.40830687,0.41396856,0.10508107,-3.085681,0.0,0.1008071,-0.023499206,0.005338262,0.003653954,0.02628714,0.017359516,inf,inf,inf,inf,1,1,1,1,2,1,2,3,0,0,0
81832283,0,0.0,0.0,0.31902394,0.3981809,-0.038805228,0.30814168,0.4012223,-0.2562831,0.00028095764,0.008228229,0.026081169,0.015682667,-0.0011462775,-0.00034762072,-0.0010003077,-0.88531107,2.1358528,0.52556604,-3.0863976,0.0,0.10081934,-0.026081169,0.005048626,0.0034676823,0.025518272,0.0169018,inf,inf,inf,inf,1,1,1,1,2,1,2,3,0,0,0
81936305,0,0.0,0.0,0.31902224,0.39784798,-0.038745675,0.30814168,0.4012223,-0.2562831,0.007941223,0.00041131338,0.025731446,0.0151617825,-0.0011462775,-0.00034762072,-0.0010003077,3.1693864,1.3382075,1.5892053,-3.0852537,0.0,0.10075979,-0.025731446,0.005123694,0.0035163772,0.025706261,0.017007317,inf,inf,inf,inf,1,1,1,1,2,1,2,3,0,0,0
82032312,0,0.0,0.0,0.31900072,0.39749274,-0.03855281,0.30814168,0.4012223,-0.2562831,0.0017563255,0.0011398906,0.018673932,0.008007675,-0.0011462775,-0.00034762072,-0.0010003077,-0.07031868,-2.5309074,-1.8416237,-3.0860288,0.0,0.10056692,-0.018673932,0.005422535,0.0037084688,0.026477117,0.017462289,inf,inf,inf,inf,1,1,1,1,2,1,2,3,0,0,0
82140286,0,0.0,0.0,0.31868166,0.39713794,-0.03809835,0.30814168,0.4012223,-0.2562831,0.010789441,0.0015917585,0.01578946,0.004971442,-0.0011462775,-0.00034762072,-0.0010003077,0.08162736,-3.2428608,-1.1044707,-3.0863616,0.0,0.10011247,-0.01578946,0.005149696,0.0035328437,0.025789594,0.01706638,inf,inf,inf,inf,1,1,1,1,2,1,2,3,0,0,0
82243469,0,0.0,0.0,0.31900904,0.39695147,-0.038250916,0.30814168,0.4012223,-0.2562831,0.0073978743,0.0017307645,0.011318238,0.0003412251,-0.0011462775,-0.00034762072,-0.0010003077,1.3344734,1.8653879,-2.9463048,-3.0858295,0.0,0.100265026,-0.011318238,0.005283274,0.0036197272,0.026256258,0.01736632,inf,inf,inf,inf,1,1,1,1,2,1,2,3,0,0,0
82339476,0,0.0,0.0,0.318694,0.3966985,-0.037989635,0.30814168,0.4012223,-0.2562831,0.00293317,-0.000558645,0.027960014,0.016745731,-0.0011462775,-0.00034762072,-0.0010003077,2.1841571,2.7434895,2.068298,-3.0860555,0.0,0.10000375,-0.027960014,0.0051849806,0.0035579687,0.025953446,0.017178573,inf,inf,inf,inf,1,1,1,1,2,1,2,3,0,0,0
82443471,0,0.0,0.0,0.31831095,0.3967282,-0.037724216,0.30814168,0.4012223,-0.2562831,0.0011301945,-0.016457636,0.022158666,0.010664857,-0.0011462775,-0.00034762072,-0.0010003077,0.12972002,-2.3184783,0.65865296,-3.0864172,0.0,0.1,-0.022158666,0.0052431724,0.0035950278,0.026056776,0.01724271,inf,inf,inf,inf,1,1,1,1,2,1,2,3,0,0,0
82547500,0,0.0,0.0,0.3180461,0.3966223,-0.037563093,0.30814168,0.4012223,-0.2562831,-0.0046760286,-0.004146639,0.022231486,0.010515829,-0.0011462775,-0.00034762072,-0.0010003077,-2.7241342,-1.0704403,1.2861736,-3.0856795,0.0,0.1,-0.022231486,0.005294573,0.0036286598,0.026144302,0.017283842,inf,inf,inf,inf,1,1,1,1,2,1,2,3,0,0,0
82651478,0,0.0,0.0,0.31777203,0.39624435,-0.03748781,0.30814168,0.4012223,-0.2562831,0.004962591,-0.009512695,0.016298829,0.0043050656,-0.0011462775,-0.00034762072,-0.0010003077,-0.12848252,-1.8226463,0.17515144,-3.0861082,0.0,0.1,-0.016298829,0.0053822165,0.0036839177,0.026398933,0.017422464,inf,inf,inf,inf,1,1,1,1,2,1,2,3,0,0,0
82747468,0,0.0,0.0,0.31789717,0.39590505,-0.037693765,0.30814168,0.4012223,-0.2562831,0.0037149559,0.0027022434,0.030566193,0.018308425,-0.0011462775,-0.00034762072,-0.0010003077,0.09319231,2.853559,0.6685903,-3.0861259,0.0,0.1,-0.030566193,0.0053025954,0.0036326975,0.026172834,0.017283637,inf,inf,inf,inf,1,1,1,1,2,1,2,3,0,0,0
82851505,0,0.0,0.0,0.31767485,0.395667,-0.037628837,0.30814168,0.4012223,-0.2562831,-0.0006306262,0.0015437588,0.025431268,0.012873599,-0.0011462775,-0.00034762072,-0.0010003077,0.008028974,2.2001438,1.9474986,-3.085821,0.0,0.1,-0.025431268,0.005373468,0.0036775966,0.026374843,0.017405335,inf,inf,inf,inf,1,1,1,1,2,1,2,3,0,0,0
82955468,0,0.0,0.0,0.31772327,0.39539704,-0.03779647,0.30814168,0.4012223,-0.2562831,-0.00015073424,-0.011168166,0.019190984,0.006380035,-0.0011462775,-0.00034762072,-0.0010003077,0.29500887,2.075984,0.36977986,-3.085834,0.0,0.1,-0.019190984,0.0050861877,0.0034923975,0.025608469,0.016957382,inf,inf,inf,inf,1,1,1,1,2,1,2,3,0,0,0
83058669,0,0.0,0.0,0.31790257,0.39478832,-0.03795365,0.30814168,0.4012223,-0.2562831,0.005526759,-0.013949957,0.02629133,0.013267771,-0.0011462775,-0.00034762072,-0.0010003077,0.83134013,-4.09644,1.6761457,-3.0858562,0.0,0.1,-0.02629133,0.0051242705,0.0035178554,0.025661377,0.016984003,inf,inf,inf,inf,1,1,1,1,2,1,2,3,0,0,0
83162669,0,0.0,0.0,0.3177617,0.39422587,-0.037841484,0.30814168,0.4012223,-0.2562831,0.003915038,0.0033823706,0.020674098,0.0074161403,-0.0011462775,-0.00034762072,-0.0010003077,1.0031271,2.9656363,-1.3142033,-3.085544,0.0,0.1,-0.020674098,0.005190032,0.0035594497,0.025854513,0.017099166,inf,inf,inf,inf,1,1,1,1,2,1,2,3,0,0,0
83266671,0,0.0,0.0,0.3179023,0.39375988,-0.03780232,0.30814168,0.4012223,-0.2562831,0.0027985806,-0.024695849,0.015239868,0.0018190882,-0.0011462775,-0.00034762072,-0.0010003077,-2.130712,-2.4888349,-1.9885443,-3.086386,0.0,0.1,-0.015239868,0.0052866014,0.0036208106,0.026152635,0.017271262,inf,inf,inf,inf,1,1,1,1,2,1,2,3,0,0,0
83362669,0,0.0,0.0,0.31826496,0.39278245,-0.03807896,0.30814168,0.4012223,-0.2562831,0.008363915,-0.011121399,0.027819041,0.014282313,-0.0011462775,-0.00034762072,-0.0010003077,1.017033,3.289234,0.68986404,-3.085211,0.0,0.100093074,-0.027819041,0.0052136434,0.0035743513,0.02594311,0.017153246,inf,inf,inf,inf,1,1,1,1,2,1,2,3,0,0,0
83466675,0,0.0,0.0,0.31810728,0.39228377,-0.037865393,0.30814168,0.4012223,-0.2562831,-0.009530757,-0.012896713,0.034807976,0.021048585,-0.0011462775,-0.00034762072,-0.0010003077,-2.1939769,-2.019613,0.98357666,-3.0858948,0.0,0.1,-0.034807976,0.0052792607,0.0036169272,0.026103538,0.017256029,inf,inf,inf,inf,1,1,1,1,2,1,2,3,0,0,0
83570701,0,0.0,0.0,0.31815657,0.39215982,-0.037882525,0.30814168,0.4012223,-0.2562831,0.0059033455,-0.0017253212,0.018690724,0.00478644,-0.0011462775,-0.00034762072,-0.0010003077,-0.042591505,4.353734,0.90257895,-3.085986,0.0,0.1,-0.018690724,0.0053754398,0.0036783917,0.02637546,0.017410213,inf,inf,inf,inf,1,1,1,1,2,1,2,3,0,0,0
83666669,0,0.0,0.0,0.31816188,0.39175913,-0.03792627,0.30814168,0.4012223,-0.2562831,0.0013971318,-0.0102362465,0.023864169,0.009887069,-0.0011462775,-0.00034762072,-0.0010003077,-0.74232996,-0.60144204,-1.4701631,-3.0853937,0.0,0.1,-0.023864169,0.0052641924,0.0036085453,0.026003102,0.01719978,inf,inf,inf,inf,1,1,1,1,2,1,2,3,0,0,0
83770683,0,0.0,0.0,0.3182532,0.39171052,-0.038060766,0.30814168,0.4012223,-0.2562831,0.007898758,-0.0011588219,0.025706733,0.011528073,-0.0011462775,-0.00034762072,-0.0010003077,-0.4042173,1.397754,0.23710145,-3.0855303,0.0,0.10007488,-0.025706733,0.0053525213,0.0036639425,0.026323888,0.01738088,inf,inf,inf,inf,1,1,1,1,2,1,2,3,0,0,0
83874705,0,0.0,0.0,0.31843448,0.39175028,-0.03822149,0.30814168,0.4012223,-0.2562831,0.005716014,-0.00082669884,0.025729634,0.011395896,-0.0011462775,-0.00034762072,-0.0010003077,2.924442,2.496025,-0.22983664,-3.0852892,0.0,0.100235604,-0.025729634,0.0054277014,0.0037124914,0.026504744,0.017494379,inf,inf,inf,inf,1,1,1,1,2,1,2,3,0,0,0
83977875,0,0.0,0.0,0.31884983,0.39199764,-0.038356077,0.30814168,0.4012223,-0.2562831,0.00058190676,-0.009182324,0.026055122,0.011598636,-0.0011462775,-0.00034762072,-0.0010003077,-0.97006595,2.1059217,0.8140591,-3.0856948,0.0,0.10037019,-0.026055122,0.005135975,0.0035248608,0.025742112,0.017034972,inf,inf,inf,inf,1,1,1,1,2,1,2,3,0,0,0
84081870,0,0.0,0.0,0.31867447,0.39221305,-0.03809446,0.30814168,0.4012223,-0.2562831,-0.00018042776,-0.0123963,0.03313885,0.0185768,-0.0011462775,-0.00034762072,-0.0010003077,-2.1825693,0.48971197,1.8815563,-3.0853724,0.0,0.10010858,-0.03313885,0.005215771,0.0035761148,0.02597296,0.017172357,inf,inf,inf,inf,1,1,1,1,2,1,2,3,0,0,0
84177880,0,0.0,0.0,0.31883526,0.3925547,-0.038146436,0.30814168,0.4012223,-0.2562831,0.017255818,-0.005503997,0.01347505,-0.0011097762,-0.0011462775,-0.00034762072,-0.0010003077,1.6590592,0.49242124,-2.6232147,-3.0856495,0.0,0.100160554,-0.01347505,0.005522755,0.003772858,0.026745463,0.017634036,inf,inf,inf,inf,1,1,1,1,2,1,2,3,0,0,0
84281879,0,0.0,0.0,0.31901175,0.39270172,-0.03833069,0.30814168,0.4012223,-0.2562831,0.0017984479,-0.011408347,0.02976179,0.015120299,-0.0011462775,-0.00034762072,-0.0010003077,-1.1370126,-1.7972591,-0.9107851,-3.0862236,0.0,0.10034481,-0.02976179,0.005187949,0.00355913,0.025844514,0.017102888,inf,inf,inf,inf,1,1,1,1,2,1,2,3,0,0,0
84385891,0,0.0,0.0,0.31907797,0.39246583,-0.038568486,0.30814168,0.4012223,-0.2562831,0.008314018,0.00024221661,0.022135288,0.0073385052,-0.0011462775,-0.00034762072,-0.0010003077,-0.60625416,4.195445,0.6766417,-3.085519,0.0,0.1005826,-0.022135288,0.005266144,0.0036087723,0.026083285,0.017242806,inf,inf,inf,inf,1,1,1,1,2,1,2,3,0,0,0
84481893,0,0.0,0.0,0.3192762,0.3923943,-0.039006006,0.30814168,0.4012223,-0.2562831,0.008159291,-0.0052731517,0.020905394,0.0060407473,-0.0011462775,-0.00034762072,-0.0010003077,0.025408914,-0.99093604,-1.0374329,-3.0853567,0.0,0.10102012,-0.020905394,0.00518614,0.0035579605,0.025850244,0.01711743,inf,inf,inf,inf,1,1,1,1,2,1,2,3,0,0,0
84585875,0,0.0,0.0,0.3189154,0.39212298,-0.03915246,0.30814168,0.4012223,-0.2562831,0.0065120715,-0.0075077075,0.022413565,0.0074970964,-0.0011462775,-0.00034762072,-0.0010003077,-0.54000366,0.9762846,-0.2804555,-3.0860984,0.0,0.101166576,-0.022413565,0.0052812253,0.0036186958,0.026134746,0.017269807,inf,inf,inf,inf,1,1,1,1,2,1,2,3,0,0,0
84689113,0,0.0,0.0,0.31921133,0.39198032,-0.03990487,0.30814168,0.4012223,-0.2562831,0.01131045,-0.026114948,0.013026633,-0.001780838,-0.0011462775,-0.00034762072,-0.0010003077,1.6406895,-2.8806443,-1.0285668,-3.0866482,0.0,0.10191898,-0.013026633,0.005343801,0.0036595059,0.026259359,0.01736549,inf,inf,inf,inf,1,1,1,1,2,1,2,3,0,0,0
84793069,0,0.0,0.0,0.31904578,0.39140844,-0.04007154,0.30814168,0.4012223,-0.2562831,-0.0010966264,-0.007492937,0.02915759,0.014421868,-0.0011462775,-0.00034762072,-0.0010003077,-0.38274843,-0.92510617,-0.10826165,-3.0856519,0.0,0.10208565,-0.02915759,0.0054367753,0.0037189955,0.02652636,0.017507475,inf,inf,inf,inf,1,1,1,1,2,1,2,3,0,0,0
84889075,0,0.0,0.0,0.31899816,0.3913065,-0.040080063,0.30814168,0.4012223,-0.2562831,0.0097838165,-0.016818635,0.0121787805,-0.0024763315,-0.0011462775,-0.00034762072,-0.0010003077,1.4950682,-0.15070964,-1.0206391,-3.0862105,0.0,0.10209417,-0.0121787805,0.0053350516,0.0036538644,0.026221039,0.017335674,inf,inf,inf,inf,1,1,1,1,2,1,2,3,0,0,0
84993082,0,0.0,0.0,0.319225,0.3908577,-0.040409006,0.30814168,0.4012223,-0.2562831,0.0031941948,-0.017747546,0.014546157,0.00010651263,-0.0011462775,-0.00034762072,-0.0010003077,-1.5890737,-1.8646814,-0.608943,-3.086202,0.0,0.10242312,-0.014546157,0.0054223733,0.0037095132,0.026490735,0.01748269,inf,inf,inf,inf,1,1,1,1,2,1,2,3,0,0,0
85097068,0,0.0,0.0,0.31931186,0.3906644,-0.04048238,0.30814168,0.4012223,-0.2562831,0.008331361,-0.0062161586,0.019704659,0.0053859157,-0.0011462775,-0.00034762072,-0.0010003077,0.4438583,1.2856612,-1.492681,-3.0858335,0.0,0.10249649,-0.019704659,0.0051349825,0.0035247023,0.025748827,0.017057145,inf,inf,inf,inf,1,1,1,1,2,1,2,3,0,0,0
85193075,0,0.0,0.0,0.31934008,0.39039233,-0.040648,0.30814168,0.4012223,-0.2562831,0.006680516,-0.023417108,0.011594282,-0.0026411791,-0.0011462775,-0.00034762072,-0.0010003077,-0.7814065,1.251943,-0.35419968,-3.0869308,0.0,0.10266212,-0.011594282,0.005429417,0.0037145636,0.02648851,0.017484035,inf,inf,inf,inf,1,1,1,1,2,1,2,3,0,0,0
85297068,0,0.0,0.0,0.3205649,0.38956046,-0.041989952,0.30814168,0.4012223,-0.2562831,0.014847846,-0.035794605,0.0031322867,-0.011026086,-0.0011462775,-0.00034762072,-0.0010003077,-0.6928952,-0.41838008,-0.15781237,-3.0843709,0.0,0.10400407,-0.0031322867,0.0054788175,0.0037469084,0.026591094,0.017545728,inf,inf,inf,inf,1,1,1,1,2,1,2,3,0,0,0
85401069,0,0.0,0.0,0.32153425,0.3881192,-0.043222144,0.30814168,0.4012223,-0.2562831,0.012450155,-0.032705273,0.018358786,0.0040281294,-0.0011462775,-0.00034762072,-0.0010003077,1.7414111,2.4327133,2.037083,-3.0835643,0.0,0.10523626,-0.018358786,0.005170383,0.0035484086,0.025836246,0.017104669,inf,inf,inf,inf,1,1,1,1,2,1,2,3,0,0,0
85496294,0,0.0,0.0,0.32212105,0.3872732,-0.044079106,0.30814168,0.4012223,-0.2562831,0.013649715,-0.02103375,0.018300978,0.0037643877,-0.0011462775,-0.00034762072,-0.0010003077,-1.7271708,-0.45441887,-1.0675108,-3.082237,0.0,0.10609322,-0.018300978,0.005483138,0.0037489757,0.026660029,0.017590107,inf,inf,inf,inf,1,1,1,1,2,1,2,3,0,0,0
85604347,0,0.0,0.0,0.32133487,0.38800663,-0.043752227,0.30814168,0.4012223,-0.2562831,-0.0073881205,0.0073033725,0.031299032,0.016774256,-0.0011462775,-0.00034762072,-0.0010003077,-2.2469378,2.958944,0.25487334,-3.0821157,0.0,0.10576634,-0.031299032,0.005209348,0.0035724507,0.025991993,0.017208349,inf,inf,inf,inf,1,1,1,1,2,1,2,3,0,0,0
85700269,0,0.0,0.0,0.32026213,0.39011163,-0.04331686,0.30814168,0.4012223,-0.2562831,0.0054935673,-0.0053434344,0.025495294,0.01131156,-0.0011462775,-0.00034762072,-0.0010003077,-0.7401541,-1.999552,0.075095266,-3.0843525,0.0,0.105330974,-0.025495294,0.0052012163,0.0035678607,0.02608679,0.017288044,inf,inf,inf,inf,1,1,1,1,2,1,2,3,0,0,0
85804300,0,0.0,0.0,0.31871834,0.39169556,-0.04287188,0.30814168,0.4012223,-0.2562831,-0.0016619166,-0.011346617,0.024712943,0.010976896,-0.0011462775,-0.00034762072,-0.0010003077,-2.0657463,-0.35992,-0.14999975,-3.083666,0.0,0.104885995,-0.024712943,0.00525892,0.003606207,0.02613898,0.017304646,inf,inf,inf,inf,1,1,1,1,2,1,2,3,0,0,0
85908276,0,0.0,0.0,0.31765947,0.3927067,-0.042847894,0.30814168,0.4012223,-0.2562831,-0.0013753868,-0.0032204387,0.01566077,0.0020292136,-0.0011462775,-0.00034762072,-0.0010003077,-3.227212,0.82456344,-1.7728016,-3.0814774,0.0,0.104862005,-0.01566077,0.0053362655,0.0036561082,0.026311273,0.0174118,inf,inf,inf,inf,1,1,1,1,2,1,2,3,0,0,0
86004307,0,0.0,0.0,0.31707,0.39352363,-0.042939667,0.30814168,0.4012223,-0.2562831,0.00041548343,0.013344547,0.0319903,0.018123675,-0.0011462775,-0.00034762072,-0.0010003077,-0.48769736,2.0407567,1.5389884,-3.081059,0.0,0.10495378,-0.0319903,0.005287061,0.0036241421,0.026195696,0.01733183,inf,inf,inf,inf,1,1,1,1,2,1,2,3,0,0,0
86108289,0,0.0,0.0,0.31667253,0.39474726,-0.04286329,0.30814168,0.4012223,-0.2562831,0.010510451,0.010320526,0.01883832,0.0045940466,-0.0011462775,-0.00034762072,-0.0010003077,-0.27768752,-1.4822594,-0.58803785,-3.0810585,0.0,0.104877405,-0.01883832,0.005349628,0.0036647823,0.026292989,0.01737194,inf,inf,inf,inf,1,1,1,1,2,1,2,3,0,0,0
86212269,0,0.0,0.0,0.31733125,0.39486644,-0.043911114,0.30814168,0.4012223,-0.2562831,0.004049597,-0.017316772,0.015755199,0.001156359,-0.0011462775,-0.00034762072,-0.0010003077,-3.5443208,1.8396329,0.34438106,-3.0810828,0.0,0.10592523,-0.015755199,0.0054035448,0.0036995704,0.026380248,0.0174294,inf,inf,inf,inf,1,1,1,1,2,1,2,3,0,0,0
86308268,0,0.0,0.0,0.3181791,0.39396596,-0.045081716,0.30814168,0.4012223,-0.2562831,0.0027979093,-0.01784597,0.016303876,0.0012032622,-0.0011462775,-0.00034762072,-0.0010003077,-1.1099825,-5.1859255,-1.7023902,-3.076613,0.0,0.10709583,-0.016303876,0.005310834,0.003638941,0.026181892,0.0172911,inf,inf,inf,inf,1,1,1,1,2,1,2,3,0,0,0
86411518,0,0.0,0.0,0.31882304,0.39263746,-0.045851935,0.30814168,0.4012223,-0.2562831,-0.0063667125,0.008923501,0.027713938,0.01197024,-0.0011462775,-0.00034762072,-0.0010003077,-2.7362082,4.3772616,0.10517767,-3.0758114,0.0,0.10786605,-0.027713938,0.005407754,0.003699819,0.02647794,0.017485568,inf,inf,inf,inf,1,1,1,1,2,1,2,3,0,0,0
86515492,0,0.0,0.0,0.31827888,0.3932723,-0.045327727,0.30814168,0.4012223,-0.2562831,-0.004775565,0.037221484,0.037978202,0.021784998,-0.0011462775,-0.00034762072,-0.0010003077,-0.7118435,6.732937,-0.2977008,-3.0751464,0.0,0.10734184,-0.037978202,0.005115332,0.003512095,0.025693823,0.017020617,inf,inf,inf,inf,1,1,1,1,2,1,2,3,0,0,0
86619469,0,0.0,0.0,0.3172181,0.39540622,-0.044256378,0.30814168,0.4012223,-0.2562831,-0.006101967,0.019971699,0.037214525,0.020968197,-0.0011462775,-0.00034762072,-0.0010003077,-1.9221717,0.9851225,-1.7011479,-3.0777292,0.0,0.10627049,-0.037214525,0.005158725,0.0035413257,0.02574814,0.017064294,inf,inf,inf,inf,1,1,1,1,2,1,2,3,0,0,0
86715484,0,0.0,0.0,0.31554008,0.3978917,-0.042683713,0.30814168,0.4012223,-0.2562831,-0.011639776,0.010792725,0.04591216,0.0297286,-0.0011462775,-0.00034762072,-0.0010003077,-2.2604325,-4.2775817,1.1291015,-3.0781977,0.0,0.10469782,-0.04591216,0.0054378826,0.0037219028,0.026480263,0.017512238,inf,inf,inf,inf,1,1,1,1,2,1,2,3,0,0,0
86819471,0,0.0,0.0,0.31432608,0.40008625,-0.04158648,0.30814168,0.4012223,-0.2562831,0.006156922,0.008885824,0.02341452,0.0071516577,-0.0011462775,-0.00034762072,-0.0010003077,0.78068984,-2.1698081,-0.15518285,-3.0784857,0.0,0.10360059,-0.02341452,0.0051224786,0.0035191767,0.025674274,0.017043144,inf,inf,inf,inf,1,1,1,1,2,1,2,3,0,0,0
86923507,0,0.0,0.0,0.31383288,0.40126473,-0.04114575,0.30814168,0.4012223,-0.2562831,0.0026141934,0.01628865,0.04124684,0.02454306,-0.0011462775,-0.00034762072,-0.0010003077,2.568951,0.7704035,0.8303607,-3.0779026,0.0,0.10315986,-0.04124684,0.005236454,0.0035921726,0.026048908,0.017252734,inf,inf,inf,inf,1,1,1,1,2,1,2,3,0,0,0
87019468,0,0.0,0.0,0.31342384,0.40131465,-0.040733278,0.30814168,0.4012223,-0.2562831,0.0014291204,0.017889628,0.03763528,0.020204756,-0.0011462775,-0.00034762072,-0.0010003077,-2.567771,4.9747934,1.4238293,-3.0777464,0.0,0.102747396,-0.03763528,0.005144637,0.003533383,0.025758987,0.017066093,inf,inf,inf,inf,1,1,1,1,2,1,2,3,0,0,0
87123469,0,0.0,0.0,0.31431776,0.40124914,-0.041533716,0.30814168,0.4012223,-0.2562831,0.002625864,0.02777277,0.028874189,0.010604229,-0.0011462775,-0.00034762072,-0.0010003077,-5.852982,3.840635,-0.4361831,-3.0780911,0.0,0.10354783,-0.028874189,0.005246827,0.0035986302,0.026057715,0.017254995,inf,inf,inf,inf,1,1,1,1,2,1,2,3,0,0,0
87227491,0,0.0,0.0,0.31532836,0.40063187,-0.04243941,0.30814168,0.4012223,-0.2562831,0.010203113,0.010508896,0.026471201,0.0073591853,-0.0011462775,-0.00034762072,-0.0010003077,5.0775375,2.9920015,0.032930482,-3.077511,0.0,0.10445352,-0.026471201,0.005314706,0.0036429355,0.0262097,0.017330887,inf,inf,inf,inf,1,1,1,1,2,1,2,3,0,0,0
87330669,0,0.0,0.0,0.31562617,0.39834005,-0.043115277,0.30814168,0.4012223,-0.2562831,0.0017533392,-0.0100081945,0.034418076,0.014537371,-0.0011462775,-0.00034762072,-0.0010003077,4.14325,1.7083104,-0.10936375,-3.0775113,0.0,0.10512939,-0.034418076,0.0053748977,0.0036817326,0.026329897,0.017410183,inf,inf,inf,inf,1,1,1,1,2,1,2,3,0,0,0
87426669,0,0.0,0.0,0.31569254,0.3960335,-0.04359782,0.30814168,0.4012223,-0.2562831,0.004905948,0.0020299414,0.030665802,0.010336401,-0.0011462775,-0.00034762072,-0.0010003077,3.170727,-0.3156213,1.0264835,-3.0759838,0.0,0.105611935,-0.030665802,0.0052616214,0.0036103032,0.025993818,0.017229099,inf,inf,inf,inf,1,1,1,1,2,1,2,3,0,0,0
87530669,0,0.0,0.0,0.31630602,0.39397836,-0.04454242,0.30814168,0.4012223,-0.2562831,-0.0014127059,-0.014363361,0.03210652,0.0115257045,-0.0011462775,-0.00034762072,-0.0010003077,-3.410781,-4.030109,0.13212201,-3.0763865,0.0,0.106556535,-0.03210652,0.0053383424,0.0036596633,0.026261015,0.017393941,inf,inf,inf,inf,1,1,1,1,2,1,2,3,0,0,0
87634677,0,0.0,0.0,0.31612515,0.3938603,-0.04462288,0.30814168,0.4012223,-0.2562831,-0.004533414,0.01421084,0.029188497,0.008413346,-0.0011462775,-0.00034762072,-0.0010003077,-7.201445,-3.0999138,0.16436018,-3.0736723,0.0,0.10663699,-0.029188497,0.0054208674,0.0037127694,0.026484367,0.017510101,inf,inf,inf,inf,1,1,1,1,2,1,2,3,0,0,0
87730718,0,0.0,0.0,0.3168215,0.39449546,-0.045645345,0.30814168,0.4012223,-0.2562831,0.0045003705,-0.012699367,0.029420178,0.008535187,-0.0011462775,-0.00034762072,-0.0010003077,0.34132546,-4.50684,3.035065,-3.0762122,0.0,0.10765946,-0.029420178,0.0053547095,0.0036699788,0.026302425,0.01743641,inf,inf,inf,inf,1,1,1,1,2,1,2,3,0,0,0
87834669,0,0.0,0.0,0.3168026,0.39424947,-0.045776103,0.30814168,0.4012223,-0.2562831,-0.0058754357,0.002537946,0.042255368,0.021152887,-0.0011462775,-0.00034762072,-0.0010003077,-0.19897443,4.1029305,2.4985194,-3.074498,0.0,0.10779022,-0.042255368,0.00542769,0.003717518,0.026502967,0.017540898,inf,inf,inf,inf,1,1,1,1,2,1,2,3,0,0,0
87938675,0,0.0,0.0,0.31677133,0.3936313,-0.04586053,0.30814168,0.4012223,-0.2562831,0.012436215,0.005481236,0.03674127,0.015338023,-0.0011462775,-0.00034762072,-0.0010003077,0.8641669,1.8278059,-0.59592974,-3.071511,0.0,0.10787465,-0.03674127,0.005135937,0.003529131,0.025737375,0.017108392,inf,inf,inf,inf,1,1,1,1,2,1,2,3,0,0,0
88042668,0,0.0,0.0,0.31644958,0.3939081,-0.045648858,0.30814168,0.4012223,-0.2562831,-0.0015385123,0.0032105835,0.037707727,0.01614081,-0.0011462775,-0.00034762072,-0.0010003077,-6.160863,0.80202556,-1.7842456,-3.0708892,0.0,0.107662976,-0.037707727,0.005211638,0.0035792235,0.025938045,0.017231222,inf,inf,inf,inf,1,1,1,1,2,1,2,3,0,0,0
88138677,0,0.0,0.0,0.31579232,0.39440852,-0.04536451,0.30814168,0.4012223,-0.2562831,0.0051122424,-0.0039683706,0.04448141,0.02281147,-0.0011462775,-0.00034762072,-0.0010003077,5.4826927,-2.7493517,4.4360824,-3.0701592,0.0,0.107378624,-0.04448141,0.005128183,0.0035263293,0.025689194,0.017081546,inf,inf,inf,inf,1,1,1,1,2,1,2,3,0,0,0
88241894,0,0.0,0.0,0.31592876,0.39406735,-0.046385583,0.30814168,0.4012223,-0.2562831,0.022009555,-0.0022206327,0.03147414,0.009663977,-0.0011462775,-0.00034762072,-0.0010003077,6.3968296,3.3433425,0.77957326,-3.0686817,0.0,0.1083997,-0.03147414,0.0052018794,0.0035746705,0.025886474,0.017227115,inf,inf,inf,inf,1,1,1,1,2,1,2,3,0,0,0
88345868,0,0.0,0.0,0.31724554,0.39319915,-0.048462927,0.30814168,0.4012223,-0.2562831,0.010439222,-0.0049703317,0.00939408,-0.012875523,-0.0011462775,-0.00034762072,-0.0010003077,-1.2100571,-0.4536564,-3.4924958,-3.0579364,0.0,0.110477045,-0.00939408,0.0052886326,0.003630531,0.026157182,0.017368121,inf,inf,inf,inf,1,1,1,1,2,1,2,3,0,0,0
88449875,0,0.0,0.0,0.3181432,0.38965225,-0.05030025,0.30814168,0.4012223,-0.2562831,0.029905241,-0.0288794,0.034127537,0.011121324,-0.0011462775,-0.00034762072,-0.0010003077,4.9224715,2.3247967,-0.44806993,-3.0417776,0.0,0.112314366,-0.034127537,0.0053384975,0.0036619452,0.026242418,0.017383087,inf,inf,inf,inf,1,1,1,1,2,1,2,3,0,0,0
88545871,0,0.0,0.0,0.31878898,0.38381514,-0.051739626,0.30814168,0.4012223,-0.2562831,-0.0087283775,-0.038917888,0.022743424,-0.0007492375,-0.0011462775,-0.00034762072,-0.0010003077,-6.8101544,1.8340491,-0.8106954,-3.024864,0.0,0.113753736,-0.022743424,0.0052501205,0.00360515,0.026014453,0.017289463,inf,inf,inf,inf,1,1,1,1,2,1,2,3,0,0,0
88649869,0,0.0,0.0,0.31940028,0.37611824,-0.053231556,0.30814168,0.4012223,-0.2562831,0.023579875,-0.062004764,0.01116383,-0.012331961,-0.0011462775,-0.00034762072,-0.0010003077,-6.787602,-6.2931023,0.058720384,-3.0007005,0.0,0.11524567,-0.01116383,0.005322084,0.0036537128,0.026205571,0.017416582,inf,inf,inf,inf,1,1,1,1,2,1,2,3,0,0,0
88753884,0,0.0,0.0,0.32203862,0.36709455,-0.055802774,0.30814168,0.4012223,-0.2562831,0.033634964,-0.05610624,-0.0013219656,-0.02462312,-0.0011462775,-0.00034762072,-0.0010003077,-5.3328485,-2.1953912,-4.6617293,-2.9743276,0.0,0.11781689,0.0013219656,0.0053947023,0.003702462,0.026440443,0.017547872,inf,inf,inf,inf,1,1,1,1,2,1,2,3,0,0,0
88849869,0,0.0,0.0,0.32495025,0.3583676,-0.05944331,0.30814168,0.4012223,-0.2562831,0.024764039,-0.06998591,0.008246395,-0.015126415,-0.0011462775,-0.00034762072,-0.0010003077,-1.1514577,-0.9823696,5.03481,-2.9466815,0.0,0.12145743,-0.008246395,0.005062851,0.0034832626,0.025818117,0.01712,inf,inf,inf,inf,1,1,1,1,2,1,2,3,0,0,0
88953868,0,0.0,0.0,0.32850024,0.3490634,-0.06178803,0.30814168,0.4012223,-0.2562831,0.03628792,-0.066206016,0.020495288,-0.0031872059,-0.0011462775,-0.00034762072,-0.0010003077,-1.6306407,-1.1413707,-0.43006143,-2.9201384,0.0,0.12380214,-0.020495288,0.0052167904,0.0035788973,0.026332807,0.017357523,inf,inf,inf,inf,1,1,1,1,2,1,2,3,0,0,0
89057075,0,0.0,0.0,0.33296955,0.34105596,-0.06209071,0.30814168,0.4012223,-0.2562831,0.04122313,-0.051583458,0.054668415,0.031066608,-0.0011462775,-0.00034762072,-0.0010003077,-5.159038,-3.84169,0.5882031,-2.892515,0.0,0.12410483,-0.054668415,0.0053261225,0.0036452764,0.026673263,0.017483884,inf,inf,inf,inf,1,1,1,1,2,1,2,3,0,0,0
89161069,0,0.0,0.0,0.33767372,0.3343807,-0.059993066,0.30814168,0.4012223,-0.2562831,0.056432683,-0.024091333,0.043195646,0.020589694,-0.0011462775,-0.00034762072,-0.0010003077,1.5699693,5.667009,-1.1470008,-2.870299,0.0,0.12200718,-0.043195646,0.005383922,0.0036759637,0.026923638,0.017461691,inf,inf,inf,inf,1,1,1,1,2,1,2,3,0,0,0
89257069,0,0.0,0.0,0.34150308,0.32949266,-0.05733834,0.30814168,0.4012223,-0.2562831,0.04316723,-0.028597096,0.049492076,0.028378328,-0.0011462775,-0.00034762072,-0.0010003077,-1.0705245,-0.00818568,-0.67364687,-2.8538418,0.0,0.11935245,-0.049492076,0.0052983738,0.0036123374,0.026918884,0.017343484,inf,inf,inf,inf,1,1,1,1,2,1,2,3,0,0,0
89361098,0,0.0,0.0,0.34433228,0.3263519,-0.05348513,0.30814168,0.4012223,-0.2562831,0.028869566,0.0036553205,0.05517759,0.03550624,-0.0011462775,-0.00034762072,-0.0010003077,0.9939177,0.14888398,-1.6778593,-2.8363109,0.0,0.11549924,-0.05517759,0.0054064994,0.003664095,0.027535727,0.017493049,inf,inf,inf,inf,1,1,1,1,2,1,2,3,0,0,0
89465069,0,0.0,0.0,0.34548312,0.3268609,-0.049187895,0.30814168,0.4012223,-0.2562831,0.04558096,0.04178221,0.046071716,0.02738056,-0.0011462775,-0.00034762072,-0.0010003077,1.0049975,1.8085388,-1.6691447,-2.8267336,0.0,0.11120201,-0.046071716,0.0051648105,0.003497569,0.027100077,0.017119274,inf,inf,inf,inf,1,1,1,1,2,1,2,3,0,0,0
89561084,0,0.0,0.0,0.34719637,0.33136502,-0.04758275,0.30814168,0.4012223,-0.2562831,0.052253116,0.078436434,0.03115078,0.012869543,-0.0011462775,-0.00034762072,-0.0010003077,0.3598586,4.068746,0.33890346,-2.8258467,0.0,0.10959686,-0.03115078,0.005531842,0.0037089807,0.02822915,0.01763175,inf,inf,inf,inf,1,1,1,1,2,1,2,3,0,0,0
89665076,0,0.0,0.0,0.35001174,0.34001863,-0.04715737,0.30814168,0.4012223,-0.2562831,0.06354013,0.09461035,0.02456427,0.0057667666,-0.0011462775,-0.00034762072,-0.0010003077,1.8058044,-0.89985245,-1.2986987,-2.8313322,0.0,0.10917148,-0.02456427,0.0056269513,0.0037539066,0.02851801,0.017652025,inf,inf,inf,inf,1,1,1,1,2,1,2,3,0,0,0
89769073,0,0.0,0.0,0.35254422,0.34960777,-0.048161227,0.30814168,0.4012223,-0.2562831,0.06222624,0.1119274,0.0337398,0.013626787,-0.0011462775,-0.00034762072,-0.0010003077,2.2576213,4.553782,0.46565643,-2.8387718,0.0,0.11017534,-0.0337398,0.005294403,0.0035463665,0.027489468,0.017126257,inf,inf,inf,inf,1,1,1,1,2,1,2,3,0,0,0
89871502,0,0.0,0.0,0.35379887,0.3585387,-0.049221598,0.30814168,0.4012223,-0.2562831,0.051978912,0.114233345,0.043229766,0.021838587,-0.0011462775,-0.00034762072,-0.0010003077,1.8958501,1.1111139,1.3456147,-2.8541954,0.0,0.11123571,-0.043229766,0.0053625735,0.003585432,0.0274954,0.017192692,inf,inf,inf,inf,1,1,1,1,2,1,2,3,0,0,0
89976280,0,0.0,0.0,0.3532194,0.3670363,-0.04986176,0.30814168,0.4012223,-0.2562831,0.023674805,0.101211034,0.020362835,-0.0016745555,-0.0011462775,-0.00034762072,-0.0010003077,-1.7033869,-4.818762,-0.063468784,-2.867613,0.0,0.11187588,-0.020362835,0.0054177134,0.003623172,0.027414389,0.017285757,inf,inf,inf,inf,1,1,1,1,2,1,2,3,0,0,0
90072285,0,0.0,0.0,0.35222873,0.37371287,-0.05284999,0.30814168,0.4012223,-0.2562831,0.049610265,0.10802574,-0.001798537,-0.02381119,-0.0011462775,-0.00034762072,-0.0010003077,-0.9195303,-4.343468,-0.77216643,-2.8751707,0.0,0.1148641,0.001798537,0.005334519,0.0035805295,0.026992671,0.017189069,inf,inf,inf,inf,1,1,1,1,2,1,2,3,0,0,0
90176268,0,0.0,0.0,0.3525797,0.3810256,-0.056635987,0.30814168,0.4012223,-0.2562831,0.06653135,0.13100667,0.0016558538,-0.020380707,-0.0011462775,-0.00034762072,-0.0010003077,-1.2475705,1.2250134,-0.9284802,-2.8910751,0.0,0.1186501,-0.0016558538,0.005439254,0.0036574663,0.027136372,0.017406706,inf,inf,inf,inf,1,1,1,1,2,1,2,3,0,0,0
90280269,0,0.0,0.0,0.3547673,0.38780773,-0.060329575,0.30814168,0.4012223,-0.2562831,0.10469744,0.13309254,0.017852236,-0.0043486166,-0.0011462775,-0.00034762072,-0.0010003077,6.0179167,0.85071677,-0.38928357,-2.9152386,0.0,0.12234369,-0.017852236,0.0054622027,0.0036847,0.02695191,0.01740317,inf,inf,inf,inf,1,1,1,1,2,1,2,3,0,0,0
90376308,0,0.0,0.0,0.36088407,0.3930562,-0.060740765,0.30814168,0.4012223,-0.2562831,0.11843534,0.11014936,0.043903098,0.021925867,-0.0011462775,-0.00034762072,-0.0010003077,1.8278763,-2.5793285,2.1558764,-2.9428904,0.0,0.12275488,-0.043903098,0.005360099,0.0036325378,0.02656262,0.017287025,inf,inf,inf,inf,1,1,1,1,2,1,2,3,0,0,0
90480285,0,0.0,0.0,0.37025517,0.39691693,-0.059020173,0.30814168,0.4012223,-0.2562831,0.11134896,0.083767556,0.028164463,0.007575627,-0.0011462775,-0.00034762072,-0.0010003077,-1.0188965,-3.9850204,-0.39537334,-2.9742513,0.0,0.12103429,-0.028164463,0.0054109115,0.0036756129,0.026547091,0.017380951,inf,inf,inf,inf,1,1,1,1,2,1,2,3,0,0,0
90584311,0,0.0,0.0,0.37911516,0.399291,-0.060257442,0.30814168,0.4012223,-0.2562831,0.09779231,0.082582556,-0.015756717,-0.03403678,-0.0011462775,-0.00034762072,-0.0010003077,-1.8171535,1.448688,-1.2746774,-2.9981241,0.0,0.12227155,0.015756717,0.005472186,0.003725182,0.026600344,0.017512694,inf,inf,inf,inf,1,1,1,1,2,1,2,3,0,0,0
90680269,0,0.0,0.0,0.38865927,0.3997996,-0.060913265,0.30814168,0.4012223,-0.2562831,0.11914389,0.06729002,0.014427966,-0.0024518853,-0.0011462775,-0.00034762072,-0.0010003077,0.46388006,3.2912395,0.31509045,-3.0201814,0.0,0.12292738,-0.014427966,0.0053589097,0.003662228,0.026301472,0.01736706,inf,inf,inf,inf,1,1,1,1,2,1,2,3,0,0,0
90783475,0,0.0,0.0,0.4005888,0.40002954,-0.06023846,0.30814168,0.4012223,-0.2562831,0.13018538,0.030316548,0.019231055,0.0030153478,-0.0011462775,-0.00034762072,-0.0010003077,-2.4800339,-2.0626025,0.13495414,-3.0451844,0.0,0.12225257,-0.019231055,0.005426421,0.0037105328,0.02649287,0.01749938,inf,inf,inf,inf,1,1,1,1,2,1,2,3,0,0,0
90887479,0,0.0,0.0,0.41405907,0.39959204,-0.059670344,0.30814168,0.4012223,-0.2562831,0.13947587,0.03000401,0.009559838,-0.005729563,-0.0011462775,-0.00034762072,-0.0010003077,0.4337961,-0.43516746,-1.3147435,-3.067195,0.0,0.12168446,-0.009559838,0.0054636667,0.0037370673,0.026574353,0.017500486,inf,inf,inf,inf,1,1,1,1,2,1,2,3,0,0,0
90991470,0,0.0,0.0,0.4258256,0.39758262,-0.059157107,0.30814168,0.4012223,-0.2562831,0.10587979,0.00011781213,0.0055779093,-0.008486818,-0.0011462775,-0.00034762072,-0.0010003077,-1.0649705,-1.6037287,0.12164372,-3.0874054,0.0,0.12117122,-0.0055779093,0.0051870914,0.003557369,0.02602501,0.01712409,inf,inf,inf,inf,1,1,1,1,2,1,2,3,0,0,0
91095503,0,0.0,0.0,0.43453225,0.39234892,-0.059407145,0.30814168,0.4012223,-0.2562831,0.0765698,-0.039218646,-0.0022535461,-0.015183769,-0.0011462775,-0.00034762072,-0.0010003077,-0.7166908,-3.3017933,-1.4348353,-3.1018643,0.0,0.12142126,0.0022535461,0.0052768644,0.003610457,0.026359685,0.01726057,inf,inf,inf,inf,1,1,1,1,2,1,2,3,0,0,0
91191511,0,0.0,0.0,0.43846625,0.38436502,-0.060940813,0.30814168,0.4012223,-0.2562831,0.0540065,-0.057945576,-0.013063337,-0.025236377,-0.0011462775,-0.00034762072,-0.0010003077,1.2750739,1.1168847,2.662898,-3.112649,0.0,0.12295493,0.013063337,0.0052183913,0.0035685063,0.026286766,0.017179169,inf,inf,inf,inf,1,1,1,1,2,1,2,3,0,0,0
91295469,0,0.0,0.0,0.43806624,0.37290934,-0.06381811,0.30814168,0.4012223,-0.2562831,0.014801749,-0.09099473,-0.016679158,-0.028449643,-0.0011462775,-0.00034762072,-0.0010003077,-1.6195916,-0.7186324,-0.7368224,-3.1214662,0.0,0.12583223,0.016679158,0.0053026476,0.0036162643,0.0266114,0.01730798,inf,inf,inf,inf,1,1,1,1,2,1,2,3,0,0,0
91399488,0,0.0,0.0,0.43437797,0.35919088,-0.06685633,0.30814168,0.4012223,-0.2562831,-0.011608298,-0.117323816,-0.017314658,-0.028941067,-0.0011462775,-0.00034762072,-0.0010003077,-3.0990765,1.3084053,-1.4550747,-3.132691,0.0,0.12887044,0.017314658,0.005382435,0.003660797,0.026906323,0.017406877,inf,inf,inf,inf,1,1,1,1,2,1,2,3,0,0,0
91495469,0,0.0,0.0,0.42942023,0.34588864,-0.068552,0.30814168,0.4012223,-0.2562831,-0.024427824,-0.13455756,0.0061025703,-0.005202916,-0.0011462775,-0.00034762072,-0.0010003077,1.6619194,-0.39902195,1.0441736,3.1387098,0.0,0.13056612,-0.0061025703,0.0053173034,0.0036143165,0.026764277,0.017285088,inf,inf,inf,inf,1,1,1,1,2,1,2,3,0,0,0
91599518,0,0.0,0.0,0.42320576,0.33070663,-0.06902732,0.30814168,0.4012223,-0.2562831,-0.04678809,-0.15744172,0.001802457,-0.008527464,-0.0011462775,-0.00034762072,-0.0010003077,2.7153013,-0.2718156,0.06979314,3.1221678,0.0,0.13104144,-0.001802457,0.0054362183,0.0036821233,0.02712922,0.017450325,inf,inf,inf,inf,1,1,1,1,2,1,2,3,0,0,0
91698669,0,0.0,0.0,0.4170139,0.3175407,-0.06830643,0.30814168,0.4012223,-0.2562831,-0.06148554,-0.12776235,0.0043616053,-0.004497572,-0.0011462775,-0.00034762072,-0.0010003077,-0.67870706,4.353457,-0.09829083,3.1011877,0.0,0.13032055,-0.0043616053,0.00542308,0.0036685006,0.027136369,0.017423404,inf,inf,inf,inf,1,1,1,1,2,1,2,3,0,0,0
91802688,0,0.0,0.0,0.412233,0.30583125,-0.068030015,0.30814168,0.4012223,-0.2562831,-0.053548593,-0.14354725,-0.0127946725,-0.019871106,-0.0011462775,-0.00034762072,-0.0010003077,-2.0127556,-3.2295544,-1.2761346,3.0729935,0.0,0.13004413,0.0127946725,0.0055363877,0.0037386431,0.027491756,0.01763061,inf,inf,inf,inf,1,1,1,1,2,1,2,3,0,0,0
91906669,0,0.0,0.0,0.40861407,0.29675972,-0.067173734,0.30814168,0.4012223,-0.2562831,-0.07368702,-0.11601303,0.012082895,0.006283272,-0.0011462775,-0.00034762072,-0.0010003077,-2.8455584,3.683488,-1.9619439,3.0490167,0.0,0.12918785,-0.012082895,0.0051972326,0.0035261693,0.02658404,0.017086336,inf,inf,inf,inf,1,1,1,1,2,1,2,3,0,0,0
92010673,0,0.0,0.0,0.40429837,0.2900785,-0.064536035,0.30814168,0.4012223,-0.2562831,-0.08159318,-0.12141354,0.0189208,0.013925533,-0.0011462775,-0.00034762072,-0.0010003077,-3.0215013,-3.6850514,1.322648,3.02938,0.0,0.12655015,-0.0189208,0.005265629,0.0035642302,0.026831416,0.01716046,inf,inf,inf,inf,1,1,1,1,2,1,2,3,0,0,0
92114669,0,0.0,0.0,0.40070847,0.28731623,-0.06365604,0.30814168,0.4012223,-0.2562831,-0.060403004,-0.080255546,-0.0019557269,-0.0060200887,-0.0011462775,-0.00034762072,-0.0010003077,-2.8873196,-3.6916502,3.0238469,3.0039,0.0,0.12567015,0.0019557269,0.00535201,0.0036121868,0.027144639,0.017256599,inf,inf,inf,inf,1,1,1,1,2,1,2,3,0,0,0
92210681,0,0.0,0.0,0.3981976,0.28644302,-0.064238876,0.30814168,0.4012223,-0.2562831,-0.05748582,-0.051364776,-0.015531445,-0.019147381,-0.0011462775,-0.00034762072,-0.0010003077,-2.097437,0.7153653,-0.90011877,2.9843104,0.0,0.126253,0.015531445,0.0052588903,0.0035501115,0.026987119,0.017089305,inf,inf,inf,inf,1,1,1,1,2,1,2,3,0,0,0
92314684,0,0.0,0.0,0.39615953,0.2869628,-0.0673589,0.30814168,0.4012223,-0.2562831,-0.055116612,-0.04338501,-0.042680368,-0.046644066,-0.0011462775,-0.00034762072,-0.0010003077,1.5020771,1.5487778,-2.4468694,2.9706595,0.0,0.12937301,0.042680368,0.0053629167,0.003604792,0.027448185,0.017247725,inf,inf,inf,inf,1,1,1,1,2,1,2,3,0,0,0
92418698,0,0.0,0.0,0.3921562,0.28823408,-0.07386969,0.30814168,0.4012223,-0.2562831,-0.086575575,-0.038283855,-0.062979266,-0.067915134,-0.0011462775,-0.00034762072,-0.0010003077,1.2524583,-0.019787913,-0.6224947,2.9698887,0.0,0.13588381,0.062979266,0.0054527414,0.0036514273,0.027781412,0.017337747,inf,inf,inf,inf,1,1,1,1,2,1,2,3,0,0,0
92513092,0,0.0,0.0,0.38568676,0.29003078,-0.082553215,0.30814168,0.4012223,-0.2562831,-0.1127351,-0.04366035,-0.08265768,-0.08893742,-0.0011462775,-0.00034762072,-0.0010003077,1.767161,-2.3906138,1.894361,2.980057,0.0,0.14456733,0.08265768,0.005392588,0.003607848,0.027673906,0.01722784,inf,inf,inf,inf,1,1,1,1,2,1,2,3,0,0,0
92617869,0,0.0,0.0,0.375667,0.29245076,-0.09474948,0.30814168,0.4012223,-0.2562831,-0.13548051,-0.020952027,-0.09666819,-0.10447326,-0.0011462775,-0.00034762072,-0.0010003077,-0.8015112,1.9501814,-1.4676082,2.9998546,0.0,0.1567636,0.09666819,0.005437107,0.003631186,0.027686147,0.017242026,inf,inf,inf,inf,1,1,1,1,2,1,2,3,0,0,0
92721869,0,0.0,0.0,0.36299944,0.29390976,-0.10750937,0.30814168,0.4012223,-0.2562831,-0.15939671,-0.027324446,-0.09799243,-0.10701616,-0.0011462775,-0.00034762072,-0.0010003077,-1.0808342,-1.1123146,1.6339817,3.0239325,0.0,0.16952348,0.09799243,0.0055171633,0.0036761113,0.027858593,0.017383292,inf,inf,inf,inf,1,1,1,1,2,1,2,3,0,0,0
92825880,0,0.0,0.0,0.3489713,0.29596987,-0.11871486,0.30814168,0.4012223,-0.2562831,-0.15289451,-0.0048392783,-0.08003096,-0.08937729,-0.0011462775,-0.00034762072,-0.0010003077,4.539667,1.3320398,0.3217876,3.0455027,0.0,0.18072897,0.08003096,0.005217341,0.0035010327,0.026848199,0.017008936,inf,inf,inf,inf,1,1,1,1,2,1,2,3,0,0,0
92929911,0,0.0,0.0,0.33427978,0.29852644,-0.12818624,0.30814168,0.4012223,-0.2562831,-0.16359758,0.00401834,-0.07154951,-0.07989984,-0.0011462775,-0.00034762072,-0.0010003077,2.3395107,1.7975076,-0.27591997,3.0667412,0.0,0.19020036,0.07154951,0.0052779135,0.0035500035,0.026701696,0.017096989,inf,inf,inf,inf,1,1,1,1,2,1,2,3,0,0,0
93025869,0,0.0,0.0,0.32004085,0.30209434,-0.13445292,0.30814168,0.4012223,-0.2562831,-0.16665396,0.016390592,-0.057468504,-0.06389701,-0.0011462775,-0.00034762072,-0.0010003077,2.5915754,3.7695398,2.360898,3.0853035,0.0,0.19646704,0.057468504,0.005161906,0.003492028,0.026158545,0.01693812,inf,inf,inf,inf,1,1,1,1,2,1,2,3,0,0,0
93129869,0,0.0,0.0,0.3045374,0.30757806,-0.1380631,0.30814168,0.4012223,-0.2562831,-0.15811266,0.021959484,-0.039519522,-0.043322157,-0.0011462775,-0.00034762072,-0.0010003077,2.8914816,0.7560869,0.3261971,3.1005564,0.0,0.20007722,0.039519522,0.0052140737,0.0035370756,0.02614876,0.017052649,inf,inf,inf,inf,1,1,1,1,2,1,2,3,0,0,0
93233875,0,0.0,0.0,0.28998587,0.31478924,-0.1388436,0.30814168,0.4012223,-0.2562831,-0.16355073,0.038186457,-0.012933486,-0.01393842,-0.0011462775,-0.00034762072,-0.0010003077,1.8144523,-1.0641783,3.9962256,3.115061,0.0,0.20085771,0.012933486,0.0052734157,0.0035864257,0.02618247,0.017165953,inf,inf,inf,inf,1,1,1,1,2,1,2,3,0,0,0
93329910,0,0.0,0.0,0.27729484,0.32296684,-0.13660505,0.30814168,0.4012223,-0.2562831,-0.15936767,0.053221077,0.0134286955,0.014886455,-0.0011462775,-0.00034762072,-0.0010003077,4.8801055,1.4049217,-1.2898034,3.1257744,0.0,0.19861917,-0.0134286955,0.005195956,0.003546395,0.025930926,0.017080633,inf,inf,inf,inf,1,1,1,1,2,1,2,3,0,0,0
93433069,0,0.0,0.0,0.2643482,0.33289894,-0.13067728,0.30814168,0.4012223,-0.2562831,-0.17575847,0.045271065,0.03793959,0.04175508,-0.0011462775,-0.00034762072,-0.0010003077,-1.5338632,-3.5472593,0.26727986,3.1318355,0.0,0.1926914,-0.03793959,0.0052370187,0.0035806354,0.025948029,0.017130213,inf,inf,inf,inf,1,1,1,1,2,1,2,3,0,0,0
93537077,0,0.0,0.0,0.25084645,0.3419506,-0.1214082,0.30814168,0.4012223,-0.2562831,-0.1852455,0.0550098,0.056472324,0.06243439,-0.0011462775,-0.00034762072,-0.0010003077,-1.7277551,-0.10273852,-1.4320297,3.1353998,0.0,0.18342231,-0.056472324,0.005286943,0.0036176816,0.02607708,0.017231291,inf,inf,inf,inf,1,1,1,1,2,1,2,3,0,0,0
93641078,0,0.0,0.0,0.23634692,0.3503488,-0.11040521,0.30814168,0.4012223,-0.2562831,-0.19326031,0.049886793,0.07184442,0.07962001,-0.0011462775,-0.00034762072,-0.0010003077,-1.6942353,2.0017724,-2.3258545,3.137057,0.0,0.17241932,-0.07184442,0.0053478456,0.0036595524,0.026231678,0.017332805,inf,inf,inf,inf,1,1,1,1,2,1,2,3,0,0,0
93737070,0,0.0,0.0,0.22112864,0.35672426,-0.1003275,0.30814168,0.4012223,-0.2562831,-0.22266059,0.02817449,0.06860034,0.07738683,-0.0011462775,-0.00034762072,-0.0010003077,-2.7105548,-2.0847871,-0.25650376,3.138537,0.0,0.16234161,-0.06860034,0.0051842793,0.0035579177,0.025733108,0.0170459,inf,inf,inf,inf,1,1,1,1,2,1,2,3,0,0,0
93841099,0,0.0,0.0,0.203663,0.36104077,-0.091647804,0.30814168,0.4012223,-0.2562831,-0.20683683,-0.00038745068,0.03783483,0.046629447,-0.0011462775,-0.00034762072,-0.0010003077,-5.1193695,0.6724282,-0.60702664,3.139125,0.0,0.15366192,-0.03783483,0.005189167,0.0035617456,0.025768867,0.017055806,inf,inf,inf,inf,1,1,1,1,2,1,2,3,0,0,0
93945068,0,0.0,0.0,0.18669859,0.36092672,-0.08772599,0.30814168,0.4012223,-0.2562831,-0.17764965,-0.022433683,0.008254531,0.015536594,-0.0011462775,-0.00034762072,-0.0010003077,-1.9597881,2.4827404,-2.2620876,3.1358428,0.0,0.1497401,-0.008254531,0.005222859,0.003582283,0.025927424,0.0171274,inf,inf,inf,inf,1,1,1,1,2,1,2,3,0,0,0
94041069,0,0.0,0.0,0.1721165,0.35654876,-0.08990007,0.30814168,0.4012223,-0.2562831,-0.13565592,-0.052849133,-0.042702686,-0.0382633,-0.0011462775,-0.00034762072,-0.0010003077,5.444044,2.259782,-0.95781004,3.1334476,0.0,0.15191418,0.042702686,0.0051958216,0.003561175,0.026020339,0.017156553,inf,inf,inf,inf,1,1,1,1,2,1,2,3,0,0,0
94145076,0,0.0,0.0,0.159057,0.3481604,-0.10106904,0.30814168,0.4012223,-0.2562831,-0.10732615,-0.063222736,-0.10786086,-0.10760535,-0.0011462775,-0.00034762072,-0.0010003077,-1.0716425,0.6706637,-3.065256,3.1347473,0.0,0.16308315,0.10786086,0.005264496,0.003603699,0.02618995,0.017234793,inf,inf,inf,inf,1,1,1,1,2,1,2,3,0,0,0
94249069,0,0.0,0.0,0.15051527,0.33711272,-0.120293185,0.30814168,0.4012223,-0.2562831,-0.06057296,-0.08674587,-0.15406023,-0.15907544,-0.0011462775,-0.00034762072,-0.0010003077,-1.3781215,0.4307961,1.6055685,3.141079,0.0,0.1823073,0.15406023,0.0053435555,0.0036517666,0.02643643,0.017334124,inf,inf,inf,inf,1,1,1,1,2,1,2,3,0,0,0
94352284,0,0.0,0.0,0.14788933,0.32358882,-0.14483427,0.30814168,0.4012223,-0.2562831,0.004338006,-0.10469389,-0.17878276,-0.18927024,-0.0011462775,-0.00034762072,-0.0010003077,6.321876,-2.1796238,-1.9846857,-3.134896,0.0,0.20684838,0.17878276,0.005438716,0.0037086848,0.026723867,0.017485155,inf,inf,inf,inf,1,1,1,1,2,1,2,3,0,0,0
94456269,0,0.0,0.0,0.15153494,0.30941746,-0.17167354,0.30814168,0.4012223,-0.2562831,0.029720956,-0.08748749,-0.18171364,-0.19643411,-0.0011462775,-0.00034762072,-0.0010003077,3.345097,1.1984608,2.3325775,-3.1261563,0.0,0.23368765,0.18171364,0.005135906,0.0035148072,0.025881575,0.017009603,inf,inf,inf,inf,1,1,1,1,2,1,2,3,0,0,0
94552268,0,0.0,0.0,0.16104038,0.29755723,-0.19600151,0.30814168,0.4012223,-0.2562831,0.09286436,-0.07998972,-0.19581534,-0.21233432,-0.0011462775,-0.00034762072,-0.0010003077,2.4240716,-3.0613425,-2.580715,-3.1191885,0.0,0.25801563,0.19581534,0.005394011,0.0036801838,0.026442891,0.01735943,inf,inf,inf,inf,1,1,1,1,2,1,2,3,0,0,0
94656274,0,0.0,0.0,0.17744729,0.28616822,-0.21909963,0.30814168,0.4012223,-0.2562831,0.120000556,-0.0899464,-0.16461407,-0.18062794,-0.0011462775,-0.00034762072,-0.0010003077,-0.07590429,0.19661272,3.3307917,-3.1130984,0.0,0.28111374,0.16461407,0.005101828,0.0034959828,0.025666803,0.01695007,inf,inf,inf,inf,1,1,1,1,2,1,2,3,0,0,0
94760269,0,0.0,0.0,0.19950335,0.27682266,-0.23687266,0.30814168,0.4012223,-0.2562831,0.17945558,-0.08433246,-0.13496204,-0.14828534,-0.0011462775,-0.00034762072,-0.0010003077,1.8199738,-4.8994308,1.6975017,-3.108451,0.0,0.29888678,0.13496204,0.0051803146,0.003548252,0.02584932,0.017085804,inf,inf,inf,inf,1,1,1,1,2,1,2,3,0,0,0
94856269,0,0.0,0.0,0.22382396,0.27103105,-0.24778701,0.30814168,0.4012223,-0.2562831,0.21447,-0.06910036,-0.111912176,-0.12133782,-0.0011462775,-0.00034762072,-0.0010003077,0.796077,3.9465768,-0.32938254,-3.1066184,0.0,0.30980113,0.111912176,0.0054880925,0.0037476195,0.026622739,0.01755328,inf,inf,inf,inf,1,1,1,1,2,1,2,3,0,0,0
94960269,0,0.0,0.0,0.25379187,0.26699632,-0.2536665,0.30814168,0.4012223,-0.2562831,0.27201527,-0.062411282,-0.068577826,-0.07286934,-0.0011462775,-0.00034762072,-0.0010003077,4.1336975,-0.70989287,1.601897,-3.1084309,0.0,0.3156806,0.068577826,0.0051589403,0.0035391613,0.025738334,0.01705038,inf,inf,inf,inf,1,1,1,1,2,1,2,3,0,0,0
95064293,0,0.0,0.0,0.2859698,0.2651813,-0.25360984,0.30814168,0.4012223,-0.2562831,0.29178026,-0.05782692,-0.022795254,-0.021988524,-0.0011462775,-0.00034762072,-0.0010003077,1.5885458,-0.15608294,0.25768822,-3.1097305,0.0,0.31562394,0.022795254,0.0052212626,0.0035802014,0.02592613,0.01715878,inf,inf,inf,inf,1,1,1,1,2,1,2,3,0,0,0
95160299,0,0.0,0.0,0.31663546,0.2635554,-0.24839158,0.30814168,0.4012223,-0.2562831,0.31655058,-0.047657296,0.017398767,0.022339052,-0.0011462775,-0.00034762072,-0.0010003077,-0.5732767,-1.3449957,-2.8947265,-3.1098604,0.0,0.3104057,-0.017398767,0.0051512653,0.0035353554,0.025752388,0.017061096,inf,inf,inf,inf,1,1,1,1,2,1,2,3,0,0,0
95263489,0,0.0,0.0,0.34878948,0.26251435,-0.2367855,0.30814168,0.4012223,-0.2562831,0.3136732,-0.03227614,0.077973835,0.08654307,-0.0011462775,-0.00034762072,-0.0010003077,2.2971795,1.0332187,1.4012884,-3.1111228,0.0,0.2987996,-0.077973835,0.005212555,0.003575986,0.025873207,0.017132144,inf,inf,inf,inf,1,1,1,1,2,1,2,3,0,0,0
95367469,0,0.0,0.0,0.3795519,0.26131058,-0.2213725,0.30814168,0.4012223,-0.2562831,0.31527048,-0.031620868,0.11332916,0.12470822,-0.0011462775,-0.00034762072,-0.0010003077,3.791819,1.5005302,1.6960044,-3.1093316,0.0,0.28338662,-0.11332916,0.005293158,0.0036278367,0.026103733,0.017278768,inf,inf,inf,inf,1,1,1,1,2,1,2,3,0,0,0
95471469,0,0.0,0.0,0.4084064,0.2600082,-0.20268881,0.30814168,0.4012223,-0.2562831,0.2802919,-0.019923428,0.13947058,0.15250571,-0.0011462775,-0.00034762072,-0.0010003077,-4.95163,1.4767588,-1.1626147,-3.1056187,0.0,0.26470292,-0.13947058,0.005357525,0.003669226,0.026274312,0.017366713,inf,inf,inf,inf,1,1,1,1,2,1,2,3,0,0,0
95567487,0,0.0,0.0,0.43191776,0.25799754,-0.18281937,0.30814168,0.4012223,-0.2562831,0.2617351,-0.040978484,0.18860748,0.20197217,-0.0011462775,-0.00034762072,-0.0010003077,2.825667,-1.4415087,1.658146,-3.104974,0.0,0.24483348,-0.18860748,0.005271479,0.0036141865,0.026022531,0.017216777,inf,inf,inf,inf,1,1,1,1,2,1,2,3,0,0,0
95671483,0,0.0,0.0,0.4532175,0.25488546,-0.15947655,0.30814168,0.4012223,-0.2562831,0.21753989,-0.03525727,0.2062996,0.2190346,-0.0011462775,-0.00034762072,-0.0010003077,-4.3919954,1.3243318,2.2513685,-3.1019042,0.0,0.22149067,-0.2062996,0.0053684223,0.0036755616,0.02632218,0.017390227,inf,inf,inf,inf,1,1,1,1,2,1,2,3,0,0,0
95775471,0,0.0,0.0,0.46908763,0.25102243,-0.13705486,0.30814168,0.4012223,-0.2562831,0.19286646,-0.05107715,0.19530748,0.2066968,-0.0011462775,-0.00034762072,-0.0010003077,-2.0421677,-1.0427208,2.693793,-3.0979269,0.0,0.19906898,-0.19530748,0.005098772,0.0035016355,0.025623761,0.016984457,inf,inf,inf,inf,1,1,1,1,2,1,2,3,0,0,0
95879475,0,0.0,0.0,0.47926676,0.2455839,-0.119817495,0.30814168,0.4012223,-0.2562831,0.15712689,-0.05786458,0.1426187,0.15148097,-0.0011462775,-0.00034762072,-0.0010003077,-1.9364628,-1.3809384,0.13033174,-3.0932755,0.0,0.18183161,-0.1426187,0.0051604332,0.0035419979,0.025762647,0.017046021,inf,inf,inf,inf,1,1,1,1,2,1,2,3,0,0,0
95975469,0,0.0,0.0,0.48352072,0.23997092,-0.11090164,0.30814168,0.4012223,-0.2562831,0.114452705,-0.041648805,0.08290193,0.08761594,-0.0011462775,-0.00034762072,-0.0010003077,-3.1394231,4.2385197,-2.4787624,-3.0869958,0.0,0.17291576,-0.08290193,0.005076783,0.0034869746,0.025588535,0.016919568,inf,inf,inf,inf,1,1,1,1,2,1,2,3,0,0,0
96079469,0,0.0,0.0,0.48396447,0.23369877,-0.11057113,0.30814168,0.4012223,-0.2562831,0.08369097,-0.050617896,0.023359085,0.02167434,-0.0011462775,-0.00034762072,-0.0010003077,-2.9543686,-3.3163452,-0.49006736,-3.0804925,0.0,0.17258525,-0.023359085,0.00515503,0.003534491,0.02589687,0.017054033,inf,inf,inf,inf,1,1,1,1,2,1,2,3,0,0,0
96182674,0,0.0,0.0,0.48121217,0.22730058,-0.1203019,0.30814168,0.4012223,-0.2562831,0.058696885,-0.027486622,-0.045508906,-0.054791853,-0.0011462775,-0.00034762072,-0.0010003077,-0.7359815,-0.370452,-0.47730628,-3.0736794,0.0,0.18231602,0.045508906,0.0052235164,0.0035753588,0.026112787,0.017132025,inf,inf,inf,inf,1,1,1,1,2,1,2,3,0,0,0
97501878,0,0.0,0.0,0.5023881,0.34887928,-0.36439866,0.30814168,0.4012223,-0.2562831,0.142056,0.1709604,-0.044401444,-0.042011697,-0.0011462775,-0.00034762072,-0.0010003077,1.4740889,-1.2680628,1.4662217,-3.0709815,0.0,0.42641276,0.044401444,0.0051865387,0.0035567675,0.025856964,0.017115705,inf,inf,inf,inf,1,1,1,1,2,1,2,3,0,0,0
97605877,0,0.0,0.0,0.52101547,0.3660155,-0.36323228,0.30814168,0.4012223,-0.2562831,0.17113365,0.19512638,-0.031423926,-0.02683004,-0.0011462775,-0.00034762072,-0.0010003077,2.4702823,2.2000597,-3.6424646,-3.0735457,0.0,0.4252464,0.031423926,0.0052669263,0.003609394,0.026054356,0.017232034,inf,inf,inf,inf,1,1,1,1,2,1,2,3,0,0,0
97701869,0,0.0,0.0,0.5404078,0.3810166,-0.3613687,0.30814168,0.4012223,-0.2562831,0.19820184,0.1796971,0.0051746094,0.010504805,-0.0011462775,-0.00034762072,-0.0010003077,5.6475263,0.29767147,-0.37265214,-3.076252,0.0,0.4233828,-0.0051746094,0.005201635,0.003567652,0.025874544,0.017127873,inf,inf,inf,inf,1,1,1,1,2,1,2,3,0,0,0
97805920,0,0.0,0.0,0.5627966,0.39659697,-0.35701796,0.30814168,0.4012223,-0.2562831,0.2038907,0.17008398,0.04155458,0.04669063,-0.0011462775,-0.00034762072,-0.0010003077,1.4098772,2.894912,0.41871786,-3.0802658,0.0,0.41903207,-0.04155458,0.0052420157,0.0035945817,0.025966808,0.017171858,inf,inf,inf,inf,1,1,1,1,2,1,2,3,0,0,0
97909869,0,0.0,0.0,0.58644575,0.41100553,-0.35010487,0.30814168,0.4012223,-0.2562831,0.22562958,0.15481357,0.058215156,0.06276773,-0.0011462775,-0.00034762072,-0.0010003077,-0.22845638,2.730896,-2.014026,-3.0846279,0.0,0.41211897,-0.058215156,0.0053379224,0.0036556167,0.0262359,0.017350664,inf,inf,inf,inf,1,1,1,1,2,1,2,3,0,0,0
98009069,0,0.0,0.0,0.6110543,0.4244423,-0.3426465,0.30814168,0.4012223,-0.2562831,0.2581861,0.15284589,0.07388064,0.07796458,-0.0011462775,-0.00034762072,-0.0010003077,4.974069,-0.824014,-1.3132707,-3.0897613,0.0,0.4046606,-0.07388064,0.005284528,0.0036214509,0.026108172,0.017281808,inf,inf,inf,inf,1,1,1,1,2,1,2,3,0,0,0
98113071,0,0.0,0.0,0.639479,0.43803835,-0.33425868,0.30814168,0.4012223,-0.2562831,0.28645846,0.15312953,0.09056673,0.09392927,-0.0011462775,-0.00034762072,-0.0010003077,6.6299825,2.870079,0.06421227,-3.094174,0.0,0.39627278,-0.09056673,0.0054474673,0.003726012,0.026702676,0.01764366,inf,inf,inf,inf,1,1,1,1,2,1,2,3,0,0,0
98209080,0,0.0,0.0,0.6680772,0.44803312,-0.3252695,0.30814168,0.4012223,-0.2562831,0.31283602,0.10992152,0.10896078,0.11114667,-0.0011462775,-0.00034762072,-0.0010003077,4.2217584,-0.051366087,-0.43651304,-3.099951,0.0,0.3872836,-0.10896078,0.0053382274,0.0036586348,0.026317643,0.01741393,inf,inf,inf,inf,1,1,1,1,2,1,2,3,0,0,0
98313069,0,0.0,0.0,0.7010162,0.45480165,-0.31423682,0.30814168,0.4012223,-0.2562831,0.3261295,0.073748805,0.13415623,0.1347197,-0.0011462775,-0.00034762072,-0.0010003077,0.91867566,2.8823442,2.4531512,-3.1054008,0.0,0.37625092,-0.13415623,0.0054196613,0.0037107111,0.026499122,0.017522661,inf,inf,inf,inf,1,1,1,1,2,1,2,3,0,0,0
98417081,0,0.0,0.0,0.73510224,0.45552728,-0.30073944,0.30814168,0.4012223,-0.2562831,0.33282503,0.0020686435,0.15755989,0.15665591,-0.0011462775,-0.00034762072,-0.0010003077,-1.9821732,1.5736138,1.9900666,-3.1087759,0.0,0.36275354,-0.15755989,0.005509412,0.0037683388,0.026695007,0.017636573,inf,inf,inf,inf,1,1,1,1,2,1,2,3,0,0,0
98513069,0,0.0,0.0,0.7662094,0.45003426,-0.28602546,0.30814168,0.4012223,-0.2562831,0.3231879,-0.06302708,0.18147235,0.17950292,-0.0011462775,-0.00034762072,-0.0010003077,1.8330355,0.86562365,2.8655457,-3.112357,0.0,0.34803957,-0.18147235,0.0053907167,0.0036930295,0.026323967,0.017409023,inf,inf,inf,inf,1,1,1,1,2,1,2,3,0,0,0
98617099,0,0.0,0.0,0.797924,0.4387077,-0.26933944,0.30814168,0.4012223,-0.2562831,0.28790554,-0.11183424,0.17926425,0.17646572,-0.0011462775,-0.00034762072,-0.0010003077,-2.3487506,2.575608,0.5640764,-3.112518,0.0,0.33135355,-0.17926425,0.005090627,0.0034986727,0.025587374,0.016976047,inf,inf,inf,inf,1,1,1,1,2,1,2,3,0,0,0
98721069,0,0.0,0.0,0.82585543,0.42150104,-0.25214535,0.30814168,0.4012223,-0.2562831,0.24763177,-0.15963498,0.16736835,0.16371778,-0.0011462775,-0.00034762072,-0.0010003077,-3.1321907,4.1570797,-3.2087052,-3.1087515,0.0,0.31415945,-0.16736835,0.005191442,0.0035624236,0.025925381,0.017164852,inf,inf,inf,inf,1,1,1,1,2,1,2,3,0,0,0
98825069,0,0.0,0.0,0.8491594,0.39816988,-0.23735528,0.30814168,0.4012223,-0.2562831,0.19201213,-0.20475091,0.15440612,0.1494788,-0.0011462775,-0.00034762072,-0.0010003077,-4.593756,-1.4448408,0.13586266,-3.1042519,0.0,0.2993694,-0.15440612,0.005271563,0.003613547,0.026105706,0.017259713,inf,inf,inf,inf,1,1,1,1,2,1,2,3,0,0,0
98920275,0,0.0,0.0,0.86500794,0.37253034,-0.22668312,0.30814168,0.4012223,-0.2562831,0.12311363,-0.21434122,0.13533553,0.12843062,-0.0011462775,-0.00034762072,-0.0010003077,-3.774302,1.5083777,2.1173582,-3.0976722,0.0,0.28869724,-0.13533553,0.0051725265,0.0035496636,0.025819836,0.017062789,inf,inf,inf,inf,1,1,1,1,2,1,2,3,0,0,0
99024312,0,0.0,0.0,0.87492293,0.34148484,-0.21877626,0.30814168,0.4012223,-0.2562831,0.07311782,-0.2323543,0.10249973,0.092512116,-0.0011462775,-0.00034762072,-0.0010003077,-6.9305716,-1.9882685,0.20938604,-3.0887113,0.0,0.28079036,-0.10249973,0.0052299188,0.0035844198,0.025987329,0.017141186,inf,inf,inf,inf,1,1,1,1,2,1,2,3,0,0,0
99128268,0,0.0,0.0,0.8763942,0.31081367,-0.21529432,0.30814168,0.4012223,-0.2562831,0.038013875,-0.232004,0.07979652,0.06628306,-0.0011462775,-0.00034762072,-0.0010003077,4.5537515,0.61766434,-0.4523962,-3.0820708,0.0,0.27730843,-0.07979652,0.0053039747,0.003629652,0.026242964,0.0172659,inf,inf,inf,inf,1,1,1,1,2,1,2,3,0,0,0
99224364,0,0.0,0.0,0.8700874,0.2834987,-0.21553606,0.30814168,0.4012223,-0.2562831,-0.009264165,-0.22931784,0.050524153,0.033845168,-0.0011462775,-0.00034762072,-0.0010003077,1.205177,2.0146897,0.81927997,-3.07378,0.0,0.27755016,-0.050524153,0.005235595,0.0035843295,0.026081596,0.017163675,inf,inf,inf,inf,1,1,1,1,2,1,2,3,0,0,0
99328269,0,0.0,0.0,0.8560434,0.25760245,-0.21826842,0.30814168,0.4012223,-0.2562831,-0.050783742,-0.23560451,0.02450769,0.0048969737,-0.0011462775,-0.00034762072,-0.0010003077,0.12107491,-0.5555717,-2.470324,-3.0664532,0.0,0.28028253,-0.02450769,0.005311668,0.0036315816,0.026275577,0.017285261,inf,inf,inf,inf,1,1,1,1,2,1,2,3,0,0,0
99432269,0,0.0,0.0,0.83665216,0.2361401,-0.22294594,0.30814168,0.4012223,-0.2562831,-0.10079335,-0.20905112,0.004407134,-0.017213572,-0.0011462775,-0.00034762072,-0.0010003077,-2.890649,1.0065904,-1.4186463,-3.063235,0.0,0.28496006,-0.004407134,0.00539348,0.003683491,0.026483439,0.017399596,inf,inf,inf,inf,1,1,1,1,2,1,2,3,0,0,0
99528269,0,0.0,0.0,0.8176827,0.22064508,-0.22845787,0.30814168,0.4012223,-0.2562831,-0.09781961,-0.1950409,-0.013384317,-0.03594197,-0.0011462775,-0.00034762072,-0.0010003077,0.91890097,-1.8536606,-1.9010522,-3.0639467,0.0,0.29047197,0.013384317,0.0053671286,0.003665265,0.026469672,0.017400336,inf,inf,inf,inf,1,1,1,1,2,1,2,3,0,0,0
99632269,0,0.0,0.0,0.79889476,0.20801161,-0.23521626,0.30814168,0.4012223,-0.2562831,-0.11424889,-0.1691896,-0.017058574,-0.039753903,-0.0011462775,-0.00034762072,-0.0010003077,-0.7590206,2.1636493,1.83425,-3.0657973,0.0,0.29723036,0.017058574,0.0054073134,0.0036932733,0.026470551,0.01740238,inf,inf,inf,inf,1,1,1,1,2,1,2,3,0,0,0
99735482,0,0.0,0.0,0.783453,0.19892862,-0.24198727,0.30814168,0.4012223,-0.2562831,-0.114706606,-0.12839219,-0.034207083,-0.056383483,-0.0011462775,-0.00034762072,-0.0010003077,-3.6485596,1.327279,-3.4942515,-3.0688279,0.0,0.3040014,0.034207083,0.0054676146,0.0037320412,0.026616756,0.01748866,inf,inf,inf,inf,1,1,1,1,2,1,2,3,0,0,0
99839482,0,0.0,0.0,0.7715426,0.19307946,-0.24818562,0.30814168,0.4012223,-0.2562831,-0.08677458,-0.114012636,-0.029067205,-0.050125025,-0.0011462775,-0.00034762072,-0.0010003077,3.3554845,-0.34333104,-0.026226224,-3.0722597,0.0,0.31019974,0.029067205,0.005155869,0.003532428,0.025811577,0.017029885,inf,inf,inf,inf,1,1,1,1,2,1,2,3,0,0,0
99943469,0,0.0,0.0,0.7639435,0.18824242,-0.25422126,0.30814168,0.4012223,-0.2562831,-0.08950979,-0.09647558,-0.036804363,-0.056274932,-0.0011462775,-0.00034762072,-0.0010003077,-1.7746688,-1.8711686,2.472812,-3.0747864,0.0,0.31623536,0.036804363,0.0052187834,0.0035739278,0.025938438,0.017114365,inf,inf,inf,inf,1,1,1,1,2,1,2,3,0,0,0
100039476,0,0.0,0.0,0.7601585,0.18426324,-0.25894332,0.30814168,0.4012223,-0.2562831,-0.07749131,-0.08121747,-0.03974179,-0.057528727,-0.0011462775,-0.00034762072,-0.0010003077,-0.25780886,-0.76643234,-3.3885117,-3.0762293,0.0,0.32095742,0.03974179,0.0051476094,0.003528715,0.025771752,0.017019687,inf,inf,inf,inf,1,1,1,1,2,1,2,3,0,0,0
100143469,0,0.0,0.0,0.7581323,0.1799813,-0.26249418,0.30814168,0.4012223,-0.2562831,-0.081409395,-0.07723852,-0.015359782,-0.031191304,-0.0011462775,-0.00034762072,-0.0010003077,3.1155417,3.5140512,1.1222519,-3.0761652,0.0,0.32450828,0.015359782,0.0052197324,0.0035752263,0.025973901,0.017153928,inf,inf,inf,inf,1,1,1,1,2,1,2,3,0,0,0
100247508,0,0.0,0.0,0.7568697,0.17400365,-0.26420516,0.30814168,0.4012223,-0.2562831,-0.103379644,-0.1055585,-0.012908669,-0.026645696,-0.0011462775,-0.00034762072,-0.0010003077,-5.3706303,-3.1538851,-1.0377321,-3.0751157,0.0,0.32621926,0.012908669,0.005282914,0.0036169942,0.026105423,0.01724113,inf,inf,inf,inf,1,1,1,1,2,1,2,3,0,0,0
100343469,0,0.0,0.0,0.75416666,0.16620594,-0.26415324,0.30814168,0.4012223,-0.2562831,-0.11565256,-0.10338728,0.0010059589,-0.010730125,-0.0011462775,-0.00034762072,-0.0010003077,1.7631725,2.7700033,-1.4053686,-3.0740926,0.0,0.32616735,-0.0010059589,0.005225528,0.0035804962,0.025976228,0.017172921,inf,inf,inf,inf,1,1,1,1,2,1,2,3,0,0,0
100447469,0,0.0,0.0,0.7477153,0.15523174,-0.2627383,0.30814168,0.4012223,-0.2562831,-0.16110648,-0.12816593,0.008537367,-0.0011124964,-0.0011462775,-0.00034762072,-0.0010003077,-7.466089,-2.481368,1.1421269,-3.07359,0.0,0.3247524,-0.008537367,0.005303352,0.0036313843,0.026169535,0.01729135,inf,inf,inf,inf,1,1,1,1,2,1,2,3,0,0,0
100551469,0,0.0,0.0,0.7355348,0.14082898,-0.26032105,0.30814168,0.4012223,-0.2562831,-0.16338082,-0.13898504,0.018643925,0.010754193,-0.0011462775,-0.00034762072,-0.0010003077,5.8554745,-2.4526665,0.6034578,-3.0750625,0.0,0.32233515,-0.018643925,0.005404309,0.0036963494,0.026442124,0.017448764,inf,inf,inf,inf,1,1,1,1,2,1,2,3,0,0,0
100654685,0,0.0,0.0,0.71767735,0.12336358,-0.25702137,0.30814168,0.4012223,-0.2562831,-0.20657785,-0.1509035,0.034694757,0.028085157,-0.0011462775,-0.00034762072,-0.0010003077,-0.81797355,1.9064715,0.51427305,-3.077311,0.0,0.31903547,-0.034694757,0.00547005,0.0037394613,0.026576024,0.017525379,inf,inf,inf,inf,1,1,1,1,2,1,2,3,0,0,0
100750669,0,0.0,0.0,0.6974116,0.10498852,-0.2527256,0.30814168,0.4012223,-0.2562831,-0.2023087,-0.16088349,0.047688942,0.04190438,-0.0011462775,-0.00034762072,-0.0010003077,2.3937857,-0.76089,-0.08887523,-3.0790422,0.0,0.3147397,-0.047688942,0.0053279693,0.0036494078,0.02614397,0.017269902,inf,inf,inf,inf,1,1,1,1,2,1,2,3,0,0,0
100854671,0,0.0,0.0,0.6727993,0.08273233,-0.24599901,0.30814168,0.4012223,-0.2562831,-0.22504126,-0.17958759,0.07839519,0.07333567,-0.0011462775,-0.00034762072,-0.0010003077,-3.808076,0.4833644,3.764369,-3.080253,0.0,0.3080131,-0.07839519,0.005064974,0.0034786232,0.025540356,0.01692176,inf,inf,inf,inf,1,1,1,1,2,1,2,3,0,0,0
100958681,0,0.0,0.0,0.64729095,0.060470205,-0.23586895,0.30814168,0.4012223,-0.2562831,-0.2080737,-0.17172971,0.10740275,0.10315589,-0.0011462775,-0.00034762072,-0.0010003077,0.2556289,-2.2980666,-2.9229617,-3.0808744,0.0,0.29788306,-0.10740275,0.0055050384,0.0037620098,0.026646588,0.01757456,inf,inf,inf,inf,1,1,1,1,2,1,2,3,0,0,0
101054694,0,0.0,0.0,0.6246151,0.040120013,-0.2230406,0.30814168,0.4012223,-0.2562831,-0.18741265,-0.17814465,0.13131975,0.12808548,-0.0011462775,-0.00034762072,-0.0010003077,-0.68432844,-2.889533,-1.5160396,-3.0793862,0.0,0.2850547,-0.13131975,0.0054286323,0.003713154,0.02647523,0.017483337,inf,inf,inf,inf,1,1,1,1,2,1,2,3,0,0,0
101158718,0,0.0,0.0,0.6028688,0.019345144,-0.2063372,0.30814168,0.4012223,-0.2562831,-0.17428504,-0.16143945,0.16584869,0.16401194,-0.0011462775,-0.00034762072,-0.0010003077,2.8610008,4.20467,2.0636652,-3.0796716,0.0,0.26835132,-0.16584869,0.0051371995,0.003526515,0.025709776,0.017045593,inf,inf,inf,inf,1,1,1,1,2,1,2,3,0,0,0
101262696,0,0.0,0.0,0.5861634,0.0014488933,-0.18758439,0.30814168,0.4012223,-0.2562831,-0.14483693,-0.14926907,0.16458291,0.16397132,-0.0011462775,-0.00034762072,-0.0010003077,-4.15741,-1.2122712,-1.8175585,-3.0789046,0.0,0.2495985,-0.16458291,0.005210026,0.0035744521,0.02587743,0.017142817,inf,inf,inf,inf,1,1,1,1,2,1,2,3,0,0,0
101358678,0,0.0,0.0,0.57629716,-0.012551881,-0.16975972,0.30814168,0.4012223,-0.2562831,-0.10031851,-0.1519969,0.17543289,0.17533001,-0.0011462775,-0.00034762072,-0.0010003077,-0.32649666,0.12851895,-1.2901161,-3.0791667,0.0,0.23177384,-0.17543289,0.005126618,0.003521146,0.025636692,0.01700351,inf,inf,inf,inf,1,1,1,1,2,1,2,3,0,0,0
101461869,0,0.0,0.0,0.57237726,-0.02544915,-0.15141033,0.30814168,0.4012223,-0.2562831,-0.061695118,-0.12791683,0.17078465,0.17029528,-0.0011462775,-0.00034762072,-0.0010003077,0.4108648,-1.5886627,-0.6202075,-3.0785797,0.0,0.21342444,-0.17078465,0.0051996936,0.0035680302,0.025863452,0.017114362,inf,inf,inf,inf,1,1,1,1,2,1,2,3,0,0,0
101565110,0,0.0,0.0,0.57394856,-0.035581168,-0.13459593,0.30814168,0.4012223,-0.2562831,-0.04109141,-0.13022755,0.16750327,0.16551413,-0.0011462775,-0.00034762072,-0.0010003077,-4.8397956,-1.4558103,1.5935293,-3.0762281,0.0,0.19661005,-0.16750327,0.0052848905,0.0036216925,0.026114458,0.01725402,inf,inf,inf,inf,1,1,1,1,2,1,2,3,0,0,0
101669869,0,0.0,0.0,0.5798313,-0.044685893,-0.12122819,0.30814168,0.4012223,-0.2562831,0.021251248,-0.105099484,0.13663596,0.13218012,-0.0011462775,-0.00034762072,-0.0010003077,4.2494254,-2.4424033,-0.39771378,-3.0713046,0.0,0.1832423,-0.13663596,0.0053340048,0.003652436,0.026222143,0.017301654,inf,inf,inf,inf,1,1,1,1,2,1,2,3,0,0,0
101765869,0,0.0,0.0,0.58842015,-0.051260065,-0.113750756,0.30814168,0.4012223,-0.2562831,0.04462064,-0.08309556,0.0889467,0.08143428,-0.0011462775,-0.00034762072,-0.0010003077,0.47173348,-2.219709,0.0038369382,-3.0663939,0.0,0.17576487,-0.0889467,0.0052459002,0.003595174,0.026013363,0.017163867,inf,inf,inf,inf,1,1,1,1,2,1,2,3,0,0,0
101869875,0,0.0,0.0,0.600194,-0.057459496,-0.11211741,0.30814168,0.4012223,-0.2562831,0.06334958,-0.09197523,0.061327413,0.04965103,-0.0011462775,-0.00034762072,-0.0010003077,1.3458645,1.1828359,3.0674722,-3.0605748,0.0,0.17413153,-0.061327413,0.005307603,0.003632965,0.026208112,0.017262198,inf,inf,inf,inf,1,1,1,1,2,1,2,3,0,0,0
101973869,0,0.0,0.0,0.61356187,-0.064116,-0.11654882,0.30814168,0.4012223,-0.2562831,0.09110672,-0.09351303,0.0045541963,-0.011863778,-0.0011462775,-0.00034762072,-0.0010003077,-1.057648,-4.4362073,0.7033238,-3.0580463,0.0,0.17856294,-0.0045541963,0.005052263,0.0034655968,0.025670981,0.016912173,inf,inf,inf,inf,1,1,1,1,2,1,2,3,0,0,0
102077867,0,0.0,0.0,0.6278173,-0.070946895,-0.12723777,0.30814168,0.4012223,-0.2562831,0.10935265,-0.08715412,-0.058709968,-0.0795654,-0.0011462775,-0.00034762072,-0.0010003077,-2.263825,-0.079689756,-0.8045703,-3.0588622,0.0,0.18925188,0.058709968,0.0051341127,0.0035168559,0.025858715,0.017018849,inf,inf,inf,inf,1,1,1,1,2,1,2,3,0,0,0
102173875,0,0.0,0.0,0.64216757,-0.07866759,-0.14290461,0.30814168,0.4012223,-0.2562831,0.13917395,-0.09112114,-0.09337329,-0.117753714,-0.0011462775,-0.00034762072,-0.0010003077,-0.40531683,1.9411932,-1.8884249,-3.0619113,0.0,0.20491873,0.09337329,0.005451808,0.0037180893,0.026685402,0.017490258,inf,inf,inf,inf,1,1,1,1,2,1,2,3,0,0,0
102277869,0,0.0,0.0,0.6580988,-0.08914888,-0.15915017,0.30814168,0.4012223,-0.2562831,0.15256526,-0.10010544,-0.06191451,-0.08922907,-0.0011462775,-0.00034762072,-0.0010003077,-1.9234071,1.7192004,-2.9340336,-3.0628064,0.0,0.22116429,0.06191451,0.005138863,0.0035179714,0.02588139,0.017001055,inf,inf,inf,inf,1,1,1,1,2,1,2,3,0,0,0
102377869,0,0.0,0.0,0.6737474,-0.10159607,-0.16996092,0.30814168,0.4012223,-0.2562831,0.17412794,-0.11263529,-0.02605317,-0.054169606,-0.0011462775,-0.00034762072,-0.0010003077,3.3486373,0.68320704,-1.241118,-3.063694,0.0,0.23197503,0.02605317,0.0051044254,0.00349446,0.025750723,0.016973548,inf,inf,inf,inf,1,1,1,1,2,1,2,3,0,0,0
102485875,0,0.0,0.0,0.691362,-0.11718199,-0.17685036,0.30814168,0.4012223,-0.2562831,0.1753027,-0.13976777,-0.017783271,-0.04341007,-0.0011462775,-0.00034762072,-0.0010003077,0.07268005,1.83668,3.8101404,-3.064603,0.0,0.23886448,0.017783271,0.0052524726,0.0035922688,0.02623591,0.01733655,inf,inf,inf,inf,1,1,1,1,2,1,2,3,0,0,0
102581069,0,0.0,0.0,0.70752954,-0.13240424,-0.17977577,0.30814168,0.4012223,-0.2562831,0.19340871,-0.13429023,-0.035235103,-0.056163825,-0.0011462775,-0.00034762072,-0.0010003077,-2.0686324,2.5448956,-1.6897022,-3.063872,0.0,0.24178989,0.035235103,0.0051791705,0.0035504203,0.025932677,0.01719796,inf,inf,inf,inf,1,1,1,1,2,1,2,3,0,0,0
102685079,0,0.0,0.0,0.7267753,-0.14890356,-0.18202731,0.30814168,0.4012223,-0.2562831,0.22298595,-0.14776243,-0.040796846,-0.056044433,-0.0011462775,-0.00034762072,-0.0010003077,3.7316666,-2.6227958,-0.8725731,-3.0601003,0.0,0.24404143,0.040796846,0.0052947733,0.0036288172,0.026294554,0.017426312,inf,inf,inf,inf,1,1,1,1,2,1,2,3,0,0,0
102789070,0,0.0,0.0,0.7476768,-0.16591118,-0.18384635,0.30814168,0.4012223,-0.2562831,0.22845933,-0.14902037,-0.043996107,-0.054906115,-0.0011462775,-0.00034762072,-0.0010003077,-0.026936164,0.45840257,-1.4837695,-3.057093,0.0,0.24586047,0.043996107,0.0053349826,0.0036568134,0.026289899,0.017385762,inf,inf,inf,inf,1,1,1,1,2,1,2,3,0,0,0
102885097,0,0.0,0.0,0.76803505,-0.17944932,-0.18523501,0.30814168,0.4012223,-0.2562831,0.24160364,-0.12434236,-0.038027436,-0.046481013,-0.0011462775,-0.00034762072,-0.0010003077,0.6916009,0.50341135,0.111638516,-3.055653,0.0,0.24724913,0.038027436,0.00522965,0.003588451,0.02596648,0.017170817,inf,inf,inf,inf,1,1,1,1,2,1,2,3,0,0,0
102989069,0,0.0,0.0,0.79116964,-0.19023588,-0.18740089,0.30814168,0.4012223,-0.2562831,0.25452256,-0.064070314,-0.036381997,-0.043293044,-0.0011462775,-0.00034762072,-0.0010003077,2.3212888,4.587135,-1.7438037,-3.0522525,0.0,0.24941501,0.036381997,0.005322762,0.0036451337,0.026289383,0.017345734,inf,inf,inf,inf,1,1,1,1,2,1,2,3,0,0,0
103093069,0,0.0,0.0,0.81478757,-0.1925714,-0.18983011,0.30814168,0.4012223,-0.2562831,0.23654504,0.005974987,-0.02909123,-0.0351197,-0.0011462775,-0.00034762072,-0.0010003077,-3.739459,-3.0566823,-0.5747042,-3.04954,0.0,0.25184423,0.02909123,0.005398633,0.003692759,0.026463713,0.017435817,inf,inf,inf,inf,1,1,1,1,2,1,2,3,0,0,0
103188313,0,0.0,0.0,0.8344099,-0.18577181,-0.1919125,0.30814168,0.4012223,-0.2562831,0.20839325,0.08245012,-0.03115014,-0.03668179,-0.0011462775,-0.00034762072,-0.0010003077,-2.6724546,1.7971745,-0.9398831,-3.0459533,0.0,0.2539266,0.03115014,0.0053296513,0.00364756,0.026273128,0.017328879,inf,inf,inf,inf,1,1,1,1,2,1,2,3,0,0,0
103292303,0,0.0,0.0,0.8518322,-0.1695831,-0.19569041,0.30814168,0.4012223,-0.2562831,0.17715499,0.17361435,-0.054455854,-0.05955862,-0.0011462775,-0.00034762072,-0.0010003077,2.6203694,2.1750786,-0.9925287,-3.0413413,0.0,0.25770453,0.054455854,0.0053969976,0.003691315,0.026399883,0.0174085,inf,inf,inf,inf,1,1,1,1,2,1,2,3,0,0,0
103396280,0,0.0,0.0,0.86417687,-0.14588834,-0.20302019,0.30814168,0.4012223,-0.2562831,0.13680841,0.23798636,-0.087401845,-0.09262634,-0.0011462775,-0.00034762072,-0.0010003077,0.21291308,0.16520607,-3.3184218,-3.040595,0.0,0.2650343,0.087401845,0.005451561,0.0037257362,0.026543824,0.017483667,inf,inf,inf,inf,1,1,1,1,2,1,2,3,0,0,0
103500282,0,0.0,0.0,0.8734488,-0.112676755,-0.21532957,0.30814168,0.4012223,-0.2562831,0.11063125,0.30268678,-0.11825592,-0.12448528,-0.0011462775,-0.00034762072,-0.0010003077,1.1718841,1.906509,0.5099519,-3.0462518,0.0,0.2773437,0.11825592,0.0051622544,0.0035387177,0.025890294,0.017084155,inf,inf,inf,inf,1,1,1,1,2,1,2,3,0,0,0
103596292,0,0.0,0.0,0.87951237,-0.07502219,-0.22959788,0.30814168,0.4012223,-0.2562831,0.09936574,0.30632022,-0.11802145,-0.1258074,-0.0011462775,-0.00034762072,-0.0010003077,1.1808864,0.18269178,0.42537418,-3.0512424,0.0,0.291612,0.11802145,0.005098188,0.0034964965,0.02574315,0.016973792,inf,inf,inf,inf,1,1,1,1,2,1,2,3,0,0,0
103700276,0,0.0,0.0,0.8817672,-0.029911378,-0.24375708,0.30814168,0.4012223,-0.2562831,0.06881368,0.33798036,-0.08997499,-0.099557914,-0.0011462775,-0.00034762072,-0.0010003077,-0.7145976,3.451956,3.1698954,-3.060388,0.0,0.3057712,0.08997499,0.005184334,0.003549994,0.025964249,0.017100489,inf,inf,inf,inf,1,1,1,1,2,1,2,3,0,0,0
103804307,0,0.0,0.0,0.88045317,0.016142726,-0.25575748,0.30814168,0.4012223,-0.2562831,0.08447806,0.3309683,-0.082997374,-0.09310554,-0.0011462775,-0.00034762072,-0.0010003077,0.19905204,-2.369591,-0.5761688,-3.0708747,0.0,0.31777158,0.082997374,0.005271564,0.0036058405,0.02611838,0.017229285,inf,inf,inf,inf,1,1,1,1,2,1,2,3,0,0,0
103900316,0,0.0,0.0,0.8780416,0.05544472,-0.26466516,0.30814168,0.4012223,-0.2562831,0.0977381,0.33216673,-0.0815799,-0.09065992,-0.0011462775,-0.00034762072,-0.0010003077,2.0227783,-2.415593,0.21438032,-3.0792768,0.0,0.32667926,0.0815799,0.005175939,0.0035471953,0.025802419,0.017066356,inf,inf,inf,inf,1,1,1,1,2,1,2,3,0,0,0
104004321,0,0.0,0.0,0.8774984,0.092736006,-0.27307364,0.30814168,0.4012223,-0.2562831,0.09541065,0.32283407,-0.07598225,-0.08303507,-0.0011462775,-0.00034762072,-0.0010003077,4.411863,-0.090307325,1.937632,-3.0855656,0.0,0.33508775,0.07598225,0.0052398746,0.0035904874,0.025950016,0.017161623,inf,inf,inf,inf,1,1,1,1,2,1,2,3,0,0,0
104108269,0,0.0,0.0,0.8820368,0.1230162,-0.28008664,0.30814168,0.4012223,-0.2562831,0.10852175,0.3145499,-0.06148909,-0.06660688,-0.0011462775,-0.00034762072,-0.0010003077,3.8565712,3.6362643,1.7249144,-3.0900738,0.0,0.34210074,0.06148909,0.0053208414,0.0036430007,0.026198184,0.01730522,inf,inf,inf,inf,1,1,1,1,2,1,2,3,0,0,0
104211491,0,0.0,0.0,0.8931479,0.14625813,-0.28534174,0.30814168,0.4012223,-0.2562831,0.14128423,0.2646054,-0.05180508,-0.055577483,-0.0011462775,-0.00034762072,-0.0010003077,-0.08899901,-2.6064208,-0.23240371,-3.0918763,0.0,0.34735584,0.05180508,0.0053804177,0.0036817135,0.02636703,0.017395824,inf,inf,inf,inf,1,1,1,1,2,1,2,3,0,0,0
104315468,0,0.0,0.0,0.9108915,0.16346948,-0.28858557,0.30814168,0.4012223,-0.2562831,0.18118359,0.22980705,-0.02772609,-0.030620273,-0.0011462775,-0.00034762072,-0.0010003077,4.646583,-2.563135,0.082472324,-3.0902143,0.0,0.35059968,0.02772609,0.0054581184,0.0037309544,0.026570642,0.01750673,inf,inf,inf,inf,1,1,1,1,2,1,2,3,0,0,0
104411469,0,0.0,0.0,0.93211544,0.17092112,-0.29021558,0.30814168,0.4012223,-0.2562831,0.20651503,0.13372456,-0.022600226,-0.024764718,-0.0011462775,-0.00034762072,-0.0010003077,3.7096457,0.95569944,-1.8887588,-3.086221,0.0,0.35222968,0.022600226,0.0053352215,0.0036536392,0.026178189,0.017290736,inf,inf,inf,inf,1,1,1,1,2,1,2,3,0,0,0
