timestamp,ref_timestamp,ref_lat,ref_lon,x,y,z,delta_xy[0],delta_xy[1],delta_z,vx,vy,vz,z_deriv,delta_vxy[0],delta_vxy[1],delta_vz,ax,ay,az,yaw,ref_alt,dist_bottom,dist_bottom_rate,eph,epv,evh,evv,vxy_max,vz_max,hagl_min,hagl_max,xy_valid,z_valid,v_xy_valid,v_z_valid,xy_reset_counter,z_reset_counter,vxy_reset_counter,vz_reset_counter,xy_global,z_global,dist_bottom_valid
11167086,0,0.0,0.0,0.26114264,0.22186221,-0.25593007,0.2587614,0.22107713,-0.25555706,0.002506638,-0.006995273,0.0001745849,0.0017610065,-0.0005205387,0.00018896293,-0.000707599,-0.09221541,-0.19084129,0.033559013,3.1133466,0.0,0.10048008,-0.0001745849,0.010125,0.004025288,0.36288017,0.023089752,inf,inf,inf,inf,1,1,1,1,2,1,2,3,0,0,0
11175101,0,0.0,0.0,0.26122984,0.22181697,-0.2559076,0.2587614,0.22107713,-0.25555706,0.0034144246,-0.009012765,0.00037551936,0.0019421314,-0.0005205387,0.00018896293,-0.000707599,-0.09715998,-0.17175278,0.020217894,3.1135077,0.0,0.10045761,-0.00037551936,0.012369036,0.004058989,0.36307743,0.02473451,inf,inf,inf,inf,1,1,1,1,2,1,2,3,0,0,0
11271070,0,0.0,0.0,0.26271507,0.21989387,-0.2556012,0.2587614,0.22107713,-0.25555706,0.0043302355,-0.03043847,0.0015853269,0.0029375001,-0.0005205387,0.00018896293,-0.000707599,-0.08978852,-0.18171093,0.01393066,3.115501,0.0,0.10015121,-0.0015853269,0.009873749,0.005638143,0.113818906,0.049083207,inf,inf,inf,inf,1,1,1,1,2,1,2,3,0,0,0
11375070,0,0.0,0.0,0.2633844,0.21577209,-0.255201,0.2587614,0.22107713,-0.25555706,-0.0036830525,-0.04742918,0.0027505727,0.003935744,-0.0005205387,0.00018896293,-0.000707599,0.38211656,-0.34876585,-0.048340417,3.1180105,0.0,0.1,-0.0027505727,0.0075387843,0.010946552,0.08020092,0.07928374,inf,inf,inf,inf,1,1,1,1,2,1,2,3,0,0,0
11479086,0,0.0,0.0,0.26287296,0.21136689,-0.2545948,0.2587614,0.22107713,-0.25555706,-0.013202412,-0.04738888,0.0031111331,0.0043249186,-0.0005205387,0.00018896293,-0.000707599,-0.43249404,0.056249753,-0.065490395,3.1194303,0.0,0.1,-0.0031111331,0.007958801,0.020028282,0.08207444,0.11048232,inf,inf,inf,inf,1,1,1,1,2,1,2,3,0,0,0
11583108,0,0.0,0.0,0.26161167,0.2084273,-0.2538287,0.2587614,0.22107713,-0.25555706,-0.017055037,-0.039714966,0.004357669,0.005635543,-0.0005205387,0.00018896293,-0.000707599,-0.34711915,0.16729136,0.032821428,3.1220675,0.0,0.1,-0.004357669,0.007174681,0.032570664,0.068322875,0.14187106,inf,inf,inf,inf,1,1,1,1,2,1,2,3,0,0,0
11687076,0,0.0,0.0,0.26025933,0.20788512,-0.22539487,0.2587614,0.22107713,-0.25555706,-0.017372118,-0.029201996,0.098155275,0.13342035,-0.0005205387,0.00018896293,-0.000707599,0.1434285,-0.3204953,0.048211537,3.1240454,0.0,0.1,-0.098155275,0.0072858077,0.007405326,0.05921378,0.038907103,inf,inf,inf,inf,1,1,1,1,2,1,2,3,0,0,0
11783070,0,0.0,0.0,0.2590969,0.2091657,-0.1345677,0.2587614,0.22107713,-0.25555706,-0.017730493,-0.016074171,0.29249692,0.39620182,-0.0005205387,0.00018896293,-0.000707599,0.08786756,-0.18931657,0.098644935,3.125971,0.0,0.23056287,-0.29249692,0.0065101036,0.004516521,0.0483887,0.033137657,inf,inf,inf,inf,1,1,1,1,2,1,2,3,0,0,0
11887069,0,0.0,0.0,0.25829595,0.21185353,-0.041542932,0.2587614,0.22107713,-0.25555706,-0.017902011,-0.0051418305,0.36126658,0.48826405,-0.0005205387,0.00018896293,-0.000707599,-0.1629904,0.14366768,-0.12814583,3.1274724,0.0,0.14355029,-0.36126658,0.0066222143,0.0045450525,0.043356467,0.031398762,inf,inf,inf,inf,1,1,1,1,2,1,2,3,0,0,0
11991070,0,0.0,0.0,0.25789788,0.21505962,0.024495322,0.2587614,0.22107713,-0.25555706,-0.014254392,-0.0017582821,0.32767782,0.44110346,-0.0005205387,0.00018896293,-0.000707599,0.39373922,-0.40800792,0.08710187,3.1275485,0.0,0.1,-0.32767782,0.0057374514,0.0040368508,0.036315218,0.02627348,inf,inf,inf,inf,1,1,1,1,2,1,2,3,0,0,0
12087113,0,0.0,0.0,0.25777432,0.2179617,0.058258843,0.2587614,0.22107713,-0.25555706,-0.014004441,0.003801309,0.2650651,0.35405898,-0.0005205387,0.00018896293,-0.000707599,-0.50175905,-0.7715383,-0.3596868,3.1273332,0.0,0.1,-0.2650651,0.006230022,0.004397623,0.03598441,0.02513353,inf,inf,inf,inf,1,1,1,1,2,1,2,3,0,0,0
12191107,0,0.0,0.0,0.2579853,0.22060303,0.07033489,0.2587614,0.22107713,-0.25555706,-0.009382611,0.007742554,0.19614898,0.2562992,-0.0005205387,0.00018896293,-0.000707599,0.69812554,0.14302862,0.22009635,3.126783,0.0,0.1,-0.19614898,0.0058446536,0.0040988354,0.03313311,0.022341838,inf,inf,inf,inf,1,1,1,1,2,1,2,3,0,0,0
12295072,0,0.0,0.0,0.25846764,0.2228259,0.066224724,0.2587614,0.22107713,-0.25555706,-0.009665785,0.0046319272,0.1385436,0.17380719,-0.0005205387,0.00018896293,-0.000707599,-0.617855,-0.6816769,-0.15781114,3.1266556,0.0,0.1,-0.1385436,0.005903916,0.004099628,0.032410573,0.021277098,inf,inf,inf,inf,1,1,1,1,2,1,2,3,0,0,0
12391076,0,0.0,0.0,0.25906995,0.22414936,0.05484657,0.2587614,0.22107713,-0.25555706,-0.0064691436,0.010058096,0.0977481,0.11501432,-0.0005205387,0.00018896293,-0.000707599,0.4588464,0.078196794,-0.30333677,3.1270578,0.0,0.1,-0.0977481,0.005384044,0.0037188316,0.030460976,0.019678067,inf,inf,inf,inf,1,1,1,1,2,1,2,3,0,0,0
12495076,0,0.0,0.0,0.25990728,0.2250644,0.03968566,0.2587614,0.22107713,-0.25555706,-0.0023993007,0.009100344,0.070680484,0.07383296,-0.0005205387,0.00018896293,-0.000707599,1.1454049,0.39909047,-0.3714565,3.1262808,0.0,0.1,-0.070680484,0.0056499904,0.0038544373,0.031377703,0.019873269,inf,inf,inf,inf,1,1,1,1,2,1,2,3,0,0,0
12599070,0,0.0,0.0,0.26090965,0.22558689,0.024891565,0.2587614,0.22107713,-0.25555706,-0.0025974459,0.008427296,0.051799115,0.045485258,-0.0005205387,0.00018896293,-0.000707599,0.36988172,0.52607995,-0.15416746,3.1259773,0.0,0.1,-0.051799115,0.0054060393,0.0036751113,0.030440088,0.019092754,inf,inf,inf,inf,1,1,1,1,2,1,2,3,0,0,0
12703111,0,0.0,0.0,0.26193663,0.22574481,0.011973848,0.2587614,0.22107713,-0.25555706,0.00027296314,0.0076860627,0.039951034,0.027541913,-0.0005205387,0.00018896293,-0.000707599,0.30944562,0.9427854,-0.52113646,3.1259768,0.0,0.1,-0.039951034,0.0055140834,0.0037241236,0.03066027,0.019005131,inf,inf,inf,inf,1,1,1,1,2,1,2,3,0,0,0
12807071,0,0.0,0.0,0.2628837,0.2257554,0.0014382632,0.2587614,0.22107713,-0.25555706,0.0017467149,0.0077758366,0.032921392,0.016824419,-0.0005205387,0.00018896293,-0.000707599,0.35885653,0.37069753,-0.59500587,3.1260774,0.0,0.1,-0.032921392,0.00562158,0.003770613,0.03103402,0.01901786,inf,inf,inf,inf,1,1,1,1,2,1,2,3,0,0,0
12903070,0,0.0,0.0,0.26376697,0.22564788,-0.006065433,0.2587614,0.22107713,-0.25555706,0.0024917754,0.0021193326,0.032030374,0.014097463,-0.0005205387,0.00018896293,-0.000707599,-0.06008204,-0.80727446,0.24314995,3.1260808,0.0,0.1,-0.032030374,0.0052902256,0.003549483,0.030170742,0.01843865,inf,inf,inf,inf,1,1,1,1,2,1,2,3,0,0,0
13007103,0,0.0,0.0,0.26458693,0.22545825,-0.012177006,0.2587614,0.22107713,-0.25555706,0.0062932605,0.006801482,0.029757096,0.010754892,-0.0005205387,0.00018896293,-0.000707599,1.1816384,0.7890411,0.2860852,3.1258852,0.0,0.1,-0.029757096,0.005339077,0.003554413,0.030592604,0.018533677,inf,inf,inf,inf,1,1,1,1,2,1,2,3,0,0,0
13111080,0,0.0,0.0,0.2652741,0.22523595,-0.016610619,0.2587614,0.22107713,-0.25555706,0.0037162884,0.0064207623,0.029825497,0.010387227,-0.0005205387,0.00018896293,-0.000707599,-0.4279468,0.90555835,0.6296058,3.1261413,0.0,0.1,-0.029825497,0.005623266,0.003716316,0.031209646,0.018773567,inf,inf,inf,inf,1,1,1,1,2,1,2,3,0,0,0
13215119,0,0.0,0.0,0.26585492,0.2249525,-0.019792024,0.2587614,0.22107713,-0.25555706,0.0053743958,0.004433936,0.028188635,0.008627995,-0.0005205387,0.00018896293,-0.000707599,-0.8987239,-0.15476862,0.16339482,3.125683,0.0,0.1,-0.028188635,0.005454475,0.0036130454,0.030525444,0.018396273,inf,inf,inf,inf,1,1,1,1,2,1,2,3,0,0,0
13319117,0,0.0,0.0,0.2662884,0.22461352,-0.022156361,0.2587614,0.22107713,-0.25555706,0.0073700175,0.005404371,0.02709611,0.007618898,-0.0005205387,0.00018896293,-0.000707599,0.800169,1.0444415,0.077961214,3.1255145,0.0,0.1,-0.02709611,0.0057604425,0.0037836095,0.03142625,0.018786713,inf,inf,inf,inf,1,1,1,1,2,1,2,3,0,0,0
13415070,0,0.0,0.0,0.26651636,0.22437537,-0.023917153,0.2587614,0.22107713,-0.25555706,0.0068939747,0.004173152,0.025960373,0.006576299,-0.0005205387,0.00018896293,-0.000707599,-0.010419805,0.89921,0.5036242,3.1254098,0.0,0.1,-0.025960373,0.005761182,0.003785194,0.031231595,0.018679883,inf,inf,inf,inf,1,1,1,1,2,1,2,3,0,0,0
13519072,0,0.0,0.0,0.2665951,0.22411524,-0.025530843,0.2587614,0.22107713,-0.25555706,0.0035072612,0.0050475383,0.02356542,0.0043351436,-0.0005205387,0.00018896293,-0.000707599,-1.3657618,1.1534959,-0.09344429,3.1249757,0.0,0.1,-0.02356542,0.0054898327,0.0036285291,0.03027416,0.018220324,inf,inf,inf,inf,1,1,1,1,2,1,2,3,0,0,0
13623070,0,0.0,0.0,0.26660457,0.22380313,-0.026855,0.2587614,0.22107713,-0.25555706,0.006907554,0.005118345,0.020941397,0.002032058,-0.0005205387,0.00018896293,-0.000707599,0.11006266,1.8785697,-0.36298022,3.124736,0.0,0.1,-0.020941397,0.005679953,0.0037367428,0.030776095,0.01845882,inf,inf,inf,inf,1,1,1,1,2,1,2,3,0,0,0
13719107,0,0.0,0.0,0.26653686,0.22353923,-0.027886253,0.2587614,0.22107713,-0.25555706,0.0048418716,0.0032360575,0.021613628,0.0030497708,-0.0005205387,0.00018896293,-0.000707599,-0.206506,0.21037401,0.12699908,3.1245728,0.0,0.1,-0.021613628,0.005667397,0.0037288743,0.030681098,0.018419322,inf,inf,inf,inf,1,1,1,1,2,1,2,3,0,0,0
13823071,0,0.0,0.0,0.26642668,0.22324874,-0.028774913,0.2587614,0.22107713,-0.25555706,0.0053318413,0.00540735,0.020188194,0.0020538059,-0.0005205387,0.00018896293,-0.000707599,0.32492745,1.0150311,0.2987977,3.1243262,0.0,0.1,-0.020188194,0.0055228514,0.0036410938,0.03024546,0.018229395,inf,inf,inf,inf,1,1,1,1,2,1,2,3,0,0,0
13927102,0,0.0,0.0,0.26623413,0.22302958,-0.029493656,0.2587614,0.22107713,-0.25555706,0.0071797534,0.008258587,0.019777223,0.0021019056,-0.0005205387,0.00018896293,-0.000707599,1.1085602,2.4263508,0.27966455,3.1241658,0.0,0.1,-0.019777223,0.005731816,0.003764827,0.030683445,0.018462235,inf,inf,inf,inf,1,1,1,1,2,1,2,3,0,0,0
14023089,0,0.0,0.0,0.26613304,0.22286977,-0.02997065,0.2587614,0.22107713,-0.25555706,0.0033042592,0.0039453716,0.020963896,0.0037828498,-0.0005205387,0.00018896293,-0.000707599,-0.30866268,0.78172374,0.058385495,3.1241827,0.0,0.1,-0.020963896,0.0057752104,0.003791723,0.030702705,0.018495798,inf,inf,inf,inf,1,1,1,1,2,1,2,3,0,0,0
14127071,0,0.0,0.0,0.2660453,0.22284324,-0.030478515,0.2587614,0.22107713,-0.25555706,0.004605353,0.0022173733,0.018528393,0.0018567757,-0.0005205387,0.00018896293,-0.000707599,-0.43365875,-0.5683424,-0.09204587,3.1239367,0.0,0.1,-0.018528393,0.0054688775,0.0036225936,0.029533379,0.017972562,inf,inf,inf,inf,1,1,1,1,2,1,2,3,0,0,0
14231070,0,0.0,0.0,0.26599127,0.22279996,-0.030876657,0.2587614,0.22107713,-0.25555706,0.006474265,0.0048474576,0.01751769,0.0013262623,-0.0005205387,0.00018896293,-0.000707599,1.2034676,0.8422751,-0.18316792,3.124254,0.0,0.1,-0.01751769,0.0055666748,0.0036840818,0.029702535,0.01808259,inf,inf,inf,inf,1,1,1,1,2,1,2,3,0,0,0
14334287,0,0.0,0.0,0.26591778,0.222772,-0.031236978,0.2587614,0.22107713,-0.25555706,0.0027577365,0.00057254906,0.017836088,0.0020189083,-0.0005205387,0.00018896293,-0.000707599,-1.0807521,-0.05628556,-0.607059,3.1244047,0.0,0.1,-0.017836088,0.0056561525,0.003739987,0.029849993,0.018189102,inf,inf,inf,inf,1,1,1,1,2,1,2,3,0,0,0
14431072,0,0.0,0.0,0.2658948,0.22281547,-0.031494863,0.2587614,0.22107713,-0.25555706,0.0019112579,0.0052113943,0.02021337,0.004740459,-0.0005205387,0.00018896293,-0.000707599,-1.0436122,-0.6213262,0.1262148,3.124427,0.0,0.1,-0.02021337,0.0056281853,0.0037224598,0.029789515,0.01818134,inf,inf,inf,inf,1,1,1,1,2,1,2,3,0,0,0
14535070,0,0.0,0.0,0.26589352,0.22326645,-0.031616222,0.2587614,0.22107713,-0.25555706,0.0053145634,0.008209165,0.020113675,0.0050679804,-0.0005205387,0.00018896293,-0.000707599,0.29730895,-0.05637179,-0.4162947,3.124403,0.0,0.1,-0.020113675,0.0053808778,0.0035812522,0.02895746,0.017823106,inf,inf,inf,inf,1,1,1,1,2,1,2,3,0,0,0
14637511,0,0.0,0.0,0.26589617,0.22380087,-0.03167614,0.2587614,0.22107713,-0.25555706,0.0044247312,0.008263239,0.020026404,0.0053696968,-0.0005205387,0.00018896293,-0.000707599,-0.4618382,-0.15939257,-0.017339148,3.1243136,0.0,0.1,-0.020026404,0.005530609,0.0036722843,0.02931165,0.018034356,inf,inf,inf,inf,1,1,1,1,2,1,2,3,0,0,0
14737510,0,0.0,0.0,0.2658901,0.22433345,-0.03168291,0.2587614,0.22107713,-0.25555706,0.005288483,0.008932365,0.020955054,0.006552523,-0.0005205387,0.00018896293,-0.000707599,-0.0014143732,0.27797997,0.53703845,3.124537,0.0,0.1,-0.020955054,0.00543727,0.0036222013,0.028852498,0.017836414,inf,inf,inf,inf,1,1,1,1,2,1,2,3,0,0,0
43546269,0,0.0,0.0,0.18399885,-0.15545331,-0.25143206,0.2587614,0.22107713,-0.25555706,-0.17947924,-0.1382826,0.14456321,0.1440557,-0.0005205387,0.00018896293,-0.000707599,0.5721389,-1.6722357,1.6803895,3.0666363,0.0,0.31531557,-0.14456321,0.005171064,0.0035446493,0.025922894,0.017115831,inf,inf,inf,inf,1,1,1,1,2,1,2,3,0,0,0
43650287,0,0.0,0.0,0.16793765,-0.186288,-0.2408971,0.2587614,0.22107713,-0.25555706,-0.17554924,-0.18282318,0.10588592,0.104338214,-0.0005205387,0.00018896293,-0.000707599,-0.9903418,3.3523893,2.1938243,3.0665426,0.0,0.3047806,-0.10588592,0.005299605,0.0036258684,0.026313387,0.01734383,inf,inf,inf,inf,1,1,1,1,2,1,2,3,0,0,0
43754290,0,0.0,0.0,0.15098393,-0.21907571,-0.23208606,0.2587614,0.22107713,-0.25555706,-0.17064574,-0.2195637,0.11889411,0.11553299,-0.0005205387,0.00018896293,-0.000707599,1.4314442,1.2492537,2.1141517,3.067816,0.0,0.29596958,-0.11889411,0.0050064977,0.0034377645,0.02556061,0.016883153,inf,inf,inf,inf,1,1,1,1,2,1,2,3,0,0,0
43850275,0,0.0,0.0,0.13588858,-0.24845275,-0.22397004,0.2587614,0.22107713,-0.25555706,-0.16187474,-0.21675521,0.11923374,0.11355625,-0.0005205387,0.00018896293,-0.000707599,-1.893445,2.4171956,0.8541221,3.0687728,0.0,0.28785354,-0.11923374,0.005385198,0.0036779044,0.026641274,0.017501533,inf,inf,inf,inf,1,1,1,1,2,1,2,3,0,0,0
43954286,0,0.0,0.0,0.12068831,-0.27771184,-0.21623541,0.2587614,0.22107713,-0.25555706,-0.13403343,-0.22596335,0.08739196,0.079735875,-0.0005205387,0.00018896293,-0.000707599,0.6675146,2.7004716,0.71624464,3.0688727,0.0,0.28011894,-0.08739196,0.005120578,0.0035096165,0.025810637,0.017047372,inf,inf,inf,inf,1,1,1,1,2,1,2,3,0,0,0
44058270,0,0.0,0.0,0.10793727,-0.30215377,-0.21255097,0.2587614,0.22107713,-0.25555706,-0.11604157,-0.19366682,0.057204567,0.0481211,-0.0005205387,0.00018896293,-0.000707599,1.0003943,3.6751728,2.0611932,3.0665698,0.0,0.27643448,-0.057204567,0.0049938844,0.0034261493,0.025601828,0.016937882,inf,inf,inf,inf,1,1,1,1,2,1,2,3,0,0,0
44154294,0,0.0,0.0,0.09933014,-0.32032865,-0.21383753,0.2587614,0.22107713,-0.25555706,-0.07658055,-0.1704798,0.0027936043,-0.0079003805,-0.0005205387,0.00018896293,-0.000707599,3.0596142,3.6436586,-2.1100006,3.0638096,0.0,0.27772105,-0.0027936043,0.005064679,0.0034714963,0.025811994,0.017040813,inf,inf,inf,inf,1,1,1,1,2,1,2,3,0,0,0
44258289,0,0.0,0.0,0.09395648,-0.33409214,-0.22016118,0.2587614,0.22107713,-0.25555706,-0.041901473,-0.14945264,-0.031600427,-0.044742793,-0.0005205387,0.00018896293,-0.000707599,3.0837507,-3.395053,0.14859384,3.0589035,0.0,0.28404468,0.031600427,0.0051845596,0.003550351,0.026020976,0.017152185,inf,inf,inf,inf,1,1,1,1,2,1,2,3,0,0,0
44362289,0,0.0,0.0,0.09318603,-0.34184498,-0.23090163,0.2587614,0.22107713,-0.25555706,-0.018960724,-0.11587796,-0.052476622,-0.06873371,-0.0005205387,0.00018896293,-0.000707599,2.8567889,0.66267025,-0.63799685,3.0529735,0.0,0.29478514,0.052476622,0.00505843,0.0034653763,0.02586198,0.017033368,inf,inf,inf,inf,1,1,1,1,2,1,2,3,0,0,0
44458276,0,0.0,0.0,0.096289665,-0.34445134,-0.24312374,0.2587614,0.22107713,-0.25555706,0.0113340765,-0.09289923,-0.074023835,-0.09265758,-0.0005205387,0.00018896293,-0.000707599,0.32736075,-1.8810519,-1.2613558,3.0480337,0.0,0.30700725,0.074023835,0.005133431,0.0035118614,0.026062256,0.017143348,inf,inf,inf,inf,1,1,1,1,2,1,2,3,0,0,0
44562298,0,0.0,0.0,0.102539696,-0.34346214,-0.25624645,0.2587614,0.22107713,-0.25555706,0.03197116,-0.07495034,-0.07863503,-0.098587215,-0.0005205387,0.00018896293,-0.000707599,0.5474051,1.1822451,-2.815058,3.0456295,0.0,0.32012996,0.07863503,0.005283297,0.0036100727,0.026303517,0.017310945,inf,inf,inf,inf,1,1,1,1,2,1,2,3,0,0,0
44666278,0,0.0,0.0,0.111201175,-0.33966744,-0.26753667,0.2587614,0.22107713,-0.25555706,0.054316245,-0.04594531,-0.060876343,-0.08043842,-0.0005205387,0.00018896293,-0.000707599,2.9141114,0.35225752,-1.26422,3.0463934,0.0,0.33142018,0.060876343,0.005134558,0.003514953,0.02594319,0.017125592,inf,inf,inf,inf,1,1,1,1,2,1,2,3,0,0,0
44770269,0,0.0,0.0,0.121004395,-0.3353059,-0.27536666,0.2587614,0.22107713,-0.25555706,0.061597146,-0.04718396,-0.04746116,-0.06490421,-0.0005205387,0.00018896293,-0.000707599,1.6729141,0.0930662,-1.3133088,3.0477495,0.0,0.33925018,0.04746116,0.0050792126,0.0034791643,0.025882112,0.01711613,inf,inf,inf,inf,1,1,1,1,2,1,2,3,0,0,0
44866270,0,0.0,0.0,0.13014497,-0.33111903,-0.27906767,0.2587614,0.22107713,-0.25555706,0.0631653,-0.021336334,-0.03516198,-0.049560893,-0.0005205387,0.00018896293,-0.000707599,-0.34658858,-0.041823562,-1.7272916,3.048182,0.0,0.34295118,0.03516198,0.0050936043,0.0034927167,0.025742464,0.017047908,inf,inf,inf,inf,1,1,1,1,2,1,2,3,0,0,0
44970298,0,0.0,0.0,0.13936469,-0.3276119,-0.28062662,0.2587614,0.22107713,-0.25555706,0.05759919,-0.023883408,-0.0313886,-0.04185136,-0.0005205387,0.00018896293,-0.000707599,-2.5472949,-0.42542338,-0.18712838,3.0482197,0.0,0.34451014,0.0313886,0.0052257935,0.003581026,0.026028268,0.017226636,inf,inf,inf,inf,1,1,1,1,2,1,2,3,0,0,0
45074273,0,0.0,0.0,0.1470601,-0.32565317,-0.281537,0.2587614,0.22107713,-0.25555706,0.05843663,-0.013340104,-0.04332777,-0.050127476,-0.0005205387,0.00018896293,-0.000707599,-2.844854,-1.927172,-1.1153343,3.0466812,0.0,0.3454205,0.04332777,0.0050037922,0.0034387892,0.025467021,0.016885795,inf,inf,inf,inf,1,1,1,1,2,1,2,3,0,0,0
45178270,0,0.0,0.0,0.15234205,-0.32586738,-0.28273597,0.2587614,0.22107713,-0.25555706,0.04674672,-0.011132325,-0.037222836,-0.041379843,-0.0005205387,0.00018896293,-0.000707599,-0.42635393,3.577939,-1.2169675,3.0464306,0.0,0.3466195,0.037222836,0.005260995,0.003601978,0.026307723,0.017388972,inf,inf,inf,inf,1,1,1,1,2,1,2,3,0,0,0
45274270,0,0.0,0.0,0.15472144,-0.32846513,-0.28358173,0.2587614,0.22107713,-0.25555706,0.04083297,-0.029574092,-0.02584648,-0.028673619,-0.0005205387,0.00018896293,-0.000707599,1.2374591,1.5366536,0.7040455,3.0491507,0.0,0.34746525,0.02584648,0.0052524726,0.003598264,0.026156554,0.017288938,inf,inf,inf,inf,1,1,1,1,2,1,2,3,0,0,0
45378270,0,0.0,0.0,0.15532936,-0.33337474,-0.28479174,0.2587614,0.22107713,-0.25555706,0.025663707,-0.03035801,-0.017831448,-0.020032214,-0.0005205387,0.00018896293,-0.000707599,1.1428972,2.6912205,0.8627232,3.0541074,0.0,0.34867525,0.017831448,0.005079627,0.0034858068,0.025754588,0.017059589,inf,inf,inf,inf,1,1,1,1,2,1,2,3,0,0,0
45482283,0,0.0,0.0,0.15377226,-0.33946645,-0.2862392,0.2587614,0.22107713,-0.25555706,0.013711258,-0.03964481,-0.017963734,-0.019955616,-0.0005205387,0.00018896293,-0.000707599,2.4219635,1.1978498,0.80774206,3.0611796,0.0,0.35012272,0.017963734,0.0050047445,0.003436049,0.025610179,0.016977549,inf,inf,inf,inf,1,1,1,1,2,1,2,3,0,0,0
45578272,0,0.0,0.0,0.15077241,-0.345794,-0.28832555,0.2587614,0.22107713,-0.25555706,0.003675084,-0.03646043,-0.03156997,-0.033566136,-0.0005205387,0.00018896293,-0.000707599,0.92254543,-2.0759995,-0.3647965,3.068778,0.0,0.35220906,0.03156997,0.0053776577,0.0036780713,0.026473438,0.017491134,inf,inf,inf,inf,1,1,1,1,2,1,2,3,0,0,0
45682301,0,0.0,0.0,0.14655173,-0.35250145,-0.29181284,0.2587614,0.22107713,-0.25555706,-0.0018457519,-0.028063145,-0.037424225,-0.03964938,-0.0005205387,0.00018896293,-0.000707599,-1.2415339,0.4335624,0.07732733,3.0778203,0.0,0.35569635,0.037424225,0.0051376307,0.003525836,0.025786715,0.01710252,inf,inf,inf,inf,1,1,1,1,2,1,2,3,0,0,0
45786278,0,0.0,0.0,0.1421851,-0.3579229,-0.29722044,0.2587614,0.22107713,-0.25555706,-0.007260363,-0.004588206,-0.046140935,-0.048988715,-0.0005205387,0.00018896293,-0.000707599,0.5680516,2.0872843,-0.3173978,3.0863013,0.0,0.36110395,0.046140935,0.0050108987,0.003442873,0.025553316,0.016965091,inf,inf,inf,inf,1,1,1,1,2,1,2,3,0,0,0
45882314,0,0.0,0.0,0.13848983,-0.3614052,-0.3042458,0.2587614,0.22107713,-0.25555706,-0.0015426353,-0.017799256,-0.076830894,-0.08065396,-0.0005205387,0.00018896293,-0.000707599,0.9076463,-5.2314606,-0.5103844,3.0947096,0.0,0.3681293,0.076830894,0.0050713904,0.0034820316,0.025740635,0.017059477,inf,inf,inf,inf,1,1,1,1,2,1,2,3,0,0,0
45986282,0,0.0,0.0,0.13616432,-0.3623876,-0.31523108,0.2587614,0.22107713,-0.25555706,-0.004940246,0.009140983,-0.08951985,-0.09481451,-0.0005205387,0.00018896293,-0.000707599,-3.0486405,-1.5344054,1.2274472,3.1012235,0.0,0.3791146,0.08951985,0.0052638487,0.0036069478,0.026194055,0.017335512,inf,inf,inf,inf,1,1,1,1,2,1,2,3,0,0,0
46090270,0,0.0,0.0,0.13573366,-0.3602622,-0.32784522,0.2587614,0.22107713,-0.25555706,-0.0021554942,0.045335885,-0.09073146,-0.09780505,-0.0005205387,0.00018896293,-0.000707599,-3.9916382,4.401286,1.5061767,3.1064527,0.0,0.39172873,0.09073146,0.005417038,0.0037065083,0.02655162,0.017518936,inf,inf,inf,inf,1,1,1,1,2,1,2,3,0,0,0
46193476,0,0.0,0.0,0.13646917,-0.35446286,-0.33899924,0.2587614,0.22107713,-0.25555706,0.0063318945,0.06602506,-0.08160413,-0.0900086,-0.0005205387,0.00018896293,-0.000707599,-4.6437597,3.8214495,-3.1999273,3.1093931,0.0,0.40288275,0.08160413,0.0051125074,0.0035114116,0.025651949,0.016986342,inf,inf,inf,inf,1,1,1,1,2,1,2,3,0,0,0
46293469,0,0.0,0.0,0.1377037,-0.346879,-0.3473927,0.2587614,0.22107713,-0.25555706,0.005222921,0.07391238,-0.053619333,-0.061928336,-0.0005205387,0.00018896293,-0.000707599,-0.28763482,2.9076154,1.1126337,3.1131222,0.0,0.41127622,0.053619333,0.005160166,0.0035435937,0.025767177,0.017083274,inf,inf,inf,inf,1,1,1,1,2,1,2,3,0,0,0
46396720,0,0.0,0.0,0.1395984,-0.3366912,-0.35383514,0.2587614,0.22107713,-0.25555706,0.00096324785,0.09499685,-0.054805934,-0.061475955,-0.0005205387,0.00018896293,-0.000707599,-1.633628,3.555485,-2.72437,3.1150813,0.0,0.41771865,0.054805934,0.0049534477,0.0034067743,0.02535218,0.016830336,inf,inf,inf,inf,1,1,1,1,2,1,2,3,0,0,0
46493470,0,0.0,0.0,0.14093979,-0.32641235,-0.35748166,0.2587614,0.22107713,-0.25555706,0.0023932415,0.093875855,-0.05054291,-0.05528172,-0.0005205387,0.00018896293,-0.000707599,-0.96737486,-1.3515911,-1.5109067,3.1167204,0.0,0.42136517,0.05054291,0.005014215,0.003443452,0.025597844,0.016945615,inf,inf,inf,inf,1,1,1,1,2,1,2,3,0,0,0
46590297,0,0.0,0.0,0.14158897,-0.3148702,-0.36042866,0.2587614,0.22107713,-0.25555706,-0.012652075,0.12800796,-0.042645957,-0.04558108,-0.0005205387,0.00018896293,-0.000707599,1.7443016,2.1028411,0.34711114,3.118367,0.0,0.42431217,0.042645957,0.0051696175,0.0035407855,0.02609327,0.017249774,inf,inf,inf,inf,1,1,1,1,2,1,2,3,0,0,0
46697488,0,0.0,0.0,0.14143896,-0.30103052,-0.36442813,0.2587614,0.22107713,-0.25555706,-0.008317932,0.14560944,-0.05090889,-0.052558046,-0.0005205387,0.00018896293,-0.000707599,-1.042783,1.2304354,-0.46351996,3.1191003,0.0,0.42831165,0.05090889,0.0050805244,0.0034841655,0.025795737,0.01707043,inf,inf,inf,inf,1,1,1,1,2,1,2,3,0,0,0
46800716,0,0.0,0.0,0.13935293,-0.28601637,-0.3684107,0.2587614,0.22107713,-0.25555706,-0.017731503,0.14777523,-0.04998102,-0.051409334,-0.0005205387,0.00018896293,-0.000707599,-4.0852485,-2.1361942,0.24274841,3.117122,0.0,0.43229422,0.04998102,0.005138294,0.0035199148,0.026233822,0.017363375,inf,inf,inf,inf,1,1,1,1,2,1,2,3,0,0,0
46897470,0,0.0,0.0,0.1362826,-0.27121192,-0.37274238,0.2587614,0.22107713,-0.25555706,-0.036017388,0.17688403,-0.042607486,-0.044551574,-0.0005205387,0.00018896293,-0.000707599,-2.9306602,4.1506495,0.97372186,3.1149013,0.0,0.4366259,0.042607486,0.0050120438,0.0034377344,0.025899386,0.017166669,inf,inf,inf,inf,1,1,1,1,2,1,2,3,0,0,0
47001470,0,0.0,0.0,0.13175209,-0.25482103,-0.37804475,0.2587614,0.22107713,-0.25555706,-0.038318817,0.17306657,-0.04346691,-0.0463237,-0.0005205387,0.00018896293,-0.000707599,-1.8038522,3.8743203,1.4324895,3.1103215,0.0,0.44192827,0.04346691,0.0049838093,0.0034217727,0.025627637,0.017007079,inf,inf,inf,inf,1,1,1,1,2,1,2,3,0,0,0
47105476,0,0.0,0.0,0.12719873,-0.23857978,-0.38453603,0.2587614,0.22107713,-0.25555706,-0.019769866,0.16782476,-0.058483437,-0.062340908,-0.0005205387,0.00018896293,-0.000707599,3.8264742,0.9441506,-1.8203322,3.1039715,0.0,0.44841954,0.058483437,0.005152466,0.0035345976,0.025847401,0.017132042,inf,inf,inf,inf,1,1,1,1,2,1,2,3,0,0,0
47209470,0,0.0,0.0,0.12322713,-0.22324513,-0.39247045,0.2587614,0.22107713,-0.25555706,-0.022138339,0.13997664,-0.06420567,-0.069197714,-0.0005205387,0.00018896293,-0.000707599,0.1364721,-0.4573462,-1.4008926,3.096308,0.0,0.45635396,0.06420567,0.0052431296,0.003596459,0.025953004,0.017188514,inf,inf,inf,inf,1,1,1,1,2,1,2,3,0,0,0
47313469,0,0.0,0.0,0.11949798,-0.21005732,-0.40193078,0.2587614,0.22107713,-0.25555706,-0.027251225,0.12884918,-0.07718829,-0.08347099,-0.0005205387,0.00018896293,-0.000707599,-2.0149145,1.3850634,-0.92378443,3.089357,0.0,0.4658143,0.07718829,0.005326142,0.003650309,0.0261812,0.017320622,inf,inf,inf,inf,1,1,1,1,2,1,2,3,0,0,0
47409476,0,0.0,0.0,0.116474956,-0.200072,-0.41156107,0.2587614,0.22107713,-0.25555706,-0.028382389,0.11613219,-0.077210926,-0.084724136,-0.0005205387,0.00018896293,-0.000707599,-2.4453022,4.8450804,0.1552073,3.0833085,0.0,0.47544459,0.077210926,0.0052424585,0.003597078,0.025974136,0.017196788,inf,inf,inf,inf,1,1,1,1,2,1,2,3,0,0,0
47513512,0,0.0,0.0,0.114315554,-0.1929369,-0.42268717,0.2587614,0.22107713,-0.25555706,-0.010909811,0.07836765,-0.08033668,-0.08900518,-0.0005205387,0.00018896293,-0.000707599,0.6256077,-0.55425304,0.41952267,3.0749958,0.0,0.4865707,0.08033668,0.005304783,0.0036373266,0.026158726,0.017312994,inf,inf,inf,inf,1,1,1,1,2,1,2,3,0,0,0
47617470,0,0.0,0.0,0.11362456,-0.18962933,-0.4343381,0.2587614,0.22107713,-0.25555706,-0.0058144513,0.05537974,-0.08265915,-0.09214194,-0.0005205387,0.00018896293,-0.000707599,1.8446604,3.4648807,1.7652045,3.0648787,0.0,0.4982216,0.08265915,0.0051081856,0.0035082914,0.025778953,0.017100919,inf,inf,inf,inf,1,1,1,1,2,1,2,3,0,0,0
47713476,0,0.0,0.0,0.11448533,-0.18955187,-0.44561902,0.2587614,0.22107713,-0.25555706,0.0050922134,0.03542884,-0.101224266,-0.111081794,-0.0005205387,0.00018896293,-0.000707599,-1.8994243,-1.0017935,-1.4687438,3.0549302,0.0,0.50950253,0.101224266,0.005079038,0.0034899788,0.025672,0.017037012,inf,inf,inf,inf,1,1,1,1,2,1,2,3,0,0,0
47817485,0,0.0,0.0,0.117595255,-0.19188866,-0.45861506,0.2587614,0.22107713,-0.25555706,0.013760497,0.01727973,-0.1020064,-0.112006254,-0.0005205387,0.00018896293,-0.000707599,-0.9765313,1.155955,1.6445249,3.043066,0.0,0.5224986,0.1020064,0.00515,0.003537006,0.025783943,0.017094832,inf,inf,inf,inf,1,1,1,1,2,1,2,3,0,0,0
47921470,0,0.0,0.0,0.122281455,-0.19646624,-0.47116512,0.2587614,0.22107713,-0.25555706,0.021098798,0.0077653537,-0.102015086,-0.11206653,-0.0005205387,0.00018896293,-0.000707599,0.8198032,3.6898427,-0.80874926,3.03325,0.0,0.5350486,0.102015086,0.005260607,0.0036080393,0.026118346,0.017289244,inf,inf,inf,inf,1,1,1,1,2,1,2,3,0,0,0
48017470,0,0.0,0.0,0.12707958,-0.20203088,-0.48240376,0.2587614,0.22107713,-0.25555706,0.01634239,0.000104488456,-0.097431704,-0.10721651,-0.0005205387,0.00018896293,-0.000707599,0.05301782,6.055119,-0.16611803,3.0285912,0.0,0.5462873,0.097431704,0.005221108,0.003581698,0.02602941,0.017232468,inf,inf,inf,inf,1,1,1,1,2,1,2,3,0,0,0
48121471,0,0.0,0.0,0.13233615,-0.2083698,-0.49328753,0.2587614,0.22107713,-0.25555706,0.025546039,-0.026406234,-0.07966749,-0.088823915,-0.0005205387,0.00018896293,-0.000707599,2.9167893,1.5492457,1.1860862,3.026547,0.0,0.55717105,0.07966749,0.005104133,0.0035021473,0.02593024,0.017156418,inf,inf,inf,inf,1,1,1,1,2,1,2,3,0,0,0
48225470,0,0.0,0.0,0.13701329,-0.21448043,-0.5017381,0.2587614,0.22107713,-0.25555706,0.01561986,-0.049777213,-0.06977126,-0.07784367,-0.0005205387,0.00018896293,-0.000707599,1.8633122,-3.0847802,0.2923113,3.0269065,0.0,0.5656216,0.06977126,0.0052836854,0.0036176818,0.026327252,0.017378334,inf,inf,inf,inf,1,1,1,1,2,1,2,3,0,0,0
48329476,0,0.0,0.0,0.14052808,-0.2190917,-0.5075627,0.2587614,0.22107713,-0.25555706,-0.0030902796,-0.036040805,-0.052680336,-0.05910892,-0.0005205387,0.00018896293,-0.000707599,-2.6265392,-3.8777966,0.114539705,3.0313697,0.0,0.5714462,0.052680336,0.0053913575,0.0036884216,0.026459605,0.017459592,inf,inf,inf,inf,1,1,1,1,2,1,2,3,0,0,0
48425470,0,0.0,0.0,0.1422579,-0.22225788,-0.5110284,0.2587614,0.22107713,-0.25555706,0.00024675674,-0.03625736,-0.037927367,-0.042505752,-0.0005205387,0.00018896293,-0.000707599,3.5986986,-0.59988123,1.3201635,3.0373745,0.0,0.57491195,0.037927367,0.005331447,0.003650296,0.026288908,0.017348897,inf,inf,inf,inf,1,1,1,1,2,1,2,3,0,0,0
48529470,0,0.0,0.0,0.14233905,-0.22435173,-0.5131537,0.2587614,0.22107713,-0.25555706,-0.013872487,-0.036579967,-0.029957619,-0.032647304,-0.0005205387,0.00018896293,-0.000707599,1.2825506,-2.880686,0.008566601,3.0442438,0.0,0.5770372,0.029957619,0.005103221,0.0035015433,0.025794892,0.017074153,inf,inf,inf,inf,1,1,1,1,2,1,2,3,0,0,0
48633476,0,0.0,0.0,0.14019811,-0.2254692,-0.51422685,0.2587614,0.22107713,-0.25555706,-0.027749924,-0.036794104,-0.027394358,-0.028722601,-0.0005205387,0.00018896293,-0.000707599,-0.8917084,-3.4465208,0.12429891,3.0541828,0.0,0.57811034,0.027394358,0.0050453357,0.0034608087,0.025807817,0.017087808,inf,inf,inf,inf,1,1,1,1,2,1,2,3,0,0,0
48729470,0,0.0,0.0,0.13649483,-0.22622852,-0.51528335,0.2587614,0.22107713,-0.25555706,-0.034129728,-0.021954313,-0.02028336,-0.020936517,-0.0005205387,0.00018896293,-0.000707599,-0.056975495,-1.0027217,1.4144298,3.0660362,0.0,0.5791669,0.02028336,0.004889151,0.0033589934,0.025412345,0.016870713,inf,inf,inf,inf,1,1,1,1,2,1,2,3,0,0,0
48833478,0,0.0,0.0,0.13119711,-0.22679582,-0.51716745,0.2587614,0.22107713,-0.25555706,-0.04792348,-0.033434078,-0.018767096,-0.019354753,-0.0005205387,0.00018896293,-0.000707599,-2.4948425,-0.6179779,1.4885772,3.0761619,0.0,0.581051,0.018767096,0.0051445877,0.0035262648,0.02597521,0.017224075,inf,inf,inf,inf,1,1,1,1,2,1,2,3,0,0,0
48937477,0,0.0,0.0,0.12513568,-0.2277758,-0.5200469,0.2587614,0.22107713,-0.25555706,-0.060796138,-0.028797772,-0.03319087,-0.034248024,-0.0005205387,0.00018896293,-0.000707599,-1.5830597,0.21269464,1.21882,3.0845087,0.0,0.5839304,0.03319087,0.005304129,0.0036337697,0.026208421,0.0173577,inf,inf,inf,inf,1,1,1,1,2,1,2,3,0,0,0
49033470,0,0.0,0.0,0.11926009,-0.22919965,-0.52345574,0.2587614,0.22107713,-0.25555706,-0.059041053,-0.036570545,-0.026514154,-0.028498173,-0.0005205387,0.00018896293,-0.000707599,1.7005308,-2.3983958,1.6535258,3.0911503,0.0,0.5873393,0.026514154,0.0052808723,0.0036211952,0.026106337,0.017313749,inf,inf,inf,inf,1,1,1,1,2,1,2,3,0,0,0
49137485,0,0.0,0.0,0.11315115,-0.23140833,-0.5282977,0.2587614,0.22107713,-0.25555706,-0.07044624,-0.03560064,-0.029475087,-0.032707922,-0.0005205387,0.00018896293,-0.000707599,-2.7601557,3.0563836,2.2653425,3.0964382,0.0,0.5921812,0.029475087,0.00512261,0.0035177441,0.025801076,0.017122082,inf,inf,inf,inf,1,1,1,1,2,1,2,3,0,0,0
49241476,0,0.0,0.0,0.1071404,-0.23409824,-0.53340536,0.2587614,0.22107713,-0.25555706,-0.07253999,-0.032836117,-0.03349373,-0.037893396,-0.0005205387,0.00018896293,-0.000707599,-2.668983,2.9299893,1.8022703,3.0991247,0.0,0.59728885,0.03349373,0.0053665913,0.0036736403,0.026514947,0.017521195,inf,inf,inf,inf,1,1,1,1,2,1,2,3,0,0,0
49337516,0,0.0,0.0,0.10228765,-0.23712245,-0.5385492,0.2587614,0.22107713,-0.25555706,-0.06103908,-0.024632111,-0.037142605,-0.042328965,-0.0005205387,0.00018896293,-0.000707599,-1.2790364,3.5361474,0.39688593,3.1001575,0.0,0.6024327,0.037142605,0.005003418,0.003440247,0.025463888,0.016905343,inf,inf,inf,inf,1,1,1,1,2,1,2,3,0,0,0
49441469,0,0.0,0.0,0.09819917,-0.24067134,-0.5449329,0.2587614,0.22107713,-0.25555706,-0.048130743,-0.036231328,-0.038778935,-0.044546273,-0.0005205387,0.00018896293,-0.000707599,0.66944104,0.027659891,3.2059932,3.0997956,0.0,0.6088164,0.038778935,0.004908096,0.0033757784,0.025344871,0.016825337,inf,inf,inf,inf,1,1,1,1,2,1,2,3,0,0,0
49545476,0,0.0,0.0,0.095251024,-0.24452752,-0.55121255,0.2587614,0.22107713,-0.25555706,-0.026903467,-0.0314521,-0.029706318,-0.03593845,-0.0005205387,0.00018896293,-0.000707599,2.514347,1.311366,3.7786334,3.0983999,0.0,0.6150961,0.029706318,0.005189162,0.003555122,0.026147958,0.017286824,inf,inf,inf,inf,1,1,1,1,2,1,2,3,0,0,0
49641470,0,0.0,0.0,0.093630545,-0.24745533,-0.5564648,0.2587614,0.22107713,-0.25555706,-0.01586106,-0.0313067,-0.037826248,-0.044318043,-0.0005205387,0.00018896293,-0.000707599,3.9705772,-0.95388836,0.6347157,3.098135,0.0,0.62034833,0.037826248,0.0052034953,0.0035666793,0.025993912,0.017198168,inf,inf,inf,inf,1,1,1,1,2,1,2,3,0,0,0
49745472,0,0.0,0.0,0.093368076,-0.24864282,-0.5620865,0.2587614,0.22107713,-0.25555706,-0.003634742,-0.0043218015,-0.040560007,-0.046986237,-0.0005205387,0.00018896293,-0.000707599,2.7996836,-0.28395814,-1.9845413,3.0969136,0.0,0.62597,0.040560007,0.0053196745,0.0036433751,0.026212528,0.017331105,inf,inf,inf,inf,1,1,1,1,2,1,2,3,0,0,0
49849521,0,0.0,0.0,0.094349585,-0.24845482,-0.567603,0.2587614,0.22107713,-0.25555706,-0.0042692437,-0.0066855405,-0.045126505,-0.05132625,-0.0005205387,0.00018896293,-0.000707599,2.9182765,-1.6619402,-0.015495039,3.0950956,0.0,0.63148654,0.045126505,0.005416871,0.0037068403,0.026448295,0.017474124,inf,inf,inf,inf,1,1,1,1,2,1,2,3,0,0,0
49953493,0,0.0,0.0,0.09609387,-0.24580169,-0.5735924,0.2587614,0.22107713,-0.25555706,0.010375161,0.03641922,-0.05774186,-0.063740015,-0.0005205387,0.00018896293,-0.000707599,3.2975636,2.0812783,-1.4203947,3.092785,0.0,0.63747597,0.05774186,0.005186844,0.0035575905,0.025944814,0.017176053,inf,inf,inf,inf,1,1,1,1,2,1,2,3,0,0,0
50049475,0,0.0,0.0,0.09785454,-0.24150948,-0.5801577,0.2587614,0.22107713,-0.25555706,-0.005334085,0.023627121,-0.05911846,-0.06510027,-0.0005205387,0.00018896293,-0.000707599,-0.7794798,0.36096153,0.72919744,3.089917,0.0,0.6440412,0.05911846,0.005194011,0.0035616513,0.026007114,0.017218042,inf,inf,inf,inf,1,1,1,1,2,1,2,3,0,0,0
50153471,0,0.0,0.0,0.099385716,-0.23566844,-0.58882886,0.2587614,0.22107713,-0.25555706,0.004038719,0.054653868,-0.08094482,-0.087291524,-0.0005205387,0.00018896293,-0.000707599,-2.065439,3.8831553,-0.711497,3.0872219,0.0,0.65271235,0.08094482,0.005280823,0.0036190925,0.026161943,0.017289877,inf,inf,inf,inf,1,1,1,1,2,1,2,3,0,0,0
50257470,0,0.0,0.0,0.099939205,-0.22820349,-0.5984206,0.2587614,0.22107713,-0.25555706,-0.006703231,0.046162892,-0.07756405,-0.08455392,-0.0005205387,0.00018896293,-0.000707599,-3.7858155,-0.5059875,1.2084016,3.0839067,0.0,0.66230416,0.07756405,0.005086149,0.0034925407,0.025710532,0.017039686,inf,inf,inf,inf,1,1,1,1,2,1,2,3,0,0,0
50361470,0,0.0,0.0,0.099579975,-0.2203092,-0.6078451,0.2587614,0.22107713,-0.25555706,-0.012665937,0.054184552,-0.06157332,-0.06905874,-0.0005205387,0.00018896293,-0.000707599,-2.8567197,0.8728408,3.2597005,3.0816016,0.0,0.6717286,0.06157332,0.005265558,0.003607062,0.02621611,0.017336402,inf,inf,inf,inf,1,1,1,1,2,1,2,3,0,0,0
50457479,0,0.0,0.0,0.09829714,-0.21311966,-0.615738,0.2587614,0.22107713,-0.25555706,0.001062522,0.042444583,-0.07420628,-0.08180599,-0.0005205387,0.00018896293,-0.000707599,-1.0890898,-0.9185287,-2.102104,3.081304,0.0,0.67962146,0.07420628,0.00528014,0.0036172634,0.026207108,0.017352091,inf,inf,inf,inf,1,1,1,1,2,1,2,3,0,0,0
50561497,0,0.0,0.0,0.09622412,-0.20693526,-0.6228093,0.2587614,0.22107713,-0.25555706,-0.013629431,0.046955626,-0.055629484,-0.06270957,-0.0005205387,0.00018896293,-0.000707599,-2.3163073,1.9194354,-2.3901565,3.0825667,0.0,0.68669283,0.055629484,0.005403596,0.003699016,0.026446935,0.017500835,inf,inf,inf,inf,1,1,1,1,2,1,2,3,0,0,0
50665474,0,0.0,0.0,0.09354169,-0.20183945,-0.6279055,0.2587614,0.22107713,-0.25555706,-0.018908454,0.044161044,-0.040470745,-0.04646404,-0.0005205387,0.00018896293,-0.000707599,-2.202997,-2.7027223,-0.67361313,3.0844727,0.0,0.69178903,0.040470745,0.005134093,0.0035269763,0.025723534,0.017087819,inf,inf,inf,inf,1,1,1,1,2,1,2,3,0,0,0
50761479,0,0.0,0.0,0.09052885,-0.19820935,-0.63065636,0.2587614,0.22107713,-0.25555706,-0.014608091,0.05105912,-0.030542722,-0.035282403,-0.0005205387,0.00018896293,-0.000707599,0.90010417,3.6508846,0.119966574,3.086325,0.0,0.6945399,0.030542722,0.0054290937,0.0037193191,0.026454732,0.017517267,inf,inf,inf,inf,1,1,1,1,2,1,2,3,0,0,0
50865498,0,0.0,0.0,0.08700374,-0.19521138,-0.6325441,0.2587614,0.22107713,-0.25555706,-0.024205374,0.040111173,-0.016621374,-0.019945856,-0.0005205387,0.00018896293,-0.000707599,1.1998123,-0.34155467,2.5392447,3.0872567,0.0,0.6964276,0.016621374,0.005134867,0.0035299303,0.025687864,0.0170791,inf,inf,inf,inf,1,1,1,1,2,1,2,3,0,0,0
50969470,0,0.0,0.0,0.083565354,-0.19217126,-0.63416666,0.2587614,0.22107713,-0.25555706,-0.016092174,0.045736104,-0.028438436,-0.03059872,-0.0005205387,0.00018896293,-0.000707599,2.1380165,-1.8033837,0.13544992,3.0879083,0.0,0.69805014,0.028438436,0.005211785,0.0035796373,0.025921747,0.017209454,inf,inf,inf,inf,1,1,1,1,2,1,2,3,0,0,0
51073487,0,0.0,0.0,0.07992313,-0.18853681,-0.63647485,0.2587614,0.22107713,-0.25555706,-0.025962418,0.05068376,-0.031091342,-0.032661855,-0.0005205387,0.00018896293,-0.000707599,2.443491,1.185764,-2.555763,3.0884855,0.0,0.7003584,0.031091342,0.005222842,0.003588616,0.025851944,0.017156165,inf,inf,inf,inf,1,1,1,1,2,1,2,3,0,0,0
51177473,0,0.0,0.0,0.07630529,-0.18451454,-0.6385251,0.2587614,0.22107713,-0.25555706,-0.01596211,0.054935887,-0.01198714,-0.01379836,-0.0005205387,0.00018896293,-0.000707599,3.9848628,-1.898279,-2.361383,3.0890605,0.0,0.7024087,0.01198714,0.0052256975,0.003590025,0.02587731,0.017156752,inf,inf,inf,inf,1,1,1,1,2,1,2,3,0,0,0
51281469,0,0.0,0.0,0.072571374,-0.17909348,-0.6382026,0.2587614,0.22107713,-0.25555706,-0.02124879,0.05256725,0.021871313,0.019552054,-0.0005205387,0.00018896293,-0.000707599,1.9105319,-3.3820817,0.26710486,3.089338,0.0,0.7020861,-0.021871313,0.0052770902,0.0036213922,0.02609023,0.017289003,inf,inf,inf,inf,1,1,1,1,2,1,2,3,0,0,0
51377487,0,0.0,0.0,0.06943588,-0.17345774,-0.63570964,0.2587614,0.22107713,-0.25555706,-0.031438347,0.05744239,0.02958776,0.02738453,-0.0005205387,0.00018896293,-0.000707599,-1.0713043,0.35965845,-1.5188845,3.0892115,0.0,0.6995932,-0.02958776,0.0052257203,0.0035865647,0.026029598,0.017252635,inf,inf,inf,inf,1,1,1,1,2,1,2,3,0,0,0
51481470,0,0.0,0.0,0.066509716,-0.166495,-0.6303573,0.2587614,0.22107713,-0.25555706,-0.027693568,0.06648766,0.057555582,0.05616377,-0.0005205387,0.00018896293,-0.000707599,5.213721,2.425577,-1.4219897,3.0878594,0.0,0.6942408,-0.057555582,0.005371749,0.0036799072,0.026435386,0.01749847,inf,inf,inf,inf,1,1,1,1,2,1,2,3,0,0,0
51585504,0,0.0,0.0,0.063660815,-0.1589689,-0.62277025,0.2587614,0.22107713,-0.25555706,-0.011853906,0.069051445,0.07062615,0.070334025,-0.0005205387,0.00018896293,-0.000707599,6.54538,-0.7670107,-1.4711584,3.0852523,0.0,0.68665373,-0.07062615,0.0051433733,0.0035325529,0.025842486,0.017160654,inf,inf,inf,inf,1,1,1,1,2,1,2,3,0,0,0
51689476,0,0.0,0.0,0.060604274,-0.15166515,-0.61346203,0.2587614,0.22107713,-0.25555706,-0.017516183,0.04815957,0.06645471,0.06712519,-0.0005205387,0.00018896293,-0.000707599,-1.1422206,-3.2366002,-2.5108669,3.0824738,0.0,0.6773455,-0.06645471,0.005104036,0.0035036302,0.025920348,0.017213542,inf,inf,inf,inf,1,1,1,1,2,1,2,3,0,0,0
51790270,0,0.0,0.0,0.058371786,-0.14567564,-0.60506594,0.2587614,0.22107713,-0.25555706,-0.013435581,0.041798364,0.07593413,0.0770239,-0.0005205387,0.00018896293,-0.000707599,5.5831523,0.5688289,0.6181485,3.079912,0.0,0.6689495,-0.07593413,0.0052313483,0.0035898166,0.02599949,0.017256968,inf,inf,inf,inf,1,1,1,1,2,1,2,3,0,0,0
51888705,0,0.0,0.0,0.05745202,-0.14129852,-0.59925836,0.2587614,0.22107713,-0.25555706,-0.0137212975,0.037574906,0.055810023,0.056347646,-0.0005205387,0.00018896293,-0.000707599,-0.86237556,-0.86923814,1.4137201,3.0777628,0.0,0.66314185,-0.055810023,0.005230378,0.0035891964,0.026023878,0.017249886,inf,inf,inf,inf,1,1,1,1,2,1,2,3,0,0,0
51992671,0,0.0,0.0,0.057311095,-0.13719448,-0.5950646,0.2587614,0.22107713,-0.25555706,-0.004224158,0.035260756,0.043190103,0.042071298,-0.0005205387,0.00018896293,-0.000707599,-0.8015427,2.5422971,0.08245701,3.0763884,0.0,0.65894806,-0.043190103,0.0050884765,0.0034930012,0.025737312,0.017039396,inf,inf,inf,inf,1,1,1,1,2,1,2,3,0,0,0
52088670,0,0.0,0.0,0.057603363,-0.13505976,-0.5936677,0.2587614,0.22107713,-0.25555706,0.009180293,0.023417719,0.03440324,0.03127788,-0.0005205387,0.00018896293,-0.000707599,3.530583,1.0625898,1.756948,3.0774167,0.0,0.65755117,-0.03440324,0.005160831,0.0035403322,0.025989078,0.017217884,inf,inf,inf,inf,1,1,1,1,2,1,2,3,0,0,0
52192670,0,0.0,0.0,0.058870737,-0.13385348,-0.59465086,0.2587614,0.22107713,-0.25555706,0.014635572,0.010396543,0.014896002,0.009485941,-0.0005205387,0.00018896293,-0.000707599,-1.0263644,-1.3475631,1.7348608,3.0776913,0.0,0.6585344,-0.014896002,0.0052445093,0.0035954595,0.026052337,0.017241059,inf,inf,inf,inf,1,1,1,1,2,1,2,3,0,0,0
52297476,0,0.0,0.0,0.060954835,-0.1339013,-0.5975119,0.2587614,0.22107713,-0.25555706,0.0090307025,0.015630092,0.0067473105,-0.00076779124,-0.0005205387,0.00018896293,-0.000707599,-2.0610654,1.4690504,2.0294352,3.0797687,0.0,0.66139543,-0.0067473105,0.005373576,0.003679857,0.026492508,0.017509563,inf,inf,inf,inf,1,1,1,1,2,1,2,3,0,0,0
52392704,0,0.0,0.0,0.06388846,-0.13456912,-0.6009693,0.2587614,0.22107713,-0.25555706,0.031032646,-0.0054138172,0.0008014427,-0.008261483,-0.0005205387,0.00018896293,-0.000707599,3.0714903,-0.5210449,-1.4923401,3.0811293,0.0,0.66485286,-0.0008014427,0.0053040124,0.0036351176,0.026270572,0.017376415,inf,inf,inf,inf,1,1,1,1,2,1,2,3,0,0,0
52496707,0,0.0,0.0,0.067597754,-0.1359806,-0.6038711,0.2587614,0.22107713,-0.25555706,0.035480287,0.0017495612,0.004944032,-0.005007704,-0.0005205387,0.00018896293,-0.000707599,-0.059756845,-0.27865773,0.456833,3.0811481,0.0,0.66775465,-0.004944032,0.005058683,0.0034755436,0.025657719,0.017010452,inf,inf,inf,inf,1,1,1,1,2,1,2,3,0,0,0
52600677,0,0.0,0.0,0.0717005,-0.13773392,-0.60527664,0.2587614,0.22107713,-0.25555706,0.024204254,-0.0038923246,0.015761483,0.005992795,-0.0005205387,0.00018896293,-0.000707599,-3.1103995,3.1508489,0.5698389,3.0799775,0.0,0.6691601,-0.015761483,0.0053182337,0.0036397788,0.026449254,0.017494248,inf,inf,inf,inf,1,1,1,1,2,1,2,3,0,0,0
52704670,0,0.0,0.0,0.075846255,-0.139945,-0.60416394,0.2587614,0.22107713,-0.25555706,0.03235811,-0.0051286854,0.034253947,0.02561733,-0.0005205387,0.00018896293,-0.000707599,1.7978134,-1.0136064,2.1208315,3.0775883,0.0,0.6680474,-0.034253947,0.005161913,0.0035398472,0.025962716,0.017206002,inf,inf,inf,inf,1,1,1,1,2,1,2,3,0,0,0
52800670,0,0.0,0.0,0.07869303,-0.14202757,-0.60121655,0.2587614,0.22107713,-0.25555706,0.024730984,-0.026679337,0.022712825,0.01581602,-0.0005205387,0.00018896293,-0.000707599,0.44013005,0.94992113,-1.7437621,3.0748653,0.0,0.6651001,-0.022712825,0.004979224,0.003419829,0.025607988,0.016996944,inf,inf,inf,inf,1,1,1,1,2,1,2,3,0,0,0
52904683,0,0.0,0.0,0.081045665,-0.14408812,-0.5971953,0.2587614,0.22107713,-0.25555706,0.042289637,-0.012774851,0.02541593,0.02059622,-0.0005205387,0.00018896293,-0.000707599,5.2598104,-0.8121091,-4.2567177,3.070609,0.0,0.6610788,-0.02541593,0.004908874,0.0033749938,0.02531678,0.01682247,inf,inf,inf,inf,1,1,1,1,2,1,2,3,0,0,0
53008670,0,0.0,0.0,0.08236222,-0.14589748,-0.5928141,0.2587614,0.22107713,-0.25555706,0.018588927,-0.034680415,0.031012041,0.027868133,-0.0005205387,0.00018896293,-0.000707599,-3.8266625,-0.39368924,-0.8396809,3.0665555,0.0,0.65669763,-0.031012041,0.0051198984,0.003513733,0.025796004,0.017108528,inf,inf,inf,inf,1,1,1,1,2,1,2,3,0,0,0
53112679,0,0.0,0.0,0.08271363,-0.14795834,-0.58808726,0.2587614,0.22107713,-0.25555706,0.022161111,-0.015408575,0.029974464,0.027874159,-0.0005205387,0.00018896293,-0.000707599,-0.90600455,2.081214,-0.18055978,3.0626602,0.0,0.65197074,-0.029974464,0.005230343,0.0035878888,0.025940226,0.017180525,inf,inf,inf,inf,1,1,1,1,2,1,2,3,0,0,0
53208677,0,0.0,0.0,0.08283973,-0.149366,-0.5835309,0.2587614,0.22107713,-0.25555706,0.012396314,-0.026322,0.05278689,0.051110916,-0.0005205387,0.00018896293,-0.000707599,-2.6129243,-0.42682987,2.090311,3.0596147,0.0,0.64741445,-0.05278689,0.0052081444,0.0035733492,0.025921162,0.017176084,inf,inf,inf,inf,1,1,1,1,2,1,2,3,0,0,0
53312672,0,0.0,0.0,0.0834706,-0.15167776,-0.57880366,0.2587614,0.22107713,-0.25555706,0.041386258,-0.035095856,0.040062476,0.038536068,-0.0005205387,0.00018896293,-0.000707599,4.786173,-3.8686395,-0.5099751,3.0562477,0.0,0.6426872,-0.040062476,0.0051197386,0.0035127404,0.025873411,0.017131833,inf,inf,inf,inf,1,1,1,1,2,1,2,3,0,0,0
53416670,0,0.0,0.0,0.08517973,-0.15449873,-0.57438034,0.2587614,0.22107713,-0.25555706,0.044799022,-0.037875004,0.03271608,0.031263594,-0.0005205387,0.00018896293,-0.000707599,-0.54085594,0.8775266,-0.111073315,3.0522423,0.0,0.6382638,-0.03271608,0.005025388,0.003450891,0.02563686,0.017006489,inf,inf,inf,inf,1,1,1,1,2,1,2,3,0,0,0
53512676,0,0.0,0.0,0.08801698,-0.15826336,-0.57169837,0.2587614,0.22107713,-0.25555706,0.04959817,-0.048823938,0.029068848,0.027513498,-0.0005205387,0.00018896293,-0.000707599,2.1281872,0.8260689,1.1042172,3.04908,0.0,0.63558185,-0.029068848,0.0050628763,0.0034762858,0.02564961,0.0170065,inf,inf,inf,inf,1,1,1,1,2,1,2,3,0,0,0
53616670,0,0.0,0.0,0.09250447,-0.1633205,-0.57052606,0.2587614,0.22107713,-0.25555706,0.06104384,-0.049751483,0.006941629,0.004874192,-0.0005205387,0.00018896293,-0.000707599,2.267148,-1.6422391,-1.662656,3.0450015,0.0,0.63440955,-0.006941629,0.005196875,0.0035637894,0.025968324,0.017185552,inf,inf,inf,inf,1,1,1,1,2,1,2,3,0,0,0
53720670,0,0.0,0.0,0.098441586,-0.16910265,-0.5711429,0.2587614,0.22107713,-0.25555706,0.060622983,-0.0686696,0.007136707,0.004024792,-0.0005205387,0.00018896293,-0.000707599,-0.3267653,-1.567118,-0.0581218,3.0423198,0.0,0.63502645,-0.007136707,0.0051102894,0.003504813,0.025887612,0.017133702,inf,inf,inf,inf,1,1,1,1,2,1,2,3,0,0,0
53824670,0,0.0,0.0,0.105763376,-0.17561336,-0.5727963,0.2587614,0.22107713,-0.25555706,0.060201228,-0.061278917,0.00080278545,-0.0035357685,-0.0005205387,0.00018896293,-0.000707599,-3.9487436,-1.1895238,1.6695305,3.0399158,0.0,0.63667977,-0.00080278545,0.0050209896,0.0034459627,0.025646955,0.0169729,inf,inf,inf,inf,1,1,1,1,2,1,2,3,0,0,0
53920670,0,0.0,0.0,0.11343788,-0.18230174,-0.57446474,0.2587614,0.22107713,-0.25555706,0.07505281,-0.065604515,0.00036564778,-0.0048711332,-0.0005205387,0.00018896293,-0.000707599,4.898979,0.6365332,-1.0332778,3.0381944,0.0,0.6383482,-0.00036564778,0.0051127956,0.0035046765,0.025890885,0.01711694,inf,inf,inf,inf,1,1,1,1,2,1,2,3,0,0,0
54024678,0,0.0,0.0,0.12248589,-0.19045854,-0.5764752,0.2587614,0.22107713,-0.25555706,0.079745166,-0.06831734,-0.0003532321,-0.0060634576,-0.0005205387,0.00018896293,-0.000707599,3.1671066,2.8009217,-0.8125032,3.0386186,0.0,0.6403587,0.0003532321,0.005010749,0.003438943,0.025573796,0.01694399,inf,inf,inf,inf,1,1,1,1,2,1,2,3,0,0,0
54128682,0,0.0,0.0,0.13143864,-0.19875261,-0.5777745,0.2587614,0.22107713,-0.25555706,0.07557331,-0.06855661,0.0030874289,-0.0025998591,-0.0005205387,0.00018896293,-0.000707599,0.5483027,0.6327492,1.6995183,3.039876,0.0,0.64165807,-0.0030874289,0.0052742744,0.0036081306,0.026307471,0.01736959,inf,inf,inf,inf,1,1,1,1,2,1,2,3,0,0,0
54224670,0,0.0,0.0,0.13940768,-0.20662697,-0.57843244,0.2587614,0.22107713,-0.25555706,0.07433538,-0.08200876,0.00011875458,-0.005233298,-0.0005205387,0.00018896293,-0.000707599,0.31350055,-4.563433,-0.59999007,3.0408633,0.0,0.642316,-0.00011875458,0.0049603763,0.0034078385,0.025379233,0.016830726,inf,inf,inf,inf,1,1,1,1,2,1,2,3,0,0,0
54328670,0,0.0,0.0,0.14713962,-0.21541233,-0.5787181,0.2587614,0.22107713,-0.25555706,0.06482514,-0.07963779,-0.00012397168,-0.00490898,-0.0005205387,0.00018896293,-0.000707599,-0.2602853,-0.6964749,-1.5889466,3.0424,0.0,0.6426016,0.00012397168,0.0052005867,0.0035617242,0.026088303,0.017251287,inf,inf,inf,inf,1,1,1,1,2,1,2,3,0,0,0
54432710,0,0.0,0.0,0.15369698,-0.22392587,-0.5783807,0.2587614,0.22107713,-0.25555706,0.054542966,-0.08405434,0.008155321,0.0039349576,-0.0005205387,0.00018896293,-0.000707599,-0.6696719,1.2446,1.3585411,3.043891,0.0,0.64226425,-0.008155321,0.0050414787,0.0034609416,0.025587598,0.016953846,inf,inf,inf,inf,1,1,1,1,2,1,2,3,0,0,0
54528683,0,0.0,0.0,0.1588576,-0.23218304,-0.5783632,0.2587614,0.22107713,-0.25555706,0.050649468,-0.0773496,0.004612284,0.0007658066,-0.0005205387,0.00018896293,-0.000707599,0.13956599,2.9497561,1.5980312,3.0449545,0.0,0.6422467,-0.004612284,0.005372509,0.0036761237,0.026367351,0.017418502,inf,inf,inf,inf,1,1,1,1,2,1,2,3,0,0,0
54632670,0,0.0,0.0,0.16383782,-0.24121,-0.5789687,0.2587614,0.22107713,-0.25555706,0.05470454,-0.09051487,-0.007930537,-0.011726826,-0.0005205387,0.00018896293,-0.000707599,3.9282918,-1.2670414,-0.6081605,3.0453725,0.0,0.6428522,0.007930537,0.0051107197,0.0035086167,0.02567558,0.017007876,inf,inf,inf,inf,1,1,1,1,2,1,2,3,0,0,0
54736676,0,0.0,0.0,0.16774811,-0.2499359,-0.5802032,0.2587614,0.22107713,-0.25555706,0.046239976,-0.063455895,-0.012090391,-0.016241422,-0.0005205387,0.00018896293,-0.000707599,0.2345487,2.4562135,-1.8612207,3.0457191,0.0,0.6440867,0.012090391,0.00493763,0.0033952657,0.02530014,0.01679161,inf,inf,inf,inf,1,1,1,1,2,1,2,3,0,0,0
54832673,0,0.0,0.0,0.17075165,-0.25695896,-0.5830249,0.2587614,0.22107713,-0.25555706,0.032654535,-0.07125576,-0.022580914,-0.027277995,-0.0005205387,0.00018896293,-0.000707599,-2.4217374,-1.020904,1.7407248,3.046205,0.0,0.6469084,0.022580914,0.0049857544,0.0034252682,0.025486255,0.016897334,inf,inf,inf,inf,1,1,1,1,2,1,2,3,0,0,0
54936679,0,0.0,0.0,0.17389062,-0.26264256,-0.589873,0.2587614,0.22107713,-0.25555706,0.057226606,-0.044382576,-0.074374884,-0.07997011,-0.0005205387,0.00018896293,-0.000707599,3.7567244,-1.4758595,-0.33406097,3.0457284,0.0,0.6537565,0.074374884,0.0051399358,0.0035256029,0.025841251,0.017101042,inf,inf,inf,inf,1,1,1,1,2,1,2,3,0,0,0
55040694,0,0.0,0.0,0.17749308,-0.26620013,-0.6019283,0.2587614,0.22107713,-0.25555706,0.060963772,-0.022251666,-0.11489919,-0.1219802,-0.0005205387,0.00018896293,-0.000707599,0.76287955,0.9486121,-1.4355811,3.0463037,0.0,0.6658118,0.11489919,0.0052228975,0.0035808098,0.025982676,0.017168786,inf,inf,inf,inf,1,1,1,1,2,1,2,3,0,0,0
55136670,0,0.0,0.0,0.181816,-0.26688328,-0.6182598,0.2587614,0.22107713,-0.25555706,0.07000811,-0.014350022,-0.14223602,-0.15156369,-0.0005205387,0.00018896293,-0.000707599,2.5975566,-1.1312826,2.4755986,3.0461223,0.0,0.68214333,0.14223602,0.005156817,0.0035374085,0.02583391,0.017065356,inf,inf,inf,inf,1,1,1,1,2,1,2,3,0,0,0
55240719,0,0.0,0.0,0.18793486,-0.26558146,-0.64094216,0.2587614,0.22107713,-0.25555706,0.08505321,0.009904867,-0.19395722,-0.206156,-0.0005205387,0.00018896293,-0.000707599,1.7076274,-0.12421046,-2.4918742,3.0464902,0.0,0.70482564,0.19395722,0.005209101,0.003570367,0.02600272,0.017130928,inf,inf,inf,inf,1,1,1,1,2,1,2,3,0,0,0
55344676,0,0.0,0.0,0.1954203,-0.26162672,-0.66687346,0.2587614,0.22107713,-0.25555706,0.07927363,0.018297294,-0.20676257,-0.22162649,-0.0005205387,0.00018896293,-0.000707599,-2.1686456,0.30740407,0.12081523,3.0471091,0.0,0.730757,0.20676257,0.005062325,0.0034708013,0.025785895,0.017019855,inf,inf,inf,inf,1,1,1,1,2,1,2,3,0,0,0
55448692,0,0.0,0.0,0.20404214,-0.25649208,-0.6941554,0.2587614,0.22107713,-0.25555706,0.062325332,0.026334757,-0.22057249,-0.23720133,-0.0005205387,0.00018896293,-0.000707599,-4.2798567,-2.8449984,-1.8050394,3.0484664,0.0,0.7580389,0.22057249,0.005179079,0.0035464577,0.025993917,0.01714919,inf,inf,inf,inf,1,1,1,1,2,1,2,3,0,0,0
55552670,0,0.0,0.0,0.21294516,-0.25106946,-0.7210915,0.2587614,0.22107713,-0.25555706,0.0644686,0.033141382,-0.21701276,-0.23373272,-0.0005205387,0.00018896293,-0.000707599,-0.059483733,2.638368,3.633729,3.0503733,0.0,0.78497505,0.21701276,0.005274518,0.0036098822,0.026138695,0.01726775,inf,inf,inf,inf,1,1,1,1,2,1,2,3,0,0,0
55648694,0,0.0,0.0,0.2211056,-0.246356,-0.74546456,0.2587614,0.22107713,-0.25555706,0.061368246,0.025037302,-0.2348151,-0.2503516,-0.0005205387,0.00018896293,-0.000707599,-1.3036205,-0.9145933,-1.4051232,3.0528855,0.0,0.8093481,0.2348151,0.005562618,0.0037980592,0.026793689,0.01767271,inf,inf,inf,inf,1,1,1,1,2,1,2,3,0,0,0
55752682,0,0.0,0.0,0.22848439,-0.24219014,-0.7703329,0.2587614,0.22107713,-0.25555706,0.03816472,0.03768503,-0.2295302,-0.24283886,-0.0005205387,0.00018896293,-0.000707599,-0.25277472,2.612946,1.1018785,3.0594466,0.0,0.83421636,0.2295302,0.0055336403,0.003783735,0.026639247,0.01758494,inf,inf,inf,inf,1,1,1,1,2,1,2,3,0,0,0
55856669,0,0.0,0.0,0.23332155,-0.2394308,-0.7938304,0.2587614,0.22107713,-0.25555706,0.028747382,0.023464616,-0.22882362,-0.23924813,-0.0005205387,0.00018896293,-0.000707599,1.347008,-2.2781503,-1.2751486,3.0669687,0.0,0.85771394,0.22882362,0.005183387,0.00355873,0.025817702,0.017117634,inf,inf,inf,inf,1,1,1,1,2,1,2,3,0,0,0
55952709,0,0.0,0.0,0.2348105,-0.23849182,-0.8146739,0.2587614,0.22107713,-0.25555706,0.010597427,0.018452387,-0.23264427,-0.2403973,-0.0005205387,0.00018896293,-0.000707599,2.7933426,0.37207705,0.2531275,3.072378,0.0,0.87855744,0.23264427,0.005485139,0.0037529336,0.026639517,0.017599178,inf,inf,inf,inf,1,1,1,1,2,1,2,3,0,0,0
56056693,0,0.0,0.0,0.2328842,-0.2396657,-0.8369089,0.2587614,0.22107713,-0.25555706,-0.024409447,-0.0016788638,-0.23239246,-0.23753163,-0.0005205387,0.00018896293,-0.000707599,-4.875325,-2.3458927,0.7348016,3.078821,0.0,0.90079236,0.23239246,0.0051890914,0.0035622627,0.025913443,0.017177774,inf,inf,inf,inf,1,1,1,1,2,1,2,3,0,0,0
56160669,0,0.0,0.0,0.22758472,-0.24291313,-0.8588204,0.2587614,0.22107713,-0.25555706,-0.04087996,-0.00818883,-0.22549713,-0.22853777,-0.0005205387,0.00018896293,-0.000707599,1.4812295,1.4980469,-0.4048959,3.0849123,0.0,0.92270386,0.22549713,0.005236597,0.0035939831,0.0259802,0.017222404,inf,inf,inf,inf,1,1,1,1,2,1,2,3,0,0,0
56256691,0,0.0,0.0,0.22039264,-0.24738115,-0.8782516,0.2587614,0.22107713,-0.25555706,-0.06346003,-0.031164492,-0.21882544,-0.22035861,-0.0005205387,0.00018896293,-0.000707599,-6.589797,-0.07717162,1.7202506,3.0890143,0.0,0.9421351,0.21882544,0.005154068,0.0035407485,0.025769733,0.017091732,inf,inf,inf,inf,1,1,1,1,2,1,2,3,0,0,0
56360670,0,0.0,0.0,0.21036291,-0.25341967,-0.89812714,0.2587614,0.22107713,-0.25555706,-0.07164908,-0.018981883,-0.19543806,-0.19573314,-0.0005205387,0.00018896293,-0.000707599,-0.36659124,5.604503,1.0003861,3.0958,0.0,0.9620106,0.19543806,0.0052491752,0.0036013385,0.026058543,0.017254954,inf,inf,inf,inf,1,1,1,1,2,1,2,3,0,0,0
56464686,0,0.0,0.0,0.19884208,-0.26042634,-0.91455716,0.2587614,0.22107713,-0.25555706,-0.105673954,-0.039483637,-0.15196805,-0.15103078,-0.0005205387,0.00018896293,-0.000707599,-5.257634,2.807187,3.8932712,3.103178,0.0,0.97844064,0.15196805,0.005330548,0.0036537542,0.026273217,0.01738735,inf,inf,inf,inf,1,1,1,1,2,1,2,3,0,0,0
56568676,0,0.0,0.0,0.18676749,-0.26792967,-0.9257166,0.2587614,0.22107713,-0.25555706,-0.0950573,-0.03024882,-0.10594409,-0.10327956,-0.0005205387,0.00018896293,-0.000707599,2.7202199,5.253546,1.640417,3.1096728,0.0,0.98960006,0.10594409,0.005399987,0.0036989609,0.02642277,0.017484708,inf,inf,inf,inf,1,1,1,1,2,1,2,3,0,0,0
56664670,0,0.0,0.0,0.17583805,-0.27474433,-0.93075955,0.2587614,0.22107713,-0.25555706,-0.10196396,-0.05057475,-0.05643503,-0.051450904,-0.0005205387,0.00018896293,-0.000707599,1.4860739,0.8297773,2.2998674,3.1125152,0.0,0.9946431,0.05643503,0.005327982,0.0036528269,0.02624483,0.017376496,inf,inf,inf,inf,1,1,1,1,2,1,2,3,0,0,0
56768670,0,0.0,0.0,0.16453266,-0.28227377,-0.93027407,0.2587614,0.22107713,-0.25555706,-0.108311534,-0.065855525,-0.021634664,-0.013609717,-0.0005205387,0.00018896293,-0.000707599,-2.831907,-1.0704396,1.2482166,3.1117013,0.0,0.99415755,0.021634664,0.0053943866,0.0036961667,0.026396036,0.017455112,inf,inf,inf,inf,1,1,1,1,2,1,2,3,0,0,0
56872720,0,0.0,0.0,0.15401989,-0.2893785,-0.9248069,0.2587614,0.22107713,-0.25555706,-0.102271296,-0.055106804,0.025776163,0.036914602,-0.0005205387,0.00018896293,-0.000707599,1.5197669,2.2314615,1.9527146,3.106843,0.0,0.9886904,-0.025776163,0.00509613,0.0035028837,0.025658442,0.017013969,inf,inf,inf,inf,1,1,1,1,2,1,2,3,0,0,0
56976669,0,0.0,0.0,0.14446342,-0.29587898,-0.91601676,0.2587614,0.22107713,-0.25555706,-0.108527444,-0.06567529,0.044020288,0.057504844,-0.0005205387,0.00018896293,-0.000707599,-3.1372128,-0.38785088,0.3204384,3.0995016,0.0,0.97990024,-0.044020288,0.0051604407,0.0035442666,0.025810478,0.017103374,inf,inf,inf,inf,1,1,1,1,2,1,2,3,0,0,0
57080678,0,0.0,0.0,0.13593656,-0.30230126,-0.9062238,0.2587614,0.22107713,-0.25555706,-0.08339092,-0.07559405,0.05431913,0.06885934,-0.0005205387,0.00018896293,-0.000707599,5.5873127,-0.34346467,-0.34227058,3.090125,0.0,0.9701073,-0.05431913,0.0052558966,0.0036045294,0.026099296,0.017271565,inf,inf,inf,inf,1,1,1,1,2,1,2,3,0,0,0
57184693,0,0.0,0.0,0.12911363,-0.30788887,-0.897878,0.2587614,0.22107713,-0.25555706,-0.08140624,-0.06624133,0.03889692,0.052778184,-0.0005205387,0.00018896293,-0.000707599,-2.4699361,-1.439112,-1.7867156,3.0790937,0.0,0.9617615,-0.03889692,0.0049960306,0.003435796,0.025447465,0.01688495,inf,inf,inf,inf,1,1,1,1,2,1,2,3,0,0,0
57288670,0,0.0,0.0,0.12414446,-0.31289762,-0.89244413,0.2587614,0.22107713,-0.25555706,-0.07218918,-0.059803925,0.045652285,0.057080522,-0.0005205387,0.00018896293,-0.000707599,-2.2988126,-0.45646435,3.774251,3.0688891,0.0,0.9563277,-0.045652285,0.005155606,0.003537303,0.025935238,0.017178494,inf,inf,inf,inf,1,1,1,1,2,1,2,3,0,0,0
57384670,0,0.0,0.0,0.121194184,-0.31539667,-0.8905758,0.2587614,0.22107713,-0.25555706,-0.040951002,-0.031887032,0.016650815,0.024595309,-0.0005205387,0.00018896293,-0.000707599,-0.40389952,-0.16339532,-2.449005,3.0613108,0.0,0.9544593,-0.016650815,0.0051295916,0.0035213744,0.025794659,0.017087532,inf,inf,inf,inf,1,1,1,1,2,1,2,3,0,0,0
57488670,0,0.0,0.0,0.11984964,-0.31547984,-0.8925905,0.2587614,0.22107713,-0.25555706,-0.03214218,0.0036373266,0.003882729,0.0073081404,-0.0005205387,0.00018896293,-0.000707599,-1.4737369,2.7477424,-0.02683519,3.054276,0.0,0.95647407,-0.003882729,0.0051983707,0.003567008,0.02589554,0.017139237,inf,inf,inf,inf,1,1,1,1,2,1,2,3,0,0,0
57592713,0,0.0,0.0,0.12035354,-0.31274056,-0.8985559,0.2587614,0.22107713,-0.25555706,-0.008307323,0.016076446,-0.024746567,-0.026027514,-0.0005205387,0.00018896293,-0.000707599,-0.27227762,-1.3801904,-0.35663718,3.0493972,0.0,0.9624394,0.024746567,0.005273678,0.0036150755,0.02612288,0.017253421,inf,inf,inf,inf,1,1,1,1,2,1,2,3,0,0,0
57695115,0,0.0,0.0,0.122081235,-0.30756193,-0.90737605,0.2587614,0.22107713,-0.25555706,-0.0005825603,0.05240907,-0.04315994,-0.048718307,-0.0005205387,0.00018896293,-0.000707599,-3.8297298,4.0290637,-0.4988987,3.0462322,0.0,0.9712596,0.04315994,0.0053414255,0.0036579259,0.026308116,0.01735939,inf,inf,inf,inf,1,1,1,1,2,1,2,3,0,0,0
57791094,0,0.0,0.0,0.124343656,-0.30081332,-0.9172398,0.2587614,0.22107713,-0.25555706,0.009257094,0.05368737,-0.052167006,-0.060868893,-0.0005205387,0.00018896293,-0.000707599,3.1768456,-1.6728626,-1.8430717,3.0449307,0.0,0.9811233,0.052167006,0.005270951,0.003611507,0.026165584,0.01726714,inf,inf,inf,inf,1,1,1,1,2,1,2,3,0,0,0
57895114,0,0.0,0.0,0.12623653,-0.29093888,-0.92750704,0.2587614,0.22107713,-0.25555706,0.0003707742,0.06881452,-0.04135258,-0.05229411,-0.0005205387,0.00018896293,-0.000707599,-0.9189225,2.4362135,2.1986296,3.0444396,0.0,0.9913906,0.04135258,0.005342045,0.003655599,0.026348118,0.017373595,inf,inf,inf,inf,1,1,1,1,2,1,2,3,0,0,0
57999877,0,0.0,0.0,0.12637687,-0.28068414,-0.9366714,0.2587614,0.22107713,-0.25555706,-0.016973833,0.06265982,-0.04261372,-0.054446187,-0.0005205387,0.00018896293,-0.000707599,0.07189825,-2.2343893,-1.2535201,3.046722,0.0,1.0005549,0.04261372,0.0054193716,0.0037055644,0.026511954,0.017471211,inf,inf,inf,inf,1,1,1,1,2,1,2,3,0,0,0
58096676,0,0.0,0.0,0.12392438,-0.2717545,-0.942397,0.2587614,0.22107713,-0.25555706,-0.03362142,0.06206881,-0.0273,-0.038812544,-0.0005205387,0.00018896293,-0.000707599,-2.519852,0.19338304,-0.943893,3.0499465,0.0,1.0062805,0.0273,0.005347715,0.0036608505,0.026331754,0.017406398,inf,inf,inf,inf,1,1,1,1,2,1,2,3,0,0,0
58199885,0,0.0,0.0,0.11897364,-0.26496226,-0.94427246,0.2587614,0.22107713,-0.25555706,-0.032718442,0.044913348,0.01728676,0.0072128116,-0.0005205387,0.00018896293,-0.000707599,0.2570001,-0.381851,-0.9798156,3.0561867,0.0,1.008156,-0.01728676,0.005066152,0.0034806188,0.025599673,0.016999839,inf,inf,inf,inf,1,1,1,1,2,1,2,3,0,0,0
58303876,0,0.0,0.0,0.11279064,-0.26107275,-0.9412988,0.2587614,0.22107713,-0.25555706,-0.053858876,0.027272165,0.030925605,0.023361102,-0.0005205387,0.00018896293,-0.000707599,-6.534614,-0.1569373,-1.1122116,3.063784,0.0,1.0051823,-0.030925605,0.0050981054,0.003504199,0.02561766,0.01702268,inf,inf,inf,inf,1,1,1,1,2,1,2,3,0,0,0
58399107,0,0.0,0.0,0.10579536,-0.25981075,-0.9341567,0.2587614,0.22107713,-0.25555706,-0.050312348,0.023142708,0.07456202,0.07000316,-0.0005205387,0.00018896293,-0.000707599,4.5178623,-2.1119483,1.0435157,3.068982,0.0,0.9980402,-0.07456202,0.005389783,0.0036935147,0.02637653,0.01747346,inf,inf,inf,inf,1,1,1,1,2,1,2,3,0,0,0
58503870,0,0.0,0.0,0.09735829,-0.2610321,-0.92293364,0.2587614,0.22107713,-0.25555706,-0.05691947,0.017550392,0.09542347,0.09413114,-0.0005205387,0.00018896293,-0.000707599,1.3054968,0.4552642,-0.9707504,3.0763454,0.0,0.9868171,-0.09542347,0.005096391,0.003505069,0.02560333,0.017024945,inf,inf,inf,inf,1,1,1,1,2,1,2,3,0,0,0
58607920,0,0.0,0.0,0.08825675,-0.2631993,-0.90850544,0.2587614,0.22107713,-0.25555706,-0.0659543,0.012041128,0.10830488,0.10967224,-0.0005205387,0.00018896293,-0.000707599,-3.2665577,1.8372645,2.2532687,3.0817244,0.0,0.972389,-0.10830488,0.0051707337,0.00355399,0.025847435,0.017179182,inf,inf,inf,inf,1,1,1,1,2,1,2,3,0,0,0
58711920,0,0.0,0.0,0.07983369,-0.2669761,-0.89331144,0.2587614,0.22107713,-0.25555706,-0.08018546,0.015451659,0.12755942,0.13064118,-0.0005205387,0.00018896293,-0.000707599,-4.5937076,3.4686265,0.73089015,3.086482,0.0,0.9571949,-0.12755942,0.005233375,0.0035944395,0.025982145,0.01724503,inf,inf,inf,inf,1,1,1,1,2,1,2,3,0,0,0
58807870,0,0.0,0.0,0.07291557,-0.2706277,-0.8796526,0.2587614,0.22107713,-0.25555706,-0.050348315,-0.002897343,0.12287485,0.12648475,-0.0005205387,0.00018896293,-0.000707599,3.7691388,-0.6996216,-2.0129867,3.089544,0.0,0.94353616,-0.12287485,0.0051716347,0.0035535994,0.025838394,0.01713586,inf,inf,inf,inf,1,1,1,1,2,1,2,3,0,0,0
58911880,0,0.0,0.0,0.066333935,-0.2742144,-0.8654627,0.2587614,0.22107713,-0.25555706,-0.06196789,0.0036544397,0.10926617,0.112351075,-0.0005205387,0.00018896293,-0.000707599,-2.9700544,-0.67273605,-1.0997955,3.0911734,0.0,0.9293462,-0.10926617,0.005260578,0.0036100172,0.026084485,0.017272664,inf,inf,inf,inf,1,1,1,1,2,1,2,3,0,0,0
59015869,0,0.0,0.0,0.06181874,-0.2767823,-0.85456014,0.2587614,0.22107713,-0.25555706,-0.04930673,0.0040154704,0.10127017,0.10287619,-0.0005205387,0.00018896293,-0.000707599,-0.9574626,2.843127,-2.5082748,3.0907736,0.0,0.9184437,-0.10127017,0.0053354343,0.0036572556,0.026264658,0.017367993,inf,inf,inf,inf,1,1,1,1,2,1,2,3,0,0,0
59119870,0,0.0,0.0,0.058917392,-0.2791599,-0.84700245,0.2587614,0.22107713,-0.25555706,-0.025668165,-0.011634092,0.07121514,0.07044221,-0.0005205387,0.00018896293,-0.000707599,1.6479118,-2.023983,-1.5401021,3.089338,0.0,0.91088593,-0.07121514,0.005420691,0.0037099458,0.026537865,0.017495293,inf,inf,inf,inf,1,1,1,1,2,1,2,3,0,0,0
59215869,0,0.0,0.0,0.057792563,-0.28097227,-0.8421693,0.2587614,0.22107713,-0.25555706,-0.01869885,-0.0071888342,0.06603824,0.06258212,-0.0005205387,0.00018896293,-0.000707599,-3.2760546,0.57881004,-1.7985803,3.087649,0.0,0.9060528,-0.06603824,0.0053221635,0.0036460187,0.026268372,0.017333306,inf,inf,inf,inf,1,1,1,1,2,1,2,3,0,0,0
59319872,0,0.0,0.0,0.058483534,-0.28309783,-0.8398088,0.2587614,0.22107713,-0.25555706,-0.0052829054,-0.033055946,0.054873385,0.048488215,-0.0005205387,0.00018896293,-0.000707599,-0.45645538,-1.8617587,-1.0311267,3.0829372,0.0,0.90369236,-0.054873385,0.005384138,0.0036837945,0.026456,0.017435562,inf,inf,inf,inf,1,1,1,1,2,1,2,3,0,0,0
59423870,0,0.0,0.0,0.06052673,-0.2863429,-0.8389342,0.2587614,0.22107713,-0.25555706,0.01208203,-0.034574915,0.03938781,0.030600639,-0.0005205387,0.00018896293,-0.000707599,-0.7648556,3.3551376,0.30507186,3.0773711,0.0,0.9028177,-0.03938781,0.005097896,0.0034986318,0.025753533,0.017011171,inf,inf,inf,inf,1,1,1,1,2,1,2,3,0,0,0
59519886,0,0.0,0.0,0.06348818,-0.29075003,-0.83862114,0.2587614,0.22107713,-0.25555706,0.016982606,-0.05749494,0.04610562,0.035809364,-0.0005205387,0.00018896293,-0.000707599,-3.4105802,1.0322311,1.4883649,3.0722663,0.0,0.9025047,-0.04610562,0.005414227,0.0037015232,0.026551807,0.017514504,inf,inf,inf,inf,1,1,1,1,2,1,2,3,0,0,0
59623870,0,0.0,0.0,0.06761164,-0.29740915,-0.8376751,0.2587614,0.22107713,-0.25555706,0.020753112,-0.060245223,0.046903074,0.03590826,-0.0005205387,0.00018896293,-0.000707599,-3.2563663,0.8706382,0.51690197,3.0656078,0.0,0.90155864,-0.046903074,0.005136787,0.0035240143,0.02580285,0.01707262,inf,inf,inf,inf,1,1,1,1,2,1,2,3,0,0,0
59727937,0,0.0,0.0,0.07205121,-0.30492523,-0.8345594,0.2587614,0.22107713,-0.25555706,0.02675393,-0.061929353,0.060090378,0.049448706,-0.0005205387,0.00018896293,-0.000707599,-3.0199418,1.4867939,2.336397,3.0588987,0.0,0.89844286,-0.060090378,0.0051999115,0.003566664,0.025909798,0.017153194,inf,inf,inf,inf,1,1,1,1,2,1,2,3,0,0,0
59823869,0,0.0,0.0,0.07593339,-0.31206158,-0.8295351,0.2587614,0.22107713,-0.25555706,0.035226405,-0.068258025,0.07354376,0.06402575,-0.0005205387,0.00018896293,-0.000707599,0.5129952,-1.4815415,-0.33267537,3.0530722,0.0,0.89341867,-0.07354376,0.0054981695,0.003759635,0.026636034,0.01760653,inf,inf,inf,inf,1,1,1,1,2,1,2,3,0,0,0
59927870,0,0.0,0.0,0.07942408,-0.31959558,-0.82206595,0.2587614,0.22107713,-0.25555706,0.0335871,-0.05652173,0.06715073,0.059417296,-0.0005205387,0.00018896293,-0.000707599,-1.3394037,-2.47236,-2.267162,3.04689,0.0,0.8859495,-0.06715073,0.005177081,0.003554166,0.025808003,0.017112873,inf,inf,inf,inf,1,1,1,1,2,1,2,3,0,0,0
60031870,0,0.0,0.0,0.08253783,-0.3260256,-0.8134828,0.2587614,0.22107713,-0.25555706,0.022006558,-0.03084334,0.06837381,0.06252465,-0.0005205387,0.00018896293,-0.000707599,-6.4290752,3.7205334,-1.9953787,3.0424907,0.0,0.8773663,-0.06837381,0.0052418043,0.003596962,0.025967553,0.017218566,inf,inf,inf,inf,1,1,1,1,2,1,2,3,0,0,0
60127870,0,0.0,0.0,0.085009694,-0.33076704,-0.8053211,0.2587614,0.22107713,-0.25555706,0.033507757,-0.03400606,0.081852704,0.07742969,-0.0005205387,0.00018896293,-0.000707599,3.2077355,1.4430751,0.83457047,3.0392532,0.0,0.86920464,-0.081852704,0.00544292,0.0037291136,0.026392262,0.017451327,inf,inf,inf,inf,1,1,1,1,2,1,2,3,0,0,0
60231891,0,0.0,0.0,0.08703698,-0.33371028,-0.79683197,0.2587614,0.22107713,-0.25555706,0.034954596,-0.028346663,0.07968994,0.07614561,-0.0005205387,0.00018896293,-0.000707599,3.1741078,0.42008665,0.9350101,3.036992,0.0,0.8607155,-0.07968994,0.005475312,0.0037480395,0.026582493,0.017547294,inf,inf,inf,inf,1,1,1,1,2,1,2,3,0,0,0
60335887,0,0.0,0.0,0.08827122,-0.33387813,-0.7893035,0.2587614,0.22107713,-0.25555706,0.035573177,-0.014776913,0.0626955,0.05935309,-0.0005205387,0.00018896293,-0.000707599,2.5785255,-2.1133342,-0.078994066,3.0371249,0.0,0.85318696,-0.0626955,0.0051487307,0.0035358882,0.025787322,0.017067268,inf,inf,inf,inf,1,1,1,1,2,1,2,3,0,0,0
60431870,0,0.0,0.0,0.08910798,-0.33242965,-0.78396326,0.2587614,0.22107713,-0.25555706,0.02525135,0.005375471,0.059749875,0.056034114,-0.0005205387,0.00018896293,-0.000707599,-1.9991486,0.99064344,1.5762235,3.038596,0.0,0.84784675,-0.059749875,0.0054346053,0.0037183773,0.026563512,0.017506313,inf,inf,inf,inf,1,1,1,1,2,1,2,3,0,0,0
60535882,0,0.0,0.0,0.08982752,-0.32920516,-0.779218,0.2587614,0.22107713,-0.25555706,0.030768476,0.016289081,0.054562338,0.049977742,-0.0005205387,0.00018896293,-0.000707599,-1.0411886,2.4028842,-1.3937941,3.0408483,0.0,0.8431015,-0.054562338,0.00511275,0.0035101508,0.025726143,0.017019235,inf,inf,inf,inf,1,1,1,1,2,1,2,3,0,0,0
60639870,0,0.0,0.0,0.09116275,-0.32478607,-0.77503324,0.2587614,0.22107713,-0.25555706,0.0318713,0.021770088,0.04621558,0.04075058,-0.0005205387,0.00018896293,-0.000707599,-1.8874738,-2.2740777,-2.048796,3.0452206,0.0,0.8389168,-0.04621558,0.00521945,0.0035769423,0.02605126,0.017211733,inf,inf,inf,inf,1,1,1,1,2,1,2,3,0,0,0
60743883,0,0.0,0.0,0.093288355,-0.32008237,-0.77151716,0.2587614,0.22107713,-0.25555706,0.024529176,0.025749821,0.03689605,0.030909758,-0.0005205387,0.00018896293,-0.000707599,-5.431924,-1.7417041,-2.5511112,3.0514712,0.0,0.8354007,-0.03689605,0.0053074136,0.0036335262,0.02625021,0.017329969,inf,inf,inf,inf,1,1,1,1,2,1,2,3,0,0,0
60847869,0,0.0,0.0,0.09634972,-0.31466332,-0.7684356,0.2587614,0.22107713,-0.25555706,0.034549434,0.034123138,0.041946504,0.035744768,-0.0005205387,0.00018896293,-0.000707599,-0.9578181,-1.6559644,1.4012582,3.057246,0.0,0.83231914,-0.041946504,0.0053585446,0.0036677062,0.026317053,0.017374443,inf,inf,inf,inf,1,1,1,1,2,1,2,3,0,0,0
60943878,0,0.0,0.0,0.09995088,-0.3097959,-0.76592344,0.2587614,0.22107713,-0.25555706,0.041077312,0.052615702,0.041466154,0.035138294,-0.0005205387,0.00018896293,-0.000707599,-2.0195994,0.6537347,0.93476343,3.063297,0.0,0.8298069,-0.041466154,0.0052955328,0.0036269985,0.026190305,0.01730238,inf,inf,inf,inf,1,1,1,1,2,1,2,3,0,0,0
61047910,0,0.0,0.0,0.10442864,-0.3040606,-0.76288694,0.2587614,0.22107713,-0.25555706,0.041260425,0.047600556,0.042746693,0.036453944,-0.0005205387,0.00018896293,-0.000707599,-5.4151897,-1.914574,2.8059788,3.0696416,0.0,0.8267704,-0.042746693,0.0053898753,0.0036874735,0.026444906,0.017458588,inf,inf,inf,inf,1,1,1,1,2,1,2,3,0,0,0
61151879,0,0.0,0.0,0.109526254,-0.29870752,-0.7598373,0.2587614,0.22107713,-0.25555706,0.033762835,0.052674185,0.044816647,0.038746383,-0.0005205387,0.00018896293,-0.000707599,-1.2715698,2.088743,2.1265535,3.0770826,0.0,0.8237208,-0.044816647,0.005094901,0.0034987782,0.0256279,0.016983151,inf,inf,inf,inf,1,1,1,1,2,1,2,3,0,0,0
61247869,0,0.0,0.0,0.11428384,-0.2944308,-0.7571113,0.2587614,0.22107713,-0.25555706,0.046356194,0.052174892,0.0394098,0.033649344,-0.0005205387,0.00018896293,-0.000707599,-1.0091115,1.252362,2.1658783,3.084945,0.0,0.82099485,-0.0394098,0.005368424,0.003676004,0.026306296,0.01738277,inf,inf,inf,inf,1,1,1,1,2,1,2,3,0,0,0
61351870,0,0.0,0.0,0.11961703,-0.29023594,-0.754576,0.2587614,0.22107713,-0.25555706,0.040870316,0.050913375,0.032962933,0.027425297,-0.0005205387,0.00018896293,-0.000707599,-0.8791479,2.8216207,3.200852,3.092676,0.0,0.8184595,-0.032962933,0.0050699455,0.003483603,0.025555171,0.01694474,inf,inf,inf,inf,1,1,1,1,2,1,2,3,0,0,0
61455869,0,0.0,0.0,0.12516572,-0.287589,-0.7533496,0.2587614,0.22107713,-0.25555706,0.0430601,0.03696803,0.023910651,0.01839844,-0.0005205387,0.00018896293,-0.000707599,-1.1319764,0.8850418,1.7447501,3.097062,0.0,0.8172331,-0.023910651,0.005116677,0.0035140796,0.025668576,0.016999425,inf,inf,inf,inf,1,1,1,1,2,1,2,3,0,0,0
61551896,0,0.0,0.0,0.1301133,-0.28573802,-0.752276,0.2587614,0.22107713,-0.25555706,0.04925846,0.03385063,0.026810521,0.021040857,-0.0005205387,0.00018896293,-0.000707599,-3.2114184,1.1877546,2.4574203,3.0982318,0.0,0.8161595,-0.026810521,0.0050743776,0.003484996,0.025654197,0.016981171,inf,inf,inf,inf,1,1,1,1,2,1,2,3,0,0,0
61655871,0,0.0,0.0,0.13453634,-0.2847686,-0.74966365,0.2587614,0.22107713,-0.25555706,0.046006456,0.015867267,0.04369159,0.037656967,-0.0005205387,0.00018896293,-0.000707599,-3.1142018,-1.6945909,-0.76084673,3.0977128,0.0,0.81354713,-0.04369159,0.0051571033,0.0035378993,0.025858678,0.017096829,inf,inf,inf,inf,1,1,1,1,2,1,2,3,0,0,0
61759881,0,0.0,0.0,0.1378959,-0.28406635,-0.74463636,0.2587614,0.22107713,-0.25555706,0.021436365,0.025039632,0.067069866,0.06127752,-0.0005205387,0.00018896293,-0.000707599,-6.673306,-0.19687797,-0.17598481,3.0965333,0.0,0.80851984,-0.067069866,0.0052081095,0.0035715322,0.025924347,0.017145185,inf,inf,inf,inf,1,1,1,1,2,1,2,3,0,0,0
61863870,0,0.0,0.0,0.13982189,-0.28392574,-0.73662364,0.2587614,0.22107713,-0.25555706,0.031246562,0.01818907,0.080886595,0.076135516,-0.0005205387,0.00018896293,-0.000707599,1.222247,2.2295454,-0.43094987,3.0953934,0.0,0.8005072,-0.080886595,0.0052740164,0.0036147991,0.026087286,0.017248824,inf,inf,inf,inf,1,1,1,1,2,1,2,3,0,0,0
61967876,0,0.0,0.0,0.1410914,-0.28472504,-0.72612756,0.2587614,0.22107713,-0.25555706,0.014867713,0.0062071155,0.105176255,0.102055885,-0.0005205387,0.00018896293,-0.000707599,-0.26703846,-1.2302452,2.68421,3.096818,0.0,0.79001105,-0.105176255,0.005355427,0.0036674694,0.02630821,0.017401012,inf,inf,inf,inf,1,1,1,1,2,1,2,3,0,0,0
62063873,0,0.0,0.0,0.14172578,-0.28579673,-0.7143684,0.2587614,0.22107713,-0.25555706,0.0012523116,0.010202435,0.12897806,0.12740502,-0.0005205387,0.00018896293,-0.000707599,-3.600837,3.998806,2.923896,3.1021237,0.0,0.7782519,-0.12897806,0.0052935705,0.0036280248,0.026172867,0.017318662,inf,inf,inf,inf,1,1,1,1,2,1,2,3,0,0,0
62167870,0,0.0,0.0,0.14109744,-0.28698018,-0.6989241,0.2587614,0.22107713,-0.25555706,-0.0059543443,-0.020187445,0.13405927,0.13398413,-0.0005205387,0.00018896293,-0.000707599,-1.3496207,1.0215453,-1.0680652,3.107332,0.0,0.7628076,-0.13405927,0.0053669577,0.003676208,0.026328785,0.01741807,inf,inf,inf,inf,1,1,1,1,2,1,2,3,0,0,0
62271883,0,0.0,0.0,0.13984695,-0.28900933,-0.6831183,0.2587614,0.22107713,-0.25555706,0.015643049,-0.017972963,0.13633248,0.13733257,-0.0005205387,0.00018896293,-0.000707599,4.9484653,-1.4398317,0.38996476,3.1108677,0.0,0.74700177,-0.13633248,0.0054680947,0.0037409067,0.026613224,0.017578872,inf,inf,inf,inf,1,1,1,1,2,1,2,3,0,0,0
62367876,0,0.0,0.0,0.13884339,-0.29089698,-0.67010903,0.2587614,0.22107713,-0.25555706,0.007705562,-0.008955824,0.12447427,0.12563829,-0.0005205387,0.00018896293,-0.000707599,0.20711604,3.1469443,2.0446684,3.1141,0.0,0.7339926,-0.12447427,0.0053587495,0.0036719844,0.026290692,0.017391987,inf,inf,inf,inf,1,1,1,1,2,1,2,3,0,0,0
62471870,0,0.0,0.0,0.13823894,-0.2931588,-0.6585724,0.2587614,0.22107713,-0.25555706,0.0019708264,-0.021848569,0.10377436,0.1038458,-0.0005205387,0.00018896293,-0.000707599,-1.2414116,3.2082305,-1.3202746,3.1145563,0.0,0.72245586,-0.10377436,0.0054472247,0.003727349,0.026590774,0.017539743,inf,inf,inf,inf,1,1,1,1,2,1,2,3,0,0,0
62575870,0,0.0,0.0,0.13874772,-0.29593465,-0.64996487,0.2587614,0.22107713,-0.25555706,0.026773369,-0.03099473,0.09372834,0.09165504,-0.0005205387,0.00018896293,-0.000707599,2.660646,-3.848052,-1.3491558,3.1109025,0.0,0.71384835,-0.09372834,0.0051459684,0.0035319084,0.025830131,0.017065361,inf,inf,inf,inf,1,1,1,1,2,1,2,3,0,0,0
62671876,0,0.0,0.0,0.14005291,-0.29861954,-0.64385396,0.2587614,0.22107713,-0.25555706,0.028686345,-0.023734497,0.08276461,0.07828254,-0.0005205387,0.00018896293,-0.000707599,0.71185887,0.4690987,-1.4129524,3.1071622,0.0,0.70773745,-0.08276461,0.005453536,0.0037279276,0.026645882,0.017533774,inf,inf,inf,inf,1,1,1,1,2,1,2,3,0,0,0
62775885,0,0.0,0.0,0.14247066,-0.30133623,-0.6391048,0.2587614,0.22107713,-0.25555706,0.026517097,-0.021612652,0.08064839,0.0737264,-0.0005205387,0.00018896293,-0.000707599,2.9793227,2.0049667,1.8927675,3.1047242,0.0,0.70298827,-0.08064839,0.0051674442,0.003542836,0.02590677,0.017113619,inf,inf,inf,inf,1,1,1,1,2,1,2,3,0,0,0
62879869,0,0.0,0.0,0.14562193,-0.30305332,-0.63526595,0.2587614,0.22107713,-0.25555706,0.021336323,-0.030947356,0.06867481,0.059930347,-0.0005205387,0.00018896293,-0.000707599,-3.1607604,-2.1397386,-0.1768637,3.1035545,0.0,0.6991495,-0.06867481,0.005231026,0.00358393,0.02602622,0.017178956,inf,inf,inf,inf,1,1,1,1,2,1,2,3,0,0,0
62983870,0,0.0,0.0,0.14848618,-0.3034258,-0.63096625,0.2587614,0.22107713,-0.25555706,0.021884061,-0.0071289176,0.064332165,0.054540996,-0.0005205387,0.00018896293,-0.000707599,-1.2376822,3.3010538,-3.6583052,3.1033652,0.0,0.6948497,-0.064332165,0.0053237746,0.0036429432,0.026289916,0.01734305,inf,inf,inf,inf,1,1,1,1,2,1,2,3,0,0,0
63079869,0,0.0,0.0,0.15081634,-0.3024691,-0.62695754,0.2587614,0.22107713,-0.25555706,0.031168409,-0.006075889,0.058809664,0.048839677,-0.0005205387,0.00018896293,-0.000707599,3.9427066,-1.0907297,-2.7508686,3.1037126,0.0,0.6908411,-0.058809664,0.0052348776,0.0035870322,0.026019692,0.017203977,inf,inf,inf,inf,1,1,1,1,2,1,2,3,0,0,0
63183870,0,0.0,0.0,0.15259928,-0.29905337,-0.6230222,0.2587614,0.22107713,-0.25555706,0.010046011,0.021009702,0.05524195,0.045621477,-0.0005205387,0.00018896293,-0.000707599,-2.0356727,-2.2661114,1.483095,3.1031225,0.0,0.68690574,-0.05524195,0.005290425,0.0036240907,0.02614962,0.017273247,inf,inf,inf,inf,1,1,1,1,2,1,2,3,0,0,0
63287920,0,0.0,0.0,0.15349856,-0.29349726,-0.6201246,0.2587614,0.22107713,-0.25555706,0.0047362195,0.03343242,0.04083609,0.031681094,-0.0005205387,0.00018896293,-0.000707599,-3.8231258,-2.4539561,3.0533726,3.1005328,0.0,0.6840081,-0.04083609,0.005347075,0.0036611299,0.026283108,0.017357687,inf,inf,inf,inf,1,1,1,1,2,1,2,3,0,0,0
63387076,0,0.0,0.0,0.15347977,-0.28536963,-0.6182169,0.2587614,0.22107713,-0.25555706,0.0047555333,0.06407068,0.018570676,0.009801737,-0.0005205387,0.00018896293,-0.000707599,-0.36385506,-2.567898,-1.8081949,3.0970073,0.0,0.6821004,-0.018570676,0.0053239907,0.0036445213,0.02632013,0.017372929,inf,inf,inf,inf,1,1,1,1,2,1,2,3,0,0,0
63483895,0,0.0,0.0,0.15230763,-0.27516484,-0.6180382,0.2587614,0.22107713,-0.25555706,-0.006947351,0.10026211,0.005603533,-0.0030475445,-0.0005205387,0.00018896293,-0.000707599,-1.2047033,2.9646385,0.5798746,3.0934615,0.0,0.6819217,-0.005603533,0.0053460407,0.003658833,0.026624305,0.017583178,inf,inf,inf,inf,1,1,1,1,2,1,2,3,0,0,0
63587870,0,0.0,0.0,0.14940345,-0.26048943,-0.6193672,0.2587614,0.22107713,-0.25555706,-0.019621994,0.103383504,-0.009923947,-0.018725311,-0.0005205387,0.00018896293,-0.000707599,-1.2720555,-5.3753757,-1.6173277,3.0870988,0.0,0.68325067,0.009923947,0.0053669545,0.0036741733,0.026511472,0.017507361,inf,inf,inf,inf,1,1,1,1,2,1,2,3,0,0,0
63691139,0,0.0,0.0,0.14556281,-0.2440705,-0.62325686,0.2587614,0.22107713,-0.25555706,0.00085048145,0.12711698,-0.0293347,-0.03847644,-0.0005205387,0.00018896293,-0.000707599,7.3112483,-2.3512683,-3.607316,3.080306,0.0,0.68714035,0.0293347,0.005449795,0.00372743,0.026698602,0.017604936,inf,inf,inf,inf,1,1,1,1,2,1,2,3,0,0,0
63791870,0,0.0,0.0,0.14209004,-0.22693433,-0.6292217,0.2587614,0.22107713,-0.25555706,0.006124654,0.13401501,-0.03675146,-0.04633701,-0.0005205387,0.00018896293,-0.000707599,5.475174,-1.9585325,2.5962613,3.0731015,0.0,0.6931052,0.03675146,0.0051349727,0.0035250667,0.025830656,0.017077465,inf,inf,inf,inf,1,1,1,1,2,1,2,3,0,0,0
63894334,0,0.0,0.0,0.13953033,-0.21027507,-0.63626593,0.2587614,0.22107713,-0.25555706,0.0044527114,0.13430345,-0.045405976,-0.055339165,-0.0005205387,0.00018896293,-0.000707599,2.8015769,0.059516296,0.7971964,3.0647435,0.0,0.7001494,0.045405976,0.0051217494,0.0035164803,0.02561426,0.016943267,inf,inf,inf,inf,1,1,1,1,2,1,2,3,0,0,0
63998312,0,0.0,0.0,0.13800202,-0.19564089,-0.64316446,0.2587614,0.22107713,-0.25555706,0.0071470463,0.11149172,-0.04697336,-0.056971774,-0.0005205387,0.00018896293,-0.000707599,-1.2087011,-1.7625631,-0.7805839,3.0551212,0.0,0.70704794,0.04697336,0.0051693073,0.0035457367,0.025771938,0.017027674,inf,inf,inf,inf,1,1,1,1,2,1,2,3,0,0,0
64095075,0,0.0,0.0,0.13745032,-0.18443723,-0.6487167,0.2587614,0.22107713,-0.25555706,0.017025456,0.11484052,-0.04218248,-0.051720776,-0.0005205387,0.00018896293,-0.000707599,3.7692204,-1.3967586,1.3430152,3.0478785,0.0,0.71260023,0.04218248,0.0051103528,0.0035069848,0.025675552,0.016992373,inf,inf,inf,inf,1,1,1,1,2,1,2,3,0,0,0
64199070,0,0.0,0.0,0.1391714,-0.17507322,-0.6535475,0.2587614,0.22107713,-0.25555706,0.031900242,0.08390786,-0.034236416,-0.042693328,-0.0005205387,0.00018896293,-0.000707599,1.9406029,-0.17913553,-0.17395742,3.0390263,0.0,0.71743107,0.034236416,0.0051837177,0.003554616,0.025879344,0.017124224,inf,inf,inf,inf,1,1,1,1,2,1,2,3,0,0,0
64303070,0,0.0,0.0,0.14275876,-0.16878691,-0.6559799,0.2587614,0.22107713,-0.25555706,0.043128442,0.08539158,-0.029173687,-0.036169056,-0.0005205387,0.00018896293,-0.000707599,1.7699763,-0.27671912,-2.9925683,3.0312636,0.0,0.7198634,0.029173687,0.005253899,0.0035998693,0.026090236,0.017238889,inf,inf,inf,inf,1,1,1,1,2,1,2,3,0,0,0
64398318,0,0.0,0.0,0.14759618,-0.16520827,-0.65700096,0.2587614,0.22107713,-0.25555706,0.0261259,0.06791762,-0.010097614,-0.015569911,-0.0005205387,0.00018896293,-0.000707599,-5.187014,1.0543299,0.9375995,3.0244584,0.0,0.72088444,0.010097614,0.0051742215,0.0035488214,0.025870662,0.017103674,inf,inf,inf,inf,1,1,1,1,2,1,2,3,0,0,0
64502343,0,0.0,0.0,0.15486471,-0.16300428,-0.6574147,0.2587614,0.22107713,-0.25555706,0.049599893,0.055916324,-0.008107097,-0.012056507,-0.0005205387,0.00018896293,-0.000707599,-1.2786218,-3.5669303,0.77219486,3.0166821,0.0,0.7212982,0.008107097,0.0052878084,0.003621712,0.026220938,0.017307257,inf,inf,inf,inf,1,1,1,1,2,1,2,3,0,0,0
64606322,0,0.0,0.0,0.16331942,-0.16134869,-0.6564983,0.2587614,0.22107713,-0.25555706,0.06476706,0.058155775,0.0019918429,-0.00091020984,-0.0005205387,0.00018896293,-0.000707599,-4.1206136,0.2271343,-0.11382792,3.0116935,0.0,0.72038186,-0.0019918429,0.005350562,0.0036623848,0.026362874,0.017381731,inf,inf,inf,inf,1,1,1,1,2,1,2,3,0,0,0
64703070,0,0.0,0.0,0.17200321,-0.15960565,-0.6549547,0.2587614,0.22107713,-0.25555706,0.06858608,0.045273554,0.021502234,0.019187443,-0.0005205387,0.00018896293,-0.000707599,2.4014719,-3.0863996,2.120882,3.0100424,0.0,0.7188382,-0.021502234,0.0052764625,0.0036137642,0.026189113,0.01727468,inf,inf,inf,inf,1,1,1,1,2,1,2,3,0,0,0
64807070,0,0.0,0.0,0.18194433,-0.15633363,-0.6525439,0.2587614,0.22107713,-0.25555706,0.06853959,0.051866,0.020469429,0.01855478,-0.0005205387,0.00018896293,-0.000707599,-2.263697,-3.235013,1.7221073,3.010109,0.0,0.71642745,-0.020469429,0.005340267,0.0036542297,0.026339997,0.017348273,inf,inf,inf,inf,1,1,1,1,2,1,2,3,0,0,0
64911072,0,0.0,0.0,0.19232163,-0.15205011,-0.64978206,0.2587614,0.22107713,-0.25555706,0.07542483,0.06562767,0.031502485,0.029783944,-0.0005205387,0.00018896293,-0.000707599,2.034199,2.2173407,2.3132994,3.013026,0.0,0.7136656,-0.031502485,0.0054247044,0.0037067172,0.026590949,0.017483842,inf,inf,inf,inf,1,1,1,1,2,1,2,3,0,0,0
65007105,0,0.0,0.0,0.20189486,-0.14659339,-0.6470216,0.2587614,0.22107713,-0.25555706,0.056651197,0.059248358,0.029645126,0.027898233,-0.0005205387,0.00018896293,-0.000707599,-4.7479343,-0.10249049,-1.1606913,3.0165162,0.0,0.7109051,-0.029645126,0.00534369,0.0036542593,0.026359124,0.017348187,inf,inf,inf,inf,1,1,1,1,2,1,2,3,0,0,0
65111075,0,0.0,0.0,0.21053423,-0.13996719,-0.6436049,0.2587614,0.22107713,-0.25555706,0.03206465,0.058841467,0.040079128,0.038161166,-0.0005205387,0.00018896293,-0.000707599,-4.482213,-2.2581792,3.6274383,3.0233045,0.0,0.7074884,-0.040079128,0.005414279,0.0036985022,0.02655754,0.01745799,inf,inf,inf,inf,1,1,1,1,2,1,2,3,0,0,0
65215074,0,0.0,0.0,0.21739636,-0.13303107,-0.640224,0.2587614,0.22107713,-0.25555706,0.03099057,0.06564861,0.043074273,0.040975183,-0.0005205387,0.00018896293,-0.000707599,1.0705029,2.223017,2.0951521,3.0327916,0.0,0.7041075,-0.043074273,0.0055121505,0.003760497,0.026804049,0.017610863,inf,inf,inf,inf,1,1,1,1,2,1,2,3,0,0,0
65311077,0,0.0,0.0,0.22160442,-0.12729804,-0.63689595,0.2587614,0.22107713,-0.25555706,0.019492667,0.049311258,0.03990152,0.03758209,-0.0005205387,0.00018896293,-0.000707599,1.0436498,1.833078,-1.5101221,3.042452,0.0,0.70077944,-0.03990152,0.005420658,0.0037030273,0.026531037,0.017464835,inf,inf,inf,inf,1,1,1,1,2,1,2,3,0,0,0
65415090,0,0.0,0.0,0.22329079,-0.123291686,-0.632695,0.2587614,0.22107713,-0.25555706,0.0038671559,0.018443488,0.044094507,0.041521996,-0.0005205387,0.00018896293,-0.000707599,1.6963336,-3.095332,-0.971325,3.0535738,0.0,0.6965785,-0.044094507,0.0051400503,0.0035235074,0.02580748,0.017056817,inf,inf,inf,inf,1,1,1,1,2,1,2,3,0,0,0
65519070,0,0.0,0.0,0.2222513,-0.12199189,-0.6293793,0.2587614,0.22107713,-0.25555706,-0.018083945,-0.0009105578,0.028670533,0.025905583,-0.0005205387,0.00018896293,-0.000707599,-0.5376335,-0.80572176,-2.0443852,3.0619977,0.0,0.6932628,-0.028670533,0.0052169845,0.0035745613,0.025955116,0.01716655,inf,inf,inf,inf,1,1,1,1,2,1,2,3,0,0,0
65623089,0,0.0,0.0,0.21840969,-0.123989016,-0.6272271,0.2587614,0.22107713,-0.25555706,-0.026010914,-0.019263884,0.016475502,0.013333515,-0.0005205387,0.00018896293,-0.000707599,3.1063738,-2.3608475,-1.5402107,3.066313,0.0,0.6911106,-0.016475502,0.005297445,0.0036278965,0.026161443,0.017286211,inf,inf,inf,inf,1,1,1,1,2,1,2,3,0,0,0
65727071,0,0.0,0.0,0.21265043,-0.12962429,-0.62675035,0.2587614,0.22107713,-0.25555706,-0.032299675,-0.046551216,0.007960709,0.0040395088,-0.0005205387,0.00018896293,-0.000707599,0.85955614,-0.59218526,-2.0714097,3.0671866,0.0,0.6906339,-0.007960709,0.005004276,0.0034398492,0.025402868,0.016842544,inf,inf,inf,inf,1,1,1,1,2,1,2,3,0,0,0
65823070,0,0.0,0.0,0.20699722,-0.13740014,-0.6286621,0.2587614,0.22107713,-0.25555706,-0.036154173,-0.055814903,-0.011363985,-0.016295454,-0.0005205387,0.00018896293,-0.000707599,2.7088506,2.9209855,-0.48322922,3.0646331,0.0,0.69254565,0.011363985,0.005019712,0.0034480735,0.025547408,0.016917825,inf,inf,inf,inf,1,1,1,1,2,1,2,3,0,0,0
65927099,0,0.0,0.0,0.2011245,-0.14810336,-0.63247037,0.2587614,0.22107713,-0.25555706,-0.041412566,-0.075564094,-0.020955928,-0.027186604,-0.0005205387,0.00018896293,-0.000707599,-0.7577371,0.4043667,0.18128546,3.06015,0.0,0.6963539,0.020955928,0.005136094,0.0035232145,0.025850423,0.017084079,inf,inf,inf,inf,1,1,1,1,2,1,2,3,0,0,0
66031078,0,0.0,0.0,0.19658397,-0.16000047,-0.6371061,0.2587614,0.22107713,-0.25555706,-0.039564054,-0.08377243,-0.01483686,-0.022335248,-0.0005205387,0.00018896293,-0.000707599,-1.9139577,0.84534883,2.6810644,3.054705,0.0,0.7009896,0.01483686,0.005252799,0.0035975906,0.026124083,0.017248424,inf,inf,inf,inf,1,1,1,1,2,1,2,3,0,0,0
66127143,0,0.0,0.0,0.19384387,-0.17160404,-0.64109457,0.2587614,0.22107713,-0.25555706,-0.023399536,-0.10477867,-0.008843602,-0.016999966,-0.0005205387,0.00018896293,-0.000707599,5.0401974,0.6230232,2.0628705,3.0492842,0.0,0.7049781,0.008843602,0.005186852,0.0035560569,0.02589118,0.017111039,inf,inf,inf,inf,1,1,1,1,2,1,2,3,0,0,0
66231070,0,0.0,0.0,0.19293572,-0.18440206,-0.64451724,0.2587614,0.22107713,-0.25555706,-0.016772095,-0.10577938,-0.013444563,-0.021476755,-0.0005205387,0.00018896293,-0.000707599,4.608619,-0.47047478,-0.32992348,3.0437577,0.0,0.7084007,0.013444563,0.0052692858,0.0036095295,0.026088582,0.017236384,inf,inf,inf,inf,1,1,1,1,2,1,2,3,0,0,0
66335070,0,0.0,0.0,0.19358699,-0.19710195,-0.64654773,0.2587614,0.22107713,-0.25555706,-0.0105133355,-0.09982888,-0.011474266,-0.018576153,-0.0005205387,0.00018896293,-0.000707599,2.8820071,3.430552,-3.0901308,3.0402813,0.0,0.7104312,0.011474266,0.005338306,0.003655105,0.026236761,0.017344397,inf,inf,inf,inf,1,1,1,1,2,1,2,3,0,0,0
66431106,0,0.0,0.0,0.19567037,-0.20704928,-0.6470949,0.2587614,0.22107713,-0.25555706,-0.011550673,-0.09180161,-0.0064973617,-0.0122810695,-0.0005205387,0.00018896293,-0.000707599,-4.021956,3.1678145,0.2001124,3.035324,0.0,0.7109784,0.0064973617,0.0052537103,0.0036015336,0.026032047,0.017229937,inf,inf,inf,inf,1,1,1,1,2,1,2,3,0,0,0
66535112,0,0.0,0.0,0.19840658,-0.21660323,-0.6468286,0.2587614,0.22107713,-0.25555706,0.0012271908,-0.09144345,-0.002928776,-0.007152083,-0.0005205387,0.00018896293,-0.000707599,0.14145957,-0.110157445,0.44531828,3.0311074,0.0,0.7107121,0.002928776,0.005314385,0.0036412661,0.026187096,0.017313423,inf,inf,inf,inf,1,1,1,1,2,1,2,3,0,0,0
66639069,0,0.0,0.0,0.20189221,-0.22359523,-0.6467417,0.2587614,0.22107713,-0.25555706,0.007630205,-0.07944946,-0.01755222,-0.020470396,-0.0005205387,0.00018896293,-0.000707599,-1.1679668,-1.2006878,-3.4533498,3.02591,0.0,0.7106252,0.01755222,0.0053872783,0.0036883622,0.0263642,0.017419223,inf,inf,inf,inf,1,1,1,1,2,1,2,3,0,0,0
66743084,0,0.0,0.0,0.20583738,-0.22870164,-0.64725256,0.2587614,0.22107713,-0.25555706,0.014406161,-0.06553295,-0.01452898,-0.016722966,-0.0005205387,0.00018896293,-0.000707599,-0.8785351,1.0720912,-0.6773453,3.0200295,0.0,0.7111361,0.01452898,0.005459487,0.0037341348,0.026578646,0.017535988,inf,inf,inf,inf,1,1,1,1,2,1,2,3,0,0,0
66847101,0,0.0,0.0,0.20946285,-0.2323912,-0.6480707,0.2587614,0.22107713,-0.25555706,0.017112985,-0.044135943,-0.006382455,-0.0084333,-0.0005205387,0.00018896293,-0.000707599,3.4012997,3.3167915,0.81232953,3.0168881,0.0,0.71195424,0.006382455,0.005148172,0.003533436,0.025782278,0.017054975,inf,inf,inf,inf,1,1,1,1,2,1,2,3,0,0,0
66943070,0,0.0,0.0,0.21234259,-0.23456818,-0.64886355,0.2587614,0.22107713,-0.25555706,0.022971896,-0.05413178,-0.008521526,-0.010709753,-0.0005205387,0.00018896293,-0.000707599,1.4726815,0.54606533,-2.4121575,3.0132492,0.0,0.7127471,0.008521526,0.0050892145,0.0034940725,0.025655527,0.016983788,inf,inf,inf,inf,1,1,1,1,2,1,2,3,0,0,0
67047070,0,0.0,0.0,0.21533637,-0.23630138,-0.6492634,0.2587614,0.22107713,-0.25555706,0.023651805,-0.02417924,0.003767054,0.0014561802,-0.0005205387,0.00018896293,-0.000707599,1.6349623,4.281417,1.0651565,3.0118349,0.0,0.7131469,-0.003767054,0.0051929946,0.0035598902,0.025948327,0.017147593,inf,inf,inf,inf,1,1,1,1,2,1,2,3,0,0,0
67151085,0,0.0,0.0,0.21826476,-0.23666473,-0.6484015,0.2587614,0.22107713,-0.25555706,0.02600093,-0.0255712,0.018093023,0.015851079,-0.0005205387,0.00018896293,-0.000707599,2.4949033,-1.1661524,-1.6180859,3.0130448,0.0,0.71228504,-0.018093023,0.005261095,0.0036041285,0.026096353,0.017235335,inf,inf,inf,inf,1,1,1,1,2,1,2,3,0,0,0
67247112,0,0.0,0.0,0.22113626,-0.23565856,-0.64601606,0.2587614,0.22107713,-0.25555706,0.039731514,0.0154602565,0.027537035,0.025610132,-0.0005205387,0.00018896293,-0.000707599,3.445537,5.72592,-1.1089112,3.0134254,0.0,0.70989954,-0.027537035,0.00518781,0.0035569828,0.0258894,0.017119523,inf,inf,inf,inf,1,1,1,1,2,1,2,3,0,0,0
67351069,0,0.0,0.0,0.22477122,-0.23268552,-0.6423303,0.2587614,0.22107713,-0.25555706,0.043185472,0.02981828,0.038685553,0.037385404,-0.0005205387,0.00018896293,-0.000707599,1.4747494,-0.08808738,1.3974329,3.0146143,0.0,0.70621383,-0.038685553,0.0052482863,0.003596946,0.025999932,0.017190991,inf,inf,inf,inf,1,1,1,1,2,1,2,3,0,0,0
67455076,0,0.0,0.0,0.22908954,-0.22779895,-0.6377509,0.2587614,0.22107713,-0.25555706,0.046883848,0.049080115,0.04641022,0.04574247,-0.0005205387,0.00018896293,-0.000707599,2.5333605,-2.9676082,1.730019,3.0158877,0.0,0.7016344,-0.04641022,0.0053080325,0.0036359103,0.026158148,0.01728473,inf,inf,inf,inf,1,1,1,1,2,1,2,3,0,0,0
67551090,0,0.0,0.0,0.23384611,-0.22107856,-0.63286126,0.2587614,0.22107713,-0.25555706,0.04837809,0.07275025,0.04778653,0.047487453,-0.0005205387,0.00018896293,-0.000707599,-1.3467069,0.6263841,1.5621471,3.0162096,0.0,0.6967448,-0.04778653,0.0052389773,0.0035909715,0.026027847,0.017209979,inf,inf,inf,inf,1,1,1,1,2,1,2,3,0,0,0
67655083,0,0.0,0.0,0.24019417,-0.21063375,-0.6280061,0.2587614,0.22107713,-0.25555706,0.06569816,0.09402634,0.040101454,0.039935064,-0.0005205387,0.00018896293,-0.000707599,1.2937642,-5.4498034,-1.2933334,3.0174646,0.0,0.69188964,-0.040101454,0.005328472,0.003648359,0.02627787,0.017357655,inf,inf,inf,inf,1,1,1,1,2,1,2,3,0,0,0
67759070,0,0.0,0.0,0.24756801,-0.19739483,-0.623739,0.2587614,0.22107713,-0.25555706,0.06487478,0.11871621,0.035396244,0.034944564,-0.0005205387,0.00018896293,-0.000707599,-2.8297977,-0.5300764,0.5358075,3.0193124,0.0,0.68762255,-0.035396244,0.00539718,0.0036932805,0.026405009,0.01742679,inf,inf,inf,inf,1,1,1,1,2,1,2,3,0,0,0
67863105,0,0.0,0.0,0.25592044,-0.1812441,-0.6211198,0.2587614,0.22107713,-0.25555706,0.08174291,0.14308576,0.020845247,0.019636549,-0.0005205387,0.00018896293,-0.000707599,2.0856962,0.020268846,-2.0834274,3.0214891,0.0,0.6850033,-0.020845247,0.005095479,0.0034989505,0.025632178,0.016969604,inf,inf,inf,inf,1,1,1,1,2,1,2,3,0,0,0
67967070,0,0.0,0.0,0.26550847,-0.16339172,-0.6200991,0.2587614,0.22107713,-0.25555706,0.08307104,0.1590728,0.027780281,0.025400955,-0.0005205387,0.00018896293,-0.000707599,-1.3043971,5.656849,2.457489,3.0246093,0.0,0.6839826,-0.027780281,0.0051582144,0.0035392276,0.025790025,0.017056702,inf,inf,inf,inf,1,1,1,1,2,1,2,3,0,0,0
68071077,0,0.0,0.0,0.27527794,-0.14564697,-0.6200864,0.2587614,0.22107713,-0.25555706,0.0910284,0.15075803,0.007775424,0.0040099565,-0.0005205387,0.00018896293,-0.000707599,1.3487388,-1.1040788,-0.43122932,3.029793,0.0,0.68396986,-0.007775424,0.005224366,0.0035808738,0.02601189,0.01717505,inf,inf,inf,inf,1,1,1,1,2,1,2,3,0,0,0
68167080,0,0.0,0.0,0.2840986,-0.12921925,-0.6214515,0.2587614,0.22107713,-0.25555706,0.08185539,0.16442174,0.0042974115,-0.0006677368,-0.0005205387,0.00018896293,-0.000707599,-1.3460535,-0.44012806,0.9731935,3.0347164,0.0,0.68533504,-0.0042974115,0.005154546,0.0035356346,0.025817644,0.017075157,inf,inf,inf,inf,1,1,1,1,2,1,2,3,0,0,0
68271072,0,0.0,0.0,0.29258898,-0.11124066,-0.6249045,0.2587614,0.22107713,-0.25555706,0.076516174,0.16940784,-0.024342608,-0.030381843,-0.0005205387,0.00018896293,-0.000707599,-1.0929507,-2.8100038,-1.8045458,3.0407069,0.0,0.68878806,0.024342608,0.0052346312,0.0035874613,0.02601329,0.0171846,inf,inf,inf,inf,1,1,1,1,2,1,2,3,0,0,0
68375086,0,0.0,0.0,0.29927835,-0.0937704,-0.6300903,0.2587614,0.22107713,-0.25555706,0.06399163,0.18843417,-0.03785558,-0.044849325,-0.0005205387,0.00018896293,-0.000707599,-3.4711876,1.7242413,0.47997874,3.0468812,0.0,0.6939738,0.03785558,0.005323949,0.0036443437,0.026263928,0.017329037,inf,inf,inf,inf,1,1,1,1,2,1,2,3,0,0,0
68479107,0,0.0,0.0,0.30413958,-0.07598825,-0.63637304,0.2587614,0.22107713,-0.25555706,0.05308131,0.20204608,-0.034483902,-0.042339046,-0.0005205387,0.00018896293,-0.000707599,-0.52184165,3.174101,0.25615972,3.0530097,0.0,0.7002566,0.034483902,0.005417386,0.0037038086,0.026524628,0.017481,inf,inf,inf,inf,1,1,1,1,2,1,2,3,0,0,0
68583078,0,0.0,0.0,0.30734825,-0.058016196,-0.6426072,0.2587614,0.22107713,-0.25555706,0.040054232,0.20355883,-0.042989347,-0.05141312,-0.0005205387,0.00018896293,-0.000707599,-3.5799332,-0.59782344,-2.524907,3.0579143,0.0,0.70649076,0.042989347,0.005121607,0.0035140938,0.025728503,0.017015684,inf,inf,inf,inf,1,1,1,1,2,1,2,3,0,0,0
68679076,0,0.0,0.0,0.30876923,-0.039874803,-0.6466708,0.2587614,0.22107713,-0.25555706,0.030647019,0.21626742,-0.011679623,-0.020119067,-0.0005205387,0.00018896293,-0.000707599,1.3559275,-2.275491,2.9526787,3.0599127,0.0,0.71055436,0.011679623,0.005422609,0.0037075493,0.026518365,0.017476104,inf,inf,inf,inf,1,1,1,1,2,1,2,3,0,0,0
68783087,0,0.0,0.0,0.30881524,-0.019198786,-0.6483133,0.2587614,0.22107713,-0.25555706,0.025345601,0.22393452,0.003442068,-0.004154273,-0.0005205387,0.00018896293,-0.000707599,-0.43699083,1.2943109,-1.9169587,3.0613668,0.0,0.7121968,-0.003442068,0.0051212395,0.0035146733,0.0256927,0.01701499,inf,inf,inf,inf,1,1,1,1,2,1,2,3,0,0,0
68887119,0,0.0,0.0,0.30733436,0.0032008719,-0.64655364,0.2587614,0.22107713,-0.25555706,0.010192008,0.23274224,0.024904141,0.01913153,-0.0005205387,0.00018896293,-0.000707599,-0.37575427,0.17847432,2.0013754,3.060921,0.0,0.7104372,-0.024904141,0.0051734806,0.0035496163,0.025803529,0.017092068,inf,inf,inf,inf,1,1,1,1,2,1,2,3,0,0,0
68983107,0,0.0,0.0,0.30477658,0.023963746,-0.6423114,0.2587614,0.22107713,-0.25555706,-0.00033485633,0.22084291,0.033518024,0.029929811,-0.0005205387,0.00018896293,-0.000707599,-1.4847184,-3.4292207,-0.74193025,3.0615442,0.0,0.7061949,-0.033518024,0.0057713743,0.00393775,0.027147653,0.017880818,inf,inf,inf,inf,1,1,1,1,2,1,2,3,0,0,0
69495070,0,0.0,0.0,0.29771084,0.122701354,-0.6083262,0.2587614,0.22107713,-0.25555706,0.014019323,0.15092185,0.051638927,0.052764386,-0.0005205387,0.00018896293,-0.000707599,-0.08116644,-1.8688136,-0.75685626,3.041006,0.0,0.67220974,-0.051638927,0.005315161,0.0036403562,0.026309654,0.017381892,inf,inf,inf,inf,1,1,1,1,2,1,2,3,0,0,0
69906270,0,0.0,0.0,0.31486,0.15080376,-0.5933779,0.2587614,0.22107713,-0.25555706,0.028967962,0.058056787,0.044525966,0.040143255,-0.0005205387,0.00018896293,-0.000707599,-0.5758774,0.9132178,1.5523702,3.031636,0.0,0.6572614,-0.044525966,0.0051617236,0.0035439695,0.025910646,0.017176712,inf,inf,inf,inf,1,1,1,1,2,1,2,3,0,0,0
70010316,0,0.0,0.0,0.32149288,0.15194027,-0.592077,0.2587614,0.22107713,-0.25555706,0.04180526,0.051655747,0.022714904,0.017269736,-0.0005205387,0.00018896293,-0.000707599,0.64902854,-1.4910637,-0.8067947,3.0345888,0.0,0.65596056,-0.022714904,0.0052320524,0.0035891219,0.026057705,0.017244374,inf,inf,inf,inf,1,1,1,1,2,1,2,3,0,0,0
70106270,0,0.0,0.0,0.32778063,0.155393,-0.59268355,0.2587614,0.22107713,-0.25555706,0.03994582,0.07556244,0.017210837,0.01076269,-0.0005205387,0.00018896293,-0.000707599,-0.34870884,2.0631819,0.6346235,3.0384004,0.0,0.6565671,-0.017210837,0.005180461,0.0035556918,0.025909085,0.017153496,inf,inf,inf,inf,1,1,1,1,2,1,2,3,0,0,0
70210270,0,0.0,0.0,0.33380648,0.1614054,-0.5941145,0.2587614,0.22107713,-0.25555706,0.039876934,0.08492688,0.011741932,0.004065073,-0.0005205387,0.00018896293,-0.000707599,0.28675622,2.164716,-0.41166675,3.0442867,0.0,0.65799797,-0.011741932,0.005257418,0.0036039469,0.026135376,0.017252998,inf,inf,inf,inf,1,1,1,1,2,1,2,3,0,0,0
70314282,0,0.0,0.0,0.33894077,0.17144546,-0.5961404,0.2587614,0.22107713,-0.25555706,0.045438837,0.123463005,0.0012751245,-0.0073986324,-0.0005205387,0.00018896293,-0.000707599,1.6713562,-1.244471,-2.1592512,3.0524044,0.0,0.6600239,-0.0012751245,0.005300433,0.0036312635,0.026169581,0.017287567,inf,inf,inf,inf,1,1,1,1,2,1,2,3,0,0,0
70410272,0,0.0,0.0,0.3428467,0.18613423,-0.59851485,0.2587614,0.22107713,-0.25555706,0.03461581,0.18579353,0.0013743838,-0.0077519673,-0.0005205387,0.00018896293,-0.000707599,1.7483765,3.4346895,1.1884996,3.0591748,0.0,0.66239834,-0.0013743838,0.005238046,0.0035901312,0.026044805,0.01722154,inf,inf,inf,inf,1,1,1,1,2,1,2,3,0,0,0
70514272,0,0.0,0.0,0.3459399,0.20851381,-0.6003801,0.2587614,0.22107713,-0.25555706,0.045053888,0.20083378,-0.0011088101,-0.010263289,-0.0005205387,0.00018896293,-0.000707599,7.3276715,-1.0195966,-3.0641398,3.0660496,0.0,0.6642636,0.0011088101,0.0053074183,0.0036350251,0.026214186,0.01730966,inf,inf,inf,inf,1,1,1,1,2,1,2,3,0,0,0
70618276,0,0.0,0.0,0.3479747,0.23476902,-0.6012564,0.2587614,0.22107713,-0.25555706,0.014739259,0.22209196,0.015200198,0.0065645594,-0.0005205387,0.00018896293,-0.000707599,-2.3427484,0.70665747,1.4734883,3.0739973,0.0,0.6651399,-0.015200198,0.005393705,0.0036896896,0.026454257,0.017457027,inf,inf,inf,inf,1,1,1,1,2,1,2,3,0,0,0
70722274,0,0.0,0.0,0.34850714,0.2650806,-0.600405,0.2587614,0.22107713,-0.25555706,0.011041908,0.23490423,0.015963057,0.008419527,-0.0005205387,0.00018896293,-0.000707599,3.7946267,-2.3875785,-0.6598511,3.0830207,0.0,0.6642885,-0.015963057,0.005466716,0.003737693,0.026622482,0.017572055,inf,inf,inf,inf,1,1,1,1,2,1,2,3,0,0,0
70818270,0,0.0,0.0,0.34753385,0.29486522,-0.5987094,0.2587614,0.22107713,-0.25555706,-0.0049531804,0.2328985,0.013299915,0.0072496855,-0.0005205387,0.00018896293,-0.000707599,-4.9429336,-1.6147889,1.8409046,3.0907998,0.0,0.6625929,-0.013299915,0.0053790202,0.003682505,0.026388885,0.017438598,inf,inf,inf,inf,1,1,1,1,2,1,2,3,0,0,0
70922286,0,0.0,0.0,0.34550926,0.32666346,-0.59725404,0.2587614,0.22107713,-0.25555706,0.0020280792,0.20153627,0.00069698086,-0.0036817302,-0.0005205387,0.00018896293,-0.000707599,3.072326,-2.3082743,-0.9881391,3.0971782,0.0,0.6611376,-0.00069698086,0.005474708,0.00374335,0.026659789,0.017577536,inf,inf,inf,inf,1,1,1,1,2,1,2,3,0,0,0
71026286,0,0.0,0.0,0.34280995,0.3553039,-0.5974049,0.2587614,0.22107713,-0.25555706,-0.008454988,0.19677266,-0.021353032,-0.02472815,-0.0005205387,0.00018896293,-0.000707599,-3.3904362,2.922674,-1.2946715,3.1002467,0.0,0.6612884,0.021353032,0.005141453,0.0035290832,0.02577804,0.017036783,inf,inf,inf,inf,1,1,1,1,2,1,2,3,0,0,0
71130270,0,0.0,0.0,0.34049404,0.37781233,-0.5994356,0.2587614,0.22107713,-0.25555706,-0.011905108,0.14938879,-0.019122591,-0.022453208,-0.0005205387,0.00018896293,-0.000707599,0.4932276,-2.7082815,2.9561746,3.1006129,0.0,0.6633191,0.019122591,0.005198966,0.0035646262,0.025968947,0.017126124,inf,inf,inf,inf,1,1,1,1,2,1,2,3,0,0,0
71226276,0,0.0,0.0,0.33830363,0.3913958,-0.60258365,0.2587614,0.22107713,-0.25555706,-0.017980123,0.11820517,-0.03494824,-0.03892345,-0.0005205387,0.00018896293,-0.000707599,-5.2407665,1.7235184,-1.9592662,3.0998814,0.0,0.6664672,0.03494824,0.0051454324,0.003527279,0.025893515,0.017072093,inf,inf,inf,inf,1,1,1,1,2,1,2,3,0,0,0
71330310,0,0.0,0.0,0.33606794,0.39792615,-0.6067273,0.2587614,0.22107713,-0.25555706,-0.017839814,0.064705096,-0.024191627,-0.02902261,-0.0005205387,0.00018896293,-0.000707599,-0.9545142,-1.6682397,1.8461548,3.0974422,0.0,0.6706108,0.024191627,0.0052578226,0.003596916,0.026215054,0.01725318,inf,inf,inf,inf,1,1,1,1,2,1,2,3,0,0,0
71434270,0,0.0,0.0,0.3341584,0.39739838,-0.610654,0.2587614,0.22107713,-0.25555706,-0.007068006,0.035489753,-0.027437454,-0.03276218,-0.0005205387,0.00018896293,-0.000707599,1.5994948,1.3602824,-1.9751667,3.094176,0.0,0.67453754,0.027437454,0.005327804,0.0036419993,0.026342772,0.017326087,inf,inf,inf,inf,1,1,1,1,2,1,2,3,0,0,0
71538325,0,0.0,0.0,0.33285657,0.3906409,-0.6139609,0.2587614,0.22107713,-0.25555706,-0.016383283,-0.008868126,-0.020831905,-0.026040297,-0.0005205387,0.00018896293,-0.000707599,-3.7220898,-0.3078754,1.0908295,3.0914166,0.0,0.6778444,0.020831905,0.0053709894,0.0036708945,0.026377257,0.017366705,inf,inf,inf,inf,1,1,1,1,2,1,2,3,0,0,0
71642320,0,0.0,0.0,0.33226225,0.37967637,-0.6161013,0.2587614,0.22107713,-0.25555706,-0.0053861346,-0.05168021,-0.02076773,-0.025291394,-0.0005205387,0.00018896293,-0.000707599,1.0051439,-3.6388776,-1.874143,3.0898292,0.0,0.6799848,0.02076773,0.005441291,0.0037159882,0.026585558,0.017499287,inf,inf,inf,inf,1,1,1,1,2,1,2,3,0,0,0
71738270,0,0.0,0.0,0.33205086,0.3647989,-0.616902,0.2587614,0.22107713,-0.25555706,-0.006962365,-0.11106463,-0.008400107,-0.012016081,-0.0005205387,0.00018896293,-0.000707599,-0.095771335,-2.8586924,0.11747307,3.0902476,0.0,0.68078554,0.008400107,0.0053490126,0.0036585524,0.026317913,0.01735755,inf,inf,inf,inf,1,1,1,1,2,1,2,3,0,0,0
71842291,0,0.0,0.0,0.3321087,0.34354195,-0.6175207,0.2587614,0.22107713,-0.25555706,-0.0061588134,-0.18374029,-0.012794586,-0.015304511,-0.0005205387,0.00018896293,-0.000707599,2.4397633,-3.9497583,-0.22030504,3.0908518,0.0,0.68140423,0.012794586,0.0054261675,0.0037089244,0.026514532,0.017487075,inf,inf,inf,inf,1,1,1,1,2,1,2,3,0,0,0
71946315,0,0.0,0.0,0.33229354,0.313941,-0.61808616,0.2587614,0.22107713,-0.25555706,0.010843961,-0.30932897,-0.008463829,-0.010060298,-0.0005205387,0.00018896293,-0.000707599,3.7374582,-2.6254478,1.678842,3.0912664,0.0,0.68196964,0.008463829,0.005106352,0.003505418,0.025654757,0.016987128,inf,inf,inf,inf,1,1,1,1,2,1,2,3,0,0,0
72042313,0,0.0,0.0,0.33244947,0.2768321,-0.6184917,0.2587614,0.22107713,-0.25555706,-0.015539667,-0.42917967,-0.006494627,-0.007678429,-0.0005205387,0.00018896293,-0.000707599,-1.2609149,-2.2085345,2.5044556,3.0910926,0.0,0.6823752,0.006494627,0.005448033,0.0037239792,0.026611092,0.017555198,inf,inf,inf,inf,1,1,1,1,2,1,2,3,0,0,0
72146294,0,0.0,0.0,0.3320093,0.22194235,-0.6186162,0.2587614,0.22107713,-0.25555706,-0.008525576,-0.62121266,0.009032773,0.007849799,-0.0005205387,0.00018896293,-0.000707599,4.5137734,-6.127488,0.9555961,3.0892365,0.0,0.68249977,-0.009032773,0.0051330603,0.0035228096,0.025748087,0.017037727,inf,inf,inf,inf,1,1,1,1,2,1,2,3,0,0,0
72250298,0,0.0,0.0,0.33054957,0.14846265,-0.61838895,0.2587614,0.22107713,-0.25555706,-0.017701942,-0.7641484,-0.009114044,-0.010589282,-0.0005205387,0.00018896293,-0.000707599,-0.29629472,3.3668728,-2.865467,3.0902216,0.0,0.68227243,0.009114044,0.0052079232,0.0035710693,0.025938181,0.017150652,inf,inf,inf,inf,1,1,1,1,2,1,2,3,0,0,0
72346293,0,0.0,0.0,0.32852602,0.07029578,-0.61971736,0.2587614,0.22107713,-0.25555706,-0.029843371,-0.78296256,-0.008222576,-0.01009779,-0.0005205387,0.00018896293,-0.000707599,1.2810221,3.5544393,1.1238258,3.0947473,0.0,0.6836009,0.008222576,0.005143268,0.003529447,0.025774743,0.017060935,inf,inf,inf,inf,1,1,1,1,2,1,2,3,0,0,0
72450276,0,0.0,0.0,0.32554832,-0.021475159,-0.62082547,0.2587614,0.22107713,-0.25555706,-0.046231728,-0.86001915,0.0027103694,6.912628e-05,-0.0005205387,0.00018896293,-0.000707599,1.1656849,2.4046817,-0.94721925,3.0942435,0.0,0.68470895,-0.0027103694,0.00522988,0.0035848545,0.026021348,0.017212803,inf,inf,inf,inf,1,1,1,1,2,1,2,3,0,0,0
72554288,0,0.0,0.0,0.32205585,-0.11930205,-0.62232363,0.2587614,0.22107713,-0.25555706,-0.05406285,-0.80009544,-0.0032687664,-0.006303397,-0.0005205387,0.00018896293,-0.000707599,-1.543549,5.392262,1.8731065,3.090659,0.0,0.6862072,0.0032687664,0.0053073447,0.003635354,0.026209405,0.017369771,inf,inf,inf,inf,1,1,1,1,2,1,2,3,0,0,0
72658270,0,0.0,0.0,0.31806567,-0.2142188,-0.6237588,0.2587614,0.22107713,-0.25555706,-0.037623174,-0.7295853,-0.020448823,-0.023242636,-0.0005205387,0.00018896293,-0.000707599,1.4525684,-1.580106,-1.2676362,3.0853624,0.0,0.68764234,0.020448823,0.005355776,0.003667953,0.0263051,0.017357998,inf,inf,inf,inf,1,1,1,1,2,1,2,3,0,0,0
72754277,0,0.0,0.0,0.31440014,-0.29359394,-0.62617767,0.2587614,0.22107713,-0.25555706,-0.05071521,-0.6301656,-0.022692064,-0.025543094,-0.0005205387,0.00018896293,-0.000707599,-2.2330701,-0.30955297,-1.424272,3.0768173,0.0,0.6900612,0.022692064,0.005274504,0.0036142007,0.026111715,0.017238133,inf,inf,inf,inf,1,1,1,1,2,1,2,3,0,0,0
72858273,0,0.0,0.0,0.30981588,-0.360226,-0.62926286,0.2587614,0.22107713,-0.25555706,-0.047115926,-0.5119621,-0.021608053,-0.025055913,-0.0005205387,0.00018896293,-0.000707599,-0.6861541,-1.821869,2.2563596,3.0642893,0.0,0.69314635,0.021608053,0.005361665,0.0036682538,0.026404563,0.017393293,inf,inf,inf,inf,1,1,1,1,2,1,2,3,0,0,0
72962278,0,0.0,0.0,0.3049786,-0.4013398,-0.6324448,0.2587614,0.22107713,-0.25555706,-0.048774578,-0.36132187,-0.0038861448,-0.008061882,-0.0005205387,0.00018896293,-0.000707599,-1.3373431,2.062816,1.5806568,3.050695,0.0,0.6963283,0.0038861448,0.0054340363,0.0037141189,0.026567018,0.017495466,inf,inf,inf,inf,1,1,1,1,2,1,2,3,0,0,0
73058276,0,0.0,0.0,0.2993133,-0.41530162,-0.6339516,0.2587614,0.22107713,-0.25555706,-0.050858095,-0.23347756,-0.0038515672,-0.008368495,-0.0005205387,0.00018896293,-0.000707599,-2.7865894,-0.32514638,-1.6482165,3.040624,0.0,0.6978351,0.0038515672,0.0053843996,0.0036813552,0.026477328,0.01744748,inf,inf,inf,inf,1,1,1,1,2,1,2,3,0,0,0
73162280,0,0.0,0.0,0.29192996,-0.40702686,-0.63287556,0.2587614,0.22107713,-0.25555706,-0.054597735,-0.10073354,0.020091306,0.015991174,-0.0005205387,0.00018896293,-0.000707599,-0.009854739,1.1871926,-0.2014199,3.0312717,0.0,0.6967591,-0.020091306,0.0050811577,0.0034880834,0.025606662,0.016960204,inf,inf,inf,inf,1,1,1,1,2,1,2,3,0,0,0
73266270,0,0.0,0.0,0.28393725,-0.37993518,-0.6298769,0.2587614,0.22107713,-0.25555706,-0.06317645,0.016379416,0.032947805,0.029989582,-0.0005205387,0.00018896293,-0.000707599,0.6218584,1.1002916,-1.514053,3.0236213,0.0,0.6937604,-0.032947805,0.005153206,0.0035357324,0.025769163,0.017064912,inf,inf,inf,inf,1,1,1,1,2,1,2,3,0,0,0
73362304,0,0.0,0.0,0.2759111,-0.34395385,-0.625457,0.2587614,0.22107713,-0.25555706,-0.06092967,0.096014515,0.03398367,0.032304093,-0.0005205387,0.00018896293,-0.000707599,1.7090335,-1.1524316,-1.1652764,3.0174005,0.0,0.6893405,-0.03398367,0.0050751707,0.0034861553,0.025575137,0.016950218,inf,inf,inf,inf,1,1,1,1,2,1,2,3,0,0,0
73466273,0,0.0,0.0,0.2664664,-0.30094537,-0.61958593,0.2587614,0.22107713,-0.25555706,-0.061603088,0.14982775,0.04155105,0.041069068,-0.0005205387,0.00018896293,-0.000707599,3.2151437,0.5931298,-1.3013109,3.012289,0.0,0.6834694,-0.04155105,0.005149483,0.0035343177,0.025778502,0.017064014,inf,inf,inf,inf,1,1,1,1,2,1,2,3,0,0,0
73570285,0,0.0,0.0,0.2570066,-0.25970453,-0.6147772,0.2587614,0.22107713,-0.25555706,-0.063993596,0.18530962,0.03300987,0.032916047,-0.0005205387,0.00018896293,-0.000707599,-2.8283353,-1.0747719,0.16761537,3.0086932,0.0,0.67866075,-0.03300987,0.0052345404,0.0035882771,0.026045252,0.017208239,inf,inf,inf,inf,1,1,1,1,2,1,2,3,0,0,0
73666282,0,0.0,0.0,0.2487288,-0.22694023,-0.6113512,0.2587614,0.22107713,-0.25555706,-0.053778987,0.17278193,0.024969365,0.02452489,-0.0005205387,0.00018896293,-0.000707599,-1.6658776,-3.5969949,0.6697955,3.0060134,0.0,0.6752347,-0.024969365,0.0051572197,0.0035382025,0.025840538,0.01706931,inf,inf,inf,inf,1,1,1,1,2,1,2,3,0,0,0
73770270,0,0.0,0.0,0.24204028,-0.20156436,-0.60941684,0.2587614,0.22107713,-0.25555706,-0.0400918,0.13650246,0.023963962,0.022309843,-0.0005205387,0.00018896293,-0.000707599,2.1787844,-4.4688044,-0.88149285,3.0035498,0.0,0.6733004,-0.023963962,0.0052075246,0.0035693455,0.025963088,0.01712265,inf,inf,inf,inf,1,1,1,1,2,1,2,3,0,0,0
73874301,0,0.0,0.0,0.23837481,-0.18811786,-0.60937095,0.2587614,0.22107713,-0.25555706,-0.02979235,0.12625201,0.009350139,0.005919705,-0.0005205387,0.00018896293,-0.000707599,-2.0279698,-1.9239036,1.5537552,3.0043306,0.0,0.6732545,-0.009350139,0.0052940426,0.0036223147,0.026248666,0.01727305,inf,inf,inf,inf,1,1,1,1,2,1,2,3,0,0,0
73970270,0,0.0,0.0,0.23780487,-0.18411085,-0.6118416,0.2587614,0.22107713,-0.25555706,-0.01735305,0.109731026,-0.0110185165,-0.016351767,-0.0005205387,0.00018896293,-0.000707599,-2.1010232,3.0056283,1.5549713,3.006256,0.0,0.6757251,0.0110185165,0.005240408,0.0035862168,0.02614756,0.017211914,inf,inf,inf,inf,1,1,1,1,2,1,2,3,0,0,0
74074269,0,0.0,0.0,0.23952648,-0.18898734,-0.61735594,0.2587614,0.22107713,-0.25555706,-0.0032372691,0.07131312,-0.028422005,-0.035964012,-0.0005205387,0.00018896293,-0.000707599,1.9697751,4.7560353,-2.4779353,3.009333,0.0,0.6812395,0.028422005,0.0053005936,0.0036243913,0.026265854,0.017260699,inf,inf,inf,inf,1,1,1,1,2,1,2,3,0,0,0
74178270,0,0.0,0.0,0.24211521,-0.19917181,-0.6256926,0.2587614,0.22107713,-0.25555706,0.0009414421,0.058805726,-0.04804462,-0.057760544,-0.0005205387,0.00018896293,-0.000707599,1.3365079,-1.483363,1.3483219,3.0152013,0.0,0.68957615,0.04804462,0.0053750155,0.0036708638,0.02645026,0.017377026,inf,inf,inf,inf,1,1,1,1,2,1,2,3,0,0,0
74274270,0,0.0,0.0,0.24421981,-0.21135126,-0.6345909,0.2587614,0.22107713,-0.25555706,0.0058482117,0.050344598,-0.05069499,-0.062166423,-0.0005205387,0.00018896293,-0.000707599,2.452984,1.2213387,1.4465537,3.0207765,0.0,0.6984744,0.05069499,0.0053044604,0.0036259664,0.026264837,0.017281571,inf,inf,inf,inf,1,1,1,1,2,1,2,3,0,0,0
74378292,0,0.0,0.0,0.24580736,-0.22356777,-0.64532673,0.2587614,0.22107713,-0.25555706,-0.0014415733,0.08063787,-0.06717424,-0.07992361,-0.0005205387,0.00018896293,-0.000707599,-1.0109166,0.5885042,-0.84563243,3.0271654,0.0,0.7092103,0.06717424,0.005359882,0.0036623154,0.026375279,0.01735602,inf,inf,inf,inf,1,1,1,1,2,1,2,3,0,0,0
74482301,0,0.0,0.0,0.24687672,-0.22767912,-0.6555791,0.2587614,0.22107713,-0.25555706,0.0058025206,0.1407847,-0.06490273,-0.07808152,-0.0005205387,0.00018896293,-0.000707599,-2.702977,3.8939495,0.89074147,3.0328233,0.0,0.71946263,0.06490273,0.005432312,0.0037099235,0.02655584,0.017476123,inf,inf,inf,inf,1,1,1,1,2,1,2,3,0,0,0
74586323,0,0.0,0.0,0.2477144,-0.22115587,-0.66476375,0.2587614,0.22107713,-0.25555706,0.017303085,0.20475872,-0.056621738,-0.06936724,-0.0005205387,0.00018896293,-0.000707599,-0.7434361,3.0534346,1.6843966,3.0375419,0.0,0.72864723,0.056621738,0.0051254486,0.003514848,0.025731716,0.017008564,inf,inf,inf,inf,1,1,1,1,2,1,2,3,0,0,0
74690275,0,0.0,0.0,0.24908052,-0.20061229,-0.6715975,0.2587614,0.22107713,-0.25555706,0.024599496,0.2775078,-0.044394393,-0.056020323,-0.0005205387,0.00018896293,-0.000707599,0.61369514,-3.8336298,-2.1252193,3.0369377,0.0,0.735481,0.044394393,0.005204584,0.0035668975,0.025918934,0.017141283,inf,inf,inf,inf,1,1,1,1,2,1,2,3,0,0,0
74786270,0,0.0,0.0,0.2502123,-0.17222998,-0.67387617,0.2587614,0.22107713,-0.25555706,0.017555622,0.3278377,0.00017372188,-0.009805536,-0.0005205387,0.00018896293,-0.000707599,-2.4178448,1.628324,-0.4193586,3.032843,0.0,0.7377597,-0.00017372188,0.0051410813,0.0035274627,0.025735598,0.017049706,inf,inf,inf,inf,1,1,1,1,2,1,2,3,0,0,0
74890290,0,0.0,0.0,0.25134498,-0.13419057,-0.6715074,0.2587614,0.22107713,-0.25555706,0.034279373,0.37333232,0.02727173,0.020017497,-0.0005205387,0.00018896293,-0.000707599,2.3421264,2.0817409,-0.64989597,3.0337038,0.0,0.7353909,-0.02727173,0.0052092723,0.0035738354,0.025869887,0.017166652,inf,inf,inf,inf,1,1,1,1,2,1,2,3,0,0,0
74994270,0,0.0,0.0,0.25323778,-0.088502586,-0.66481405,0.2587614,0.22107713,-0.25555706,0.02822596,0.379814,0.045709904,0.042297795,-0.0005205387,0.00018896293,-0.000707599,-1.447171,1.2425216,1.4628509,3.0350184,0.0,0.72869754,-0.045709904,0.005288102,0.0036276698,0.026078219,0.017321192,inf,inf,inf,inf,1,1,1,1,2,1,2,3,0,0,0
75097495,0,0.0,0.0,0.25649515,-0.040225636,-0.6554205,0.2587614,0.22107713,-0.25555706,0.0444206,0.36199316,0.057145435,0.057805765,-0.0005205387,0.00018896293,-0.000707599,1.7780565,0.31773248,-1.3799496,3.0381124,0.0,0.71930397,-0.057145435,0.005394162,0.00369642,0.026394835,0.017465299,inf,inf,inf,inf,1,1,1,1,2,1,2,3,0,0,0
75194270,0,0.0,0.0,0.26114163,0.004466036,-0.6458569,0.2587614,0.22107713,-0.25555706,0.05395819,0.3367186,0.05236516,0.05581842,-0.0005205387,0.00018896293,-0.000707599,-0.83213884,-1.0745424,-1.5373768,3.0446892,0.0,0.7097404,-0.05236516,0.0053064395,0.0036398107,0.026129628,0.017298866,inf,inf,inf,inf,1,1,1,1,2,1,2,3,0,0,0
75294279,0,0.0,0.0,0.26714897,0.044528183,-0.6363663,0.2587614,0.22107713,-0.25555706,0.06686927,0.30382812,0.06396394,0.0687416,-0.0005205387,0.00018896293,-0.000707599,1.4523559,2.5094132,-0.7129434,3.0524461,0.0,0.7002498,-0.06396394,0.0052392967,0.0035945317,0.025984667,0.017196791,inf,inf,inf,inf,1,1,1,1,2,1,2,3,0,0,0
75397470,0,0.0,0.0,0.27487737,0.075682014,-0.6274142,0.2587614,0.22107713,-0.25555706,0.07901705,0.23251139,0.07803058,0.08259704,-0.0005205387,0.00018896293,-0.000707599,2.1038187,-1.1377132,2.8919325,3.0590365,0.0,0.69129777,-0.07803058,0.005331332,0.0036525172,0.026265126,0.017346654,inf,inf,inf,inf,1,1,1,1,2,1,2,3,0,0,0
75502308,0,0.0,0.0,0.28438395,0.09221924,-0.62023103,0.2587614,0.22107713,-0.25555706,0.08772806,0.15368252,0.06285216,0.06588482,-0.0005205387,0.00018896293,-0.000707599,0.1748845,-0.39477065,2.6149788,3.065202,0.0,0.6841146,-0.06285216,0.0051073125,0.0035075552,0.025819946,0.01709736,inf,inf,inf,inf,1,1,1,1,2,1,2,3,0,0,0
75596695,0,0.0,0.0,0.29445565,0.093712054,-0.6161037,0.2587614,0.22107713,-0.25555706,0.10890314,0.080995284,0.044105466,0.045038156,-0.0005205387,0.00018896293,-0.000707599,2.244307,-2.2249918,-2.30488,3.06872,0.0,0.6799872,-0.044105466,0.005394969,0.0036935064,0.026488673,0.017489783,inf,inf,inf,inf,1,1,1,1,2,1,2,3,0,0,0
75701470,0,0.0,0.0,0.30683672,0.08152932,-0.6141627,0.2587614,0.22107713,-0.25555706,0.106869675,0.007979591,0.032349758,0.03038958,-0.0005205387,0.00018896293,-0.000707599,0.12623246,3.7021003,-0.8021166,3.0715904,0.0,0.6780462,-0.032349758,0.005447212,0.0037264947,0.026583852,0.017529681,inf,inf,inf,inf,1,1,1,1,2,1,2,3,0,0,0
75805499,0,0.0,0.0,0.31936193,0.058892544,-0.6143139,0.2587614,0.22107713,-0.25555706,0.100596674,-0.08046133,0.026670719,0.021582538,-0.0005205387,0.00018896293,-0.000707599,0.34797445,0.07940202,0.07949525,3.0718315,0.0,0.6781974,-0.026670719,0.005112941,0.003510036,0.025692878,0.01698453,inf,inf,inf,inf,1,1,1,1,2,1,2,3,0,0,0
75909510,0,0.0,0.0,0.33093572,0.027826376,-0.61729246,0.2587614,0.22107713,-0.25555706,0.09955523,-0.1434089,0.0008900319,-0.007106268,-0.0005205387,0.00018896293,-0.000707599,2.5778348,-1.9944168,-2.6076758,3.0724797,0.0,0.68117595,-0.0008900319,0.0052430793,0.0035914294,0.026158968,0.017254964,inf,inf,inf,inf,1,1,1,1,2,1,2,3,0,0,0
76005469,0,0.0,0.0,0.3404197,-0.0038499935,-0.62196255,0.2587614,0.22107713,-0.25555706,0.0838424,-0.18358003,-0.01403218,-0.024314286,-0.0005205387,0.00018896293,-0.000707599,-0.32704535,-3.946213,1.3648187,3.0742958,0.0,0.6858461,0.01403218,0.0051555755,0.0035354702,0.025874624,0.017085906,inf,inf,inf,inf,1,1,1,1,2,1,2,3,0,0,0
76109470,0,0.0,0.0,0.34851077,-0.03805006,-0.6289255,0.2587614,0.22107713,-0.25555706,0.0554209,-0.20331271,-0.0248736,-0.03727837,-0.0005205387,0.00018896293,-0.000707599,-3.1529617,-0.30298147,-2.3398132,3.0769196,0.0,0.692809,0.0248736,0.005231954,0.0035834208,0.026094474,0.01721168,inf,inf,inf,inf,1,1,1,1,2,1,2,3,0,0,0
76213482,0,0.0,0.0,0.35347936,-0.06956763,-0.6367565,0.2587614,0.22107713,-0.25555706,0.0422584,-0.22028367,-0.032299787,-0.046332438,-0.0005205387,0.00018896293,-0.000707599,-0.21844582,-2.4353833,1.7023113,3.0799017,0.0,0.70063996,0.032299787,0.0052997093,0.0036259668,0.026227908,0.0172755,inf,inf,inf,inf,1,1,1,1,2,1,2,3,0,0,0
76309511,0,0.0,0.0,0.3549884,-0.09476156,-0.6445607,0.2587614,0.22107713,-0.25555706,0.02580544,-0.2079913,-0.050114807,-0.06497282,-0.0005205387,0.00018896293,-0.000707599,-2.2394502,1.262319,1.4087348,3.082113,0.0,0.70844424,0.050114807,0.005189773,0.0035564336,0.025886575,0.01708909,inf,inf,inf,inf,1,1,1,1,2,1,2,3,0,0,0
76413519,0,0.0,0.0,0.35388756,-0.116392374,-0.6544591,0.2587614,0.22107713,-0.25555706,0.009149476,-0.19165365,-0.06252432,-0.077702776,-0.0005205387,0.00018896293,-0.000707599,0.6336716,-1.393464,-0.90215373,3.0843437,0.0,0.71834266,0.06252432,0.0052694334,0.0036067197,0.026142089,0.017233009,inf,inf,inf,inf,1,1,1,1,2,1,2,3,0,0,0
76517518,0,0.0,0.0,0.35076055,-0.13159765,-0.6653634,0.2587614,0.22107713,-0.25555706,-0.01174935,-0.15774694,-0.08639359,-0.101622194,-0.0005205387,0.00018896293,-0.000707599,-6.157495,4.75349,-0.20378074,3.087013,0.0,0.72924685,0.08639359,0.005355637,0.0036617375,0.02636832,0.017361855,inf,inf,inf,inf,1,1,1,1,2,1,2,3,0,0,0
76613476,0,0.0,0.0,0.3460064,-0.14027077,-0.6751456,0.2587614,0.22107713,-0.25555706,-0.020067334,-0.13605154,-0.06937854,-0.0844568,-0.0005205387,0.00018896293,-0.000707599,0.27399263,1.3967417,-0.39123857,3.0897481,0.0,0.73902917,0.06937854,0.0053100307,0.0036320647,0.026310738,0.017326385,inf,inf,inf,inf,1,1,1,1,2,1,2,3,0,0,0
76717470,0,0.0,0.0,0.33946416,-0.14342716,-0.6845097,0.2587614,0.22107713,-0.25555706,-0.03240673,-0.10832156,-0.052323446,-0.06689312,-0.0005205387,0.00018896293,-0.000707599,1.48193,-2.7363365,4.0892076,3.092822,0.0,0.7483932,0.052323446,0.0053548706,0.003661347,0.026341245,0.017351886,inf,inf,inf,inf,1,1,1,1,2,1,2,3,0,0,0
76821470,0,0.0,0.0,0.33161926,-0.14169917,-0.6903031,0.2587614,0.22107713,-0.25555706,-0.030026281,-0.07887797,-0.029974824,-0.043277904,-0.0005205387,0.00018896293,-0.000707599,1.6544762,-2.4495747,-1.3478212,3.096064,0.0,0.75418663,0.029974824,0.0050687385,0.0034779636,0.025608426,0.016928442,inf,inf,inf,inf,1,1,1,1,2,1,2,3,0,0,0
76917515,0,0.0,0.0,0.32390434,-0.13683939,-0.6920507,0.2587614,0.22107713,-0.25555706,-0.052859906,-0.051813427,0.011421089,7.711808e-05,-0.0005205387,0.00018896293,-0.000707599,2.5625892,-1.5038244,2.9754536,3.0998049,0.0,0.75593424,-0.011421089,0.005356312,0.0036635855,0.026313547,0.017362341,inf,inf,inf,inf,1,1,1,1,2,1,2,3,0,0,0
77021480,0,0.0,0.0,0.3157571,-0.12993914,-0.6893891,0.2587614,0.22107713,-0.25555706,-0.04628394,-0.027689246,0.024009617,0.015650624,-0.0005205387,0.00018896293,-0.000707599,1.8884228,1.6651233,-1.2603188,3.1014097,0.0,0.75327265,-0.024009617,0.005067251,0.0034788642,0.025571438,0.01692958,inf,inf,inf,inf,1,1,1,1,2,1,2,3,0,0,0
77125470,0,0.0,0.0,0.3088303,-0.12202215,-0.6832297,0.2587614,0.22107713,-0.25555706,-0.037780393,-0.0058841333,0.053024296,0.047999814,-0.0005205387,0.00018896293,-0.000707599,3.6108885,-0.25500467,1.0751586,3.1002922,0.0,0.7471132,-0.053024296,0.0051319804,0.0035218392,0.025707306,0.017021757,inf,inf,inf,inf,1,1,1,1,2,1,2,3,0,0,0
77221476,0,0.0,0.0,0.30363762,-0.11478423,-0.6755122,0.2587614,0.22107713,-0.25555706,-0.05617179,0.005809893,0.059009086,0.056762885,-0.0005205387,0.00018896293,-0.000707599,-3.1522307,5.1576967,2.1972282,3.0977776,0.0,0.73939574,-0.059009086,0.0054230127,0.0037095423,0.026454099,0.017454756,inf,inf,inf,inf,1,1,1,1,2,1,2,3,0,0,0
