timestamp,x,y,z,yaw,yawspeed,vx,vy,vz,acc_x,acc_y,acc_z,jerk_x,jerk_y,jerk_z,thrust[0],thrust[1],thrust[2]
43541198,nan,nan,nan,3.0650988,0.0,nan,nan,-0.7108435,0.0,0.0,0.0,0.0,0.0,0.0,5.0154855e-23,6.5393424e-22,-0.6741993
43561209,nan,nan,nan,3.0650988,0.0,nan,nan,-0.7108435,0.0,0.0,0.0,0.0,0.0,0.0,6.3966844e-23,8.3472576e-22,-0.6734017
43662791,nan,nan,nan,3.0666783,0.0,-0.17611018,-0.19318616,-0.00031,0.0,0.0,0.0,0.0,0.0,0.0,0.00058787677,0.0032366018,-0.5266086
43761499,0.15756932,-0.20629276,nan,3.0666783,0.0,0.00625612,0.012143799,-0.7108435,0.0,0.0,0.0,0.0,0.0,0.0,0.015503237,0.02232248,-0.6719821
43861656,0.15756932,-0.20629276,nan,3.0666783,0.0,0.021764427,0.042308785,-0.7108435,0.0,0.0,0.0,0.0,0.0,0.0,0.01580545,0.027843231,-0.67360663
43961605,0.15756932,-0.20629276,nan,3.0666783,0.0,0.035036955,0.06784812,-0.7108435,0.0,0.0,0.0,0.0,0.0,0.0,0.014043998,0.026326539,-0.6681038
44061751,0.15756932,-0.20629276,nan,3.0666783,0.0,0.047150448,0.091067955,-0.7108435,0.0,0.0,0.0,0.0,0.0,0.0,0.013908461,0.023242975,-0.6633307
44161724,0.15756932,-0.20629276,nan,3.0666783,0.0,0.055327218,0.108334094,-0.7108435,0.0,0.0,0.0,0.0,0.0,0.0,0.009307485,0.024004424,-0.65358555
44261825,0.15756932,-0.20629276,nan,3.0666783,0.0,0.0604322,0.12140941,-0.7108435,0.0,0.0,0.0,0.0,0.0,0.0,0.0058187265,0.026030365,-0.6475949
44361924,0.15756932,-0.20629276,nan,3.0666783,0.0,0.0612143,0.12835598,-0.7108435,0.0,0.0,0.0,0.0,0.0,0.0,0.004814636,0.026753375,-0.64340794
44482162,0.15756932,-0.20629276,nan,3.0666783,0.0,0.057457052,0.1312556,-0.7108435,0.0,0.0,0.0,0.0,0.0,0.0,0.0048729293,0.021141324,-0.6419106
44582740,0.15756932,-0.20629276,nan,3.0666783,0.0,0.051140804,0.12995896,-0.7108435,0.0,0.0,0.0,0.0,0.0,0.0,0.0032554772,0.01919548,-0.642681
44682788,0.15756932,-0.20629276,nan,3.0666783,0.0,0.043372083,0.12634519,-0.7108435,0.0,0.0,0.0,0.0,0.0,0.0,0.001170712,0.018552246,-0.6474136
44782735,0.15756932,-0.20629276,nan,3.0666783,0.0,0.034013458,0.1222618,-0.7108435,0.0,0.0,0.0,0.0,0.0,0.0,-0.0011028429,0.018785972,-0.6523679
44882729,0.15756932,-0.20629276,nan,3.0666783,0.0,0.025319846,0.11826004,-0.7108435,0.0,0.0,0.0,0.0,0.0,0.0,-0.0038221222,0.018298812,-0.65532196
44982821,0.15756932,-0.20629276,nan,3.0666783,0.0,0.01667388,0.11503916,-0.7108435,0.0,0.0,0.0,0.0,0.0,0.0,-0.0020974546,0.017222675,-0.6559545
45082836,0.15756932,-0.20629276,nan,3.0666783,0.0,0.009983761,0.11339238,-0.7108435,0.0,0.0,0.0,0.0,0.0,0.0,-0.00046419026,0.017037157,-0.65710366
45182856,0.15756932,-0.20629276,nan,3.0666783,0.0,0.004965904,0.11359589,-0.7108435,0.0,0.0,0.0,0.0,0.0,0.0,0.00041000545,0.01634103,-0.66018385
45282870,0.15756932,-0.20629276,nan,3.0666783,0.0,0.002705486,0.11606375,-0.7108435,0.0,0.0,0.0,0.0,0.0,0.0,-0.0011358514,0.020145535,-0.6640744
45383259,0.15756932,-0.20629276,nan,3.0666783,0.0,0.0021279596,0.120727874,-0.7108435,0.0,0.0,0.0,0.0,0.0,0.0,0.0011344191,0.019092213,-0.66717565
45484351,0.15756932,-0.20629276,nan,3.0666783,0.0,0.0036072016,0.126515,-0.7108435,0.0,0.0,0.0,0.0,0.0,0.0,0.0013095338,0.021653982,-0.668568
45583349,0.15756932,-0.20629276,nan,3.0666783,0.0,0.0064570657,0.13252616,-0.7108435,0.0,0.0,0.0,0.0,0.0,0.0,0.0018107081,0.022372596,-0.66723424
45683552,0.15756932,-0.20629276,nan,3.0666783,0.0,0.010466711,0.13889825,-0.7108435,0.0,0.0,0.0,0.0,0.0,0.0,0.0032062824,0.022256076,-0.6673554
45804349,0.15756932,-0.20629276,nan,3.0666783,0.0,0.015279475,0.14469028,-0.7108435,0.0,0.0,0.0,0.0,0.0,0.0,0.0071957996,0.018807966,-0.6658865
45903728,0.15756932,-0.20629276,nan,3.0666783,0.0,0.0185345,0.14776915,-0.7108435,0.0,0.0,0.0,0.0,0.0,0.0,0.0052018515,0.020892285,-0.6614504
46003573,0.15756932,-0.20629276,nan,3.0666783,0.0,0.020466922,0.14817339,-0.7108435,0.0,0.0,0.0,0.0,0.0,0.0,0.008141497,0.020142887,-0.65819347
46103759,0.15756932,-0.20629276,nan,3.0666783,0.0,0.020732038,0.1459506,-0.7108435,0.0,0.0,0.0,0.0,0.0,0.0,-0.00020330166,0.016615275,-0.66056263
46204000,0.15756932,-0.20629276,nan,3.0666783,0.0,0.01999776,0.14022374,-0.7108435,0.0,0.0,0.0,0.0,0.0,0.0,-0.0015220667,0.016725445,-0.6663625
46304010,0.15756932,-0.20629276,nan,3.0666783,0.0,0.01876666,0.1328665,-0.7108435,0.0,0.0,0.0,0.0,0.0,0.0,0.0052184393,0.014062639,-0.6692865
46404089,0.15756932,-0.20629276,nan,3.0666783,0.0,0.017072374,0.123878516,-0.7108435,0.0,0.0,0.0,0.0,0.0,0.0,0.003722413,0.010076135,-0.6721598
46504167,0.15756932,-0.20629276,nan,3.0666783,0.0,0.015699515,0.11325696,-0.7108435,0.0,0.0,0.0,0.0,0.0,0.0,0.004876308,0.008740341,-0.6752256
46604223,0.15756932,-0.20629276,nan,3.0666783,0.0,0.015216692,0.10184284,-0.7108435,0.0,0.0,0.0,0.0,0.0,0.0,0.007442739,0.0046478403,-0.67699665
46704299,0.15756932,-0.20629276,nan,3.0666783,0.0,0.01532384,0.09000087,-0.7108435,0.0,0.0,0.0,0.0,0.0,0.0,0.004951436,0.0011136318,-0.67790604
46824423,0.15756932,-0.20629276,nan,3.0666783,0.0,0.017714664,0.07345045,-0.7108435,0.0,0.0,0.0,0.0,0.0,0.0,0.0030520328,0.0036137397,-0.6800031
46924642,0.15756932,-0.20629276,nan,3.0666783,0.0,0.021138743,0.057996124,-0.7108435,0.0,0.0,0.0,0.0,0.0,0.0,0.0025798322,-0.00072389375,-0.6825435
47024697,0.15756932,-0.20629276,nan,3.0666783,0.0,0.025220202,0.043745913,-0.7108435,0.0,0.0,0.0,0.0,0.0,0.0,0.00790541,-0.0016075429,-0.6826515
47124844,0.15756932,-0.20629276,nan,3.0666783,0.0,0.029451687,0.028290449,-0.7108435,0.0,0.0,0.0,0.0,0.0,0.0,0.0045791683,-0.0027272524,-0.68271047
47224902,0.15756932,-0.20629276,nan,3.0666783,0.0,0.03293666,0.015080511,-0.7108435,0.0,0.0,0.0,0.0,0.0,0.0,0.0075125303,0.00068058353,-0.68072945
47324917,0.15756932,-0.20629276,nan,3.0666783,0.0,0.03639862,0.0027025982,-0.7108435,0.0,0.0,0.0,0.0,0.0,0.0,0.0079583945,0.00081416033,-0.6789665
47425016,0.15756932,-0.20629276,nan,3.0666783,0.0,0.03926884,-0.0065832674,-0.7108435,0.0,0.0,0.0,0.0,0.0,0.0,0.007531138,0.0017968547,-0.6812755
47525121,0.15756932,-0.20629276,nan,3.0666783,0.0,0.04120116,-0.0130488975,-0.7108435,0.0,0.0,0.0,0.0,0.0,0.0,0.0091039445,0.0029843086,-0.6805804
47625191,0.15756932,-0.20629276,nan,3.0666783,0.0,0.04174752,-0.01583026,-0.7108435,0.0,0.0,0.0,0.0,0.0,0.0,0.006419544,0.002735021,-0.6818721
47725371,0.15756932,-0.20629276,nan,3.0666783,0.0,0.04078779,-0.015864758,-0.7108435,0.0,0.0,0.0,0.0,0.0,0.0,0.004836368,0.0041655106,-0.67922676
47825758,0.15756932,-0.20629276,nan,3.0666783,0.0,0.03797536,-0.013683897,-0.7108435,0.0,0.0,0.0,0.0,0.0,0.0,0.00510976,0.005788573,-0.6803149
47925923,0.15756932,-0.20629276,nan,3.0666783,0.0,0.03352347,-0.009335199,-0.7108435,0.0,0.0,0.0,0.0,0.0,0.0,0.0035457471,0.0067991605,-0.68150926
48025925,0.15756932,-0.20629276,nan,3.0666783,0.0,0.028965255,-0.004048787,-0.7108435,0.0,0.0,0.0,0.0,0.0,0.0,0.004617621,0.0061912714,-0.6836868
48125919,0.15756932,-0.20629276,nan,3.0666783,0.0,0.023971505,0.0019731908,-0.7108435,0.0,0.0,0.0,0.0,0.0,0.0,0.0012671463,0.011851993,-0.68857735
48246371,0.15756932,-0.20629276,nan,3.0666783,0.0,0.018931692,0.008604051,-0.70525265,0.0,0.0,0.0,0.0,0.0,0.0,0.0035309836,0.012085318,-0.6927986
48346024,0.15756932,-0.20629276,nan,3.0666783,0.0,0.015982779,0.012443809,-0.702872,0.0,0.0,0.0,0.0,0.0,0.0,0.0036719611,0.011231894,-0.69510174
48446432,0.15756932,-0.20629276,nan,3.0666783,0.0,0.014413475,0.015577616,-0.7028112,0.0,0.0,0.0,0.0,0.0,0.0,0.0060932226,0.01077594,-0.7001792
48546519,0.15756932,-0.20629276,nan,3.0666783,0.0,0.014537723,0.01724434,-0.7028112,0.0,0.0,0.0,0.0,0.0,0.0,0.0059105586,0.01090237,-0.7033819
48646531,0.15756932,-0.20629276,nan,3.0666783,0.0,0.016713105,0.018320829,-0.7028112,0.0,0.0,0.0,0.0,0.0,0.0,0.0072196964,0.012295519,-0.7056657
48746610,0.15756932,-0.20629276,nan,3.0666783,0.0,0.020387195,0.018997617,-0.7028112,0.0,0.0,0.0,0.0,0.0,0.0,0.011473753,0.008932755,-0.7089218
48846616,0.15756932,-0.20629276,nan,3.0666783,0.0,0.025512157,0.019533016,-0.7011518,0.0,0.0,0.0,0.0,0.0,0.0,0.013360914,0.012057299,-0.7099968
48948007,0.15756932,-0.20629276,nan,3.0666783,0.0,0.031253908,0.02053078,-0.6948401,0.0,0.0,0.0,0.0,0.0,0.0,0.012555036,0.013133511,-0.70779175
49047044,0.15756932,-0.20629276,nan,3.0666783,0.0,0.036840573,0.02194264,-0.6947749,0.0,0.0,0.0,0.0,0.0,0.0,0.015528944,0.012671206,-0.7091315
49147552,0.15756932,-0.20629276,nan,3.0666783,0.0,0.042643894,0.024022821,-0.6947793,0.0,0.0,0.0,0.0,0.0,0.0,0.013343941,0.014860218,-0.70935696
49267550,0.15756932,-0.20629276,nan,3.0666783,0.0,0.049116086,0.027134418,-0.6947793,0.0,0.0,0.0,0.0,0.0,0.0,0.014716503,0.016311988,-0.71076655
49366997,0.15756932,-0.20629276,nan,3.0666783,0.0,0.0535207,0.02995498,-0.6947793,0.0,0.0,0.0,0.0,0.0,0.0,0.00921815,0.013775947,-0.70988816
49467193,0.15756932,-0.20629276,nan,3.0666783,0.0,0.057157,0.033539347,-0.6947793,0.0,0.0,0.0,0.0,0.0,0.0,0.014291876,0.01612917,-0.7096215
49567364,0.15756932,-0.20629276,nan,3.0666783,0.0,0.059505206,0.036839616,-0.6947793,0.0,0.0,0.0,0.0,0.0,0.0,0.009604771,0.012958234,-0.711768
49667336,0.15756932,-0.20629276,nan,3.0666783,0.0,0.060926832,0.03956969,-0.6947793,0.0,0.0,0.0,0.0,0.0,0.0,0.013431493,0.0148586165,-0.7125159
49767367,0.15756932,-0.20629276,nan,3.0666783,0.0,0.06089712,0.04024897,-0.6947793,0.0,0.0,0.0,0.0,0.0,0.0,0.012435224,0.01171286,-0.71489763
49867531,0.15756932,-0.20629276,nan,3.0666783,0.0,0.05983711,0.03987089,-0.6947793,0.0,0.0,0.0,0.0,0.0,0.0,0.012670974,0.0110592805,-0.715781
49967543,0.15756932,-0.20629276,nan,3.0666783,0.0,0.05825976,0.03721273,-0.6947793,0.0,0.0,0.0,0.0,0.0,0.0,0.01099379,0.007302971,-0.71622276
50067622,0.15756932,-0.20629276,nan,3.0666783,0.0,0.056502357,0.032760717,-0.68055046,0.0,0.0,0.0,0.0,0.0,0.0,0.008824792,0.009606509,-0.7118199
50187907,0.15756932,-0.20629276,nan,3.0666783,0.0,0.054955937,0.025709663,-0.6787607,0.0,0.0,0.0,0.0,0.0,0.0,0.013021061,0.0070867077,-0.71024436
50288038,0.15756932,-0.20629276,nan,3.0666783,0.0,0.054742336,0.019171355,-0.6787158,0.0,0.0,0.0,0.0,0.0,0.0,0.009019632,0.00580444,-0.71129936
50388159,0.15756932,-0.20629276,nan,3.0666783,0.0,0.055355225,0.011514419,-0.678715,0.0,0.0,0.0,0.0,0.0,0.0,0.0102887545,0.009238188,-0.71376127
50488234,0.15756932,-0.20629276,nan,3.0666783,0.0,0.05667348,0.0049725436,-0.670337,0.0,0.0,0.0,0.0,0.0,0.0,0.0122160185,0.003934713,-0.7143036
50588215,0.15756932,-0.20629276,nan,3.0666783,0.0,0.058822125,-0.00055405573,-0.67073596,0.0,0.0,0.0,0.0,0.0,0.0,0.014756122,0.0060929214,-0.719006
50688298,0.15756932,-0.20629276,nan,3.0666783,0.0,0.06128785,-0.004917193,-0.6706835,0.0,0.0,0.0,0.0,0.0,0.0,0.01095981,0.004130786,-0.7227674
50788704,0.15756932,-0.20629276,nan,3.0666783,0.0,0.06442745,-0.008379295,-0.67068267,0.0,0.0,0.0,0.0,0.0,0.0,0.013600758,0.006164703,-0.72592676
50888451,0.15756932,-0.20629276,nan,3.0666783,0.0,0.067542076,-0.010929446,-0.67068267,0.0,0.0,0.0,0.0,0.0,0.0,0.014637511,0.005321743,-0.72832716
50988777,0.15756932,-0.20629276,nan,3.0666783,0.0,0.07079693,-0.01392482,-0.58109254,0.0,0.0,0.0,0.0,0.0,0.0,0.017007912,0.00031637773,-0.709999
51088803,0.15756932,-0.20629276,nan,3.0666783,0.0,0.074004054,-0.017138071,-0.41810924,0.0,0.0,0.0,0.0,0.0,0.0,0.015299907,0.0050650644,-0.6800754
51188812,0.15756932,-0.20629276,nan,3.0666783,0.0,0.07750269,-0.021003537,-0.42158613,0.0,0.0,0.0,0.0,0.0,0.0,0.018660706,0.0009386968,-0.68662584
51288885,0.15756932,-0.20629276,nan,3.0666783,0.0,0.080748044,-0.02583932,-0.4216859,0.0,0.0,0.0,0.0,0.0,0.0,0.015344452,0.0019546659,-0.69179165
51388988,0.15756932,-0.20629276,nan,3.0666783,0.0,0.083911076,-0.0317004,-0.42168707,0.0,0.0,0.0,0.0,0.0,0.0,0.013051213,0.0014713425,-0.69557166
51489033,0.15756932,-0.20629276,nan,3.0666783,0.0,0.08650662,-0.037807878,-0.42168707,0.0,0.0,0.0,0.0,0.0,0.0,0.0184832,-0.00152859,-0.70087004
51609373,0.15756932,-0.20629276,nan,3.0666783,0.0,0.08968553,-0.046079334,-0.42168707,0.0,0.0,0.0,0.0,0.0,0.0,0.018481117,-0.0020567398,-0.70630056
51710382,0.15756932,-0.20629276,nan,3.0666783,0.0,0.09246543,-0.05285004,-0.42168707,0.0,0.0,0.0,0.0,0.0,0.0,0.01764394,0.0012854231,-0.7081847
51809725,0.15756932,-0.20629276,nan,3.0666783,0.0,0.0944784,-0.0582749,-0.42168707,0.0,0.0,0.0,0.0,0.0,0.0,0.018683434,0.001892163,-0.7056665
51909660,0.15756932,-0.20629276,nan,3.0666783,0.0,0.09516868,-0.062388025,-0.42168707,0.0,0.0,0.0,0.0,0.0,0.0,0.015425606,-0.0022497787,-0.70543337
52009709,0.15756932,-0.20629276,nan,3.0666783,0.0,0.09520058,-0.066063106,-0.42168707,0.0,0.0,0.0,0.0,0.0,0.0,0.016610354,-0.0013009282,-0.7034734
52109877,0.15756932,-0.20629276,nan,3.0666783,0.0,0.094832115,-0.06790497,-0.42168707,0.0,0.0,0.0,0.0,0.0,0.0,0.014492499,0.0011739959,-0.70008165
52210976,0.15756932,-0.20629276,nan,3.0666783,0.0,0.09351189,-0.06885329,-0.42168707,0.0,0.0,0.0,0.0,0.0,0.0,0.01626224,-1.3697427e-05,-0.6961276
52310303,0.15756932,-0.20629276,nan,3.0666783,0.0,0.09156487,-0.06878293,-0.42168707,0.0,0.0,0.0,0.0,0.0,0.0,0.01689161,-0.00093807233,-0.69606197
52411762,0.15756932,-0.20629276,nan,3.0666783,0.0,0.08852149,-0.0679165,-0.42168707,0.0,0.0,0.0,0.0,0.0,0.0,0.017951543,0.0021858942,-0.69776654
52531179,0.15756932,-0.20629276,nan,3.0666783,0.0,0.08423674,-0.06639928,-0.42168707,0.0,0.0,0.0,0.0,0.0,0.0,0.014216143,-0.0011145053,-0.69838846
52630409,0.15756932,-0.20629276,nan,3.0666783,0.0,0.08061931,-0.06453497,-0.42168707,0.0,0.0,0.0,0.0,0.0,0.0,0.011543347,0.0050053466,-0.700952
52730485,0.15756932,-0.20629276,nan,3.0666783,0.0,0.07686796,-0.06263965,-0.42168707,0.0,0.0,0.0,0.0,0.0,0.0,0.017134955,0.0009750421,-0.7056016
52830586,0.15756932,-0.20629276,nan,3.0666783,0.0,0.0742964,-0.060412318,-0.42168707,0.0,0.0,0.0,0.0,0.0,0.0,0.013639376,0.0065248557,-0.7056511
52930813,0.15756932,-0.20629276,nan,3.0666783,0.0,0.072374426,-0.058847897,-0.42168707,0.0,0.0,0.0,0.0,0.0,0.0,0.017055212,-0.00082651107,-0.7082366
53030680,0.15756932,-0.20629276,nan,3.0666783,0.0,0.07139614,-0.057054885,-0.42168707,0.0,0.0,0.0,0.0,0.0,0.0,0.018239357,0.0028891216,-0.7109131
53130970,0.15756932,-0.20629276,nan,3.0666783,0.0,0.07105002,-0.05518325,-0.42168707,0.0,0.0,0.0,0.0,0.0,0.0,0.012675671,0.0015228663,-0.711267
53230854,0.15756932,-0.20629276,nan,3.0666783,0.0,0.07103498,-0.053805564,-0.42168707,0.0,0.0,0.0,0.0,0.0,0.0,0.015744913,0.0013882793,-0.71416026
53351232,0.15756932,-0.20629276,nan,3.0666783,0.0,0.06998122,-0.051075857,-0.42168707,0.0,0.0,0.0,0.0,0.0,0.0,0.012009042,0.0054389434,-0.71416354
53451174,0.15756932,-0.20629276,nan,3.0666783,0.0,0.06798869,-0.048178554,-0.42168707,0.0,0.0,0.0,0.0,0.0,0.0,0.014352044,0.0048255078,-0.71273625
53551359,0.15756932,-0.20629276,nan,3.0666783,0.0,0.064934984,-0.044184197,-0.42168707,0.0,0.0,0.0,0.0,0.0,0.0,0.009475778,0.0058770413,-0.7119493
53651504,0.15756932,-0.20629276,nan,3.0666783,0.0,0.060179766,-0.03923729,-0.42168707,0.0,0.0,0.0,0.0,0.0,0.0,0.008928621,0.006623567,-0.7086997
53751409,0.15756932,-0.20629276,nan,3.0666783,0.0,0.054712303,-0.03395089,-0.42168707,0.0,0.0,0.0,0.0,0.0,0.0,0.012735932,0.009674721,-0.71119416
53851511,0.15756932,-0.20629276,nan,3.0666783,0.0,0.04746561,-0.027640004,-0.42168707,0.0,0.0,0.0,0.0,0.0,0.0,0.007216721,0.009604962,-0.71109366
53951512,0.15756932,-0.20629276,nan,3.0666783,0.0,0.039976142,-0.021014465,-0.42727798,0.0,0.0,0.0,0.0,0.0,0.0,0.008216976,0.009296137,-0.7110443
54051639,0.15756932,-0.20629276,nan,3.0666783,0.0,0.031356312,-0.013273527,-0.43525666,0.0,0.0,0.0,0.0,0.0,0.0,0.009011045,0.011462875,-0.7154276
54151918,0.15756932,-0.20629276,nan,3.0666783,0.0,0.02352801,-0.00591912,-0.4376901,0.0,0.0,0.0,0.0,0.0,0.0,0.0037730597,0.014423429,-0.7152833
54252002,0.15756932,-0.20629276,nan,3.0666783,0.0,0.015432984,0.002224929,-0.4377553,0.0,0.0,0.0,0.0,0.0,0.0,0.0061076935,0.013133716,-0.71647525
54352228,0.15756932,-0.20629276,nan,3.0666783,0.0,0.008894704,0.009886778,-0.4377509,0.0,0.0,0.0,0.0,0.0,0.0,0.0059183994,0.012069983,-0.7195251
54472144,0.15756932,-0.20629276,nan,3.0666783,0.0,0.001949805,0.019371267,-0.4377509,0.0,0.0,0.0,0.0,0.0,0.0,0.0070759533,0.016051758,-0.7187173
54572349,0.15756932,-0.20629276,nan,3.0666783,0.0,-0.0030878,0.027763048,-0.4377509,0.0,0.0,0.0,0.0,0.0,0.0,0.0072722756,0.017704459,-0.7201841
54672400,0.15756932,-0.20629276,nan,3.0666783,0.0,-0.0072718062,0.03594944,-0.44106933,0.0,0.0,0.0,0.0,0.0,0.0,0.002848669,0.017759701,-0.7203863
54772574,0.15756932,-0.20629276,nan,3.0666783,0.0,-0.010677298,0.043717176,-0.6210948,0.0,0.0,0.0,0.0,0.0,0.0,0.0048546023,0.013429871,-0.7549534
54872451,0.15756932,-0.20629276,nan,3.0666783,0.0,-0.013349828,0.050081305,-0.70142996,0.0,0.0,0.0,0.0,0.0,0.0,0.005295615,0.015843514,-0.76698685
54973194,0.15756932,-0.20629276,nan,3.0666783,0.0,-0.016516563,0.054785464,-0.70283544,0.0,0.0,0.0,0.0,0.0,0.0,0.0020492566,0.015068991,-0.7605524
55072993,0.15756932,-0.20629276,nan,3.0666783,0.0,-0.019837797,0.05728257,-0.7028124,0.0,0.0,0.0,0.0,0.0,0.0,0.0024596155,0.011344263,-0.75184286
55173505,0.15756932,-0.20629276,nan,3.0666783,0.0,-0.024638386,0.057471443,-0.7028112,0.0,0.0,0.0,0.0,0.0,0.0,-0.0013614465,0.010647193,-0.7452114
55273435,0.15756932,-0.20629276,nan,3.0666783,0.0,-0.030383386,0.05565329,-0.7028112,0.0,0.0,0.0,0.0,0.0,0.0,-0.0013837414,0.0077013816,-0.74054
55373614,0.15756932,-0.20629276,nan,3.0666783,0.0,-0.037762705,0.051504448,-0.7028112,0.0,0.0,0.0,0.0,0.0,0.0,-0.0033105966,0.010109835,-0.7364254
55473404,0.15756932,-0.20629276,nan,3.0666783,0.0,-0.045407865,0.04687373,-0.7028112,0.0,0.0,0.0,0.0,0.0,0.0,0.0006340584,0.010052741,-0.7374189
55573226,0.15756932,-0.20629276,nan,3.0666783,0.0,-0.053934526,0.041762725,-0.7028112,0.0,0.0,0.0,0.0,0.0,0.0,-0.003956807,0.007662421,-0.73466897
55693253,0.15756932,-0.20629276,nan,3.0666783,0.0,-0.06329052,0.036394563,-0.7028112,0.0,0.0,0.0,0.0,0.0,0.0,-0.0011300119,0.010508738,-0.73570025
55794716,0.15756932,-0.20629276,nan,3.0666783,0.0,-0.06948094,0.03290872,-0.7028112,0.0,0.0,0.0,0.0,0.0,0.0,0.0051317103,0.0066467724,-0.7378338
55893745,0.15756932,-0.20629276,nan,3.0666783,0.0,-0.072744295,0.030974785,-0.7028112,0.0,0.0,0.0,0.0,0.0,0.0,0.0019230577,0.009440742,-0.73802984
55995205,0.15756932,-0.20629276,nan,3.0666783,0.0,-0.07311275,0.030860277,-0.7028112,0.0,0.0,0.0,0.0,0.0,0.0,0.0067005907,0.009946767,-0.74071395
56093860,0.15756932,-0.20629276,nan,3.0666783,0.0,-0.07027189,0.032430116,-0.7028112,0.0,0.0,0.0,0.0,0.0,0.0,0.0059302673,0.010188186,-0.74199367
56194713,0.15756932,-0.20629276,nan,3.0666783,0.0,-0.06445326,0.036065646,-0.69130474,0.0,0.0,0.0,0.0,0.0,0.0,0.0050754882,0.012845667,-0.74224466
56293849,0.15756932,-0.20629276,nan,3.0666783,0.0,-0.05692881,0.040683154,-0.538954,0.0,0.0,0.0,0.0,0.0,0.0,0.012290984,0.014565637,-0.71596396
56395133,0.15756932,-0.20629276,nan,3.0666783,0.0,-0.04688279,0.04669276,-0.41453886,0.0,0.0,0.0,0.0,0.0,0.0,0.0127189495,0.015530617,-0.6970905
56494057,0.15756932,-0.20629276,nan,3.0666783,0.0,-0.036637083,0.053101823,-0.41365552,0.0,0.0,0.0,0.0,0.0,0.0,0.011453117,0.022176504,-0.704857
56595212,0.15756932,-0.20629276,nan,3.0666783,0.0,-0.025141494,0.060166027,-0.41365394,0.0,0.0,0.0,0.0,0.0,0.0,0.016661076,0.021002969,-0.71575963
56694428,0.15756932,-0.20629276,nan,3.0666783,0.0,-0.014738924,0.06666529,-0.41365474,0.0,0.0,0.0,0.0,0.0,0.0,0.015693018,0.019558817,-0.726034
56794593,0.15756932,-0.20629276,nan,3.0666783,0.0,-0.0042684753,0.07380849,-0.41365474,0.0,0.0,0.0,0.0,0.0,0.0,0.015643619,0.02138632,-0.7338393
56915225,0.15756932,-0.20629276,nan,3.0666783,0.0,0.00694657,0.081294015,-0.41365474,0.0,0.0,0.0,0.0,0.0,0.0,0.01774134,0.023639489,-0.745027
57014752,0.15756932,-0.20629276,nan,3.0666783,0.0,0.015118138,0.08701228,-0.41365474,0.0,0.0,0.0,0.0,0.0,0.0,0.01681757,0.02609913,-0.7490009
57114759,0.15756932,-0.20629276,nan,3.0666783,0.0,0.02273436,0.092876166,-0.41365474,0.0,0.0,0.0,0.0,0.0,0.0,0.015074756,0.021731757,-0.7497903
57214866,0.15756932,-0.20629276,nan,3.0666783,0.0,0.028303033,0.09775431,-0.41365474,0.0,0.0,0.0,0.0,0.0,0.0,0.018851254,0.023785047,-0.75101805
57314965,0.15756932,-0.20629276,nan,3.0666783,0.0,0.032570526,0.10210405,-0.41365474,0.0,0.0,0.0,0.0,0.0,0.0,0.012290642,0.023393255,-0.74760467
57415387,0.15756932,-0.20629276,nan,3.0666783,0.0,0.03506265,0.10387937,-0.41365474,0.0,0.0,0.0,0.0,0.0,0.0,0.014278868,0.01917596,-0.7468417
57515199,0.15756932,-0.20629276,nan,3.0666783,0.0,0.035862245,0.103367426,-0.41365474,0.0,0.0,0.0,0.0,0.0,0.0,0.012998705,0.019867335,-0.7404758
57615421,0.15756932,-0.20629276,nan,3.0666783,0.0,0.03516634,0.10052992,-0.41365474,0.0,0.0,0.0,0.0,0.0,0.0,0.01086642,0.01700046,-0.7389628
57715460,0.15756932,-0.20629276,nan,3.0666783,0.0,0.0333548,0.09522659,-0.41365474,0.0,0.0,0.0,0.0,0.0,0.0,0.012132557,0.016392335,-0.7331532
57815476,0.15756932,-0.20629276,nan,3.0666783,0.0,0.031215226,0.088459715,-0.3991549,0.0,0.0,0.0,0.0,0.0,0.0,0.009961793,0.012101293,-0.7305777
57915574,0.15756932,-0.20629276,nan,3.0666783,0.0,0.029579135,0.07882162,-0.3279643,0.0,0.0,0.0,0.0,0.0,0.0,0.014519537,0.013232053,-0.71613765
58036027,0.15756932,-0.20629276,nan,3.0666783,0.0,0.030166939,0.06770644,-0.14146177,0.0,0.0,0.0,0.0,0.0,0.0,0.017418144,0.013687119,-0.6844572
58135808,0.15756932,-0.20629276,nan,3.0666783,0.0,0.033201654,0.059917446,-0.1404294,0.0,0.0,0.0,0.0,0.0,0.0,0.015881931,0.011918362,-0.68697065
58236465,0.15756932,-0.20629276,nan,3.0666783,0.0,0.038396504,0.054328024,-0.14055976,0.0,0.0,0.0,0.0,0.0,0.0,0.015433151,0.016851006,-0.6948797
58336569,0.15756932,-0.20629276,nan,3.0666783,0.0,0.04412058,0.05155099,-0.14056253,0.0,0.0,0.0,0.0,0.0,0.0,0.020322565,0.01535912,-0.7023152
58436308,0.15756932,-0.20629276,nan,3.0666783,0.0,0.051666215,0.05096691,-0.14056213,0.0,0.0,0.0,0.0,0.0,0.0,0.019150507,0.019257246,-0.7071099
58536838,0.15756932,-0.20629276,nan,3.0666783,0.0,0.059286688,0.052382577,-0.14056213,0.0,0.0,0.0,0.0,0.0,0.0,0.020844344,0.014165374,-0.7141043
58636905,0.15756932,-0.20629276,nan,3.0666783,0.0,0.06767378,0.054791354,-0.14056213,0.0,0.0,0.0,0.0,0.0,0.0,0.019202886,0.0190982,-0.71428275
58736414,0.15756932,-0.20629276,nan,3.0666783,0.0,0.07506037,0.058196377,-0.14056213,0.0,0.0,0.0,0.0,0.0,0.0,0.024765696,0.01679685,-0.71740836
58836768,0.15756932,-0.20629276,nan,3.0666783,0.0,0.08200863,0.06203503,-0.14056213,0.0,0.0,0.0,0.0,0.0,0.0,0.02648899,0.017094772,-0.719934
58936588,0.15756932,-0.20629276,nan,3.0666783,0.0,0.087408245,0.064905465,-0.14056213,0.0,0.0,0.0,0.0,0.0,0.0,0.025834067,0.015549006,-0.71704626
59036805,0.15756932,-0.20629276,nan,3.0666783,0.0,0.091556124,0.06734884,-0.14056213,0.0,0.0,0.0,0.0,0.0,0.0,0.02547723,0.0166331,-0.7158783
59136854,0.15756932,-0.20629276,nan,3.0666783,0.0,0.09382747,0.069400765,-0.14056213,0.0,0.0,0.0,0.0,0.0,0.0,0.020726193,0.0195531,-0.7119584
59257401,0.15756932,-0.20629276,nan,3.0666783,0.0,0.09465453,0.07159201,-0.14056213,0.0,0.0,0.0,0.0,0.0,0.0,0.01680823,0.020657726,-0.7066296
59357018,0.15756932,-0.20629276,nan,3.0666783,0.0,0.093755774,0.07386806,-0.14056213,0.0,0.0,0.0,0.0,0.0,0.0,0.0206514,0.024666352,-0.70790184
59457164,0.15756932,-0.20629276,nan,3.0666783,0.0,0.09128178,0.07716654,-0.14056213,0.0,0.0,0.0,0.0,0.0,0.0,0.018331341,0.024135921,-0.7043536
59557679,0.15756932,-0.20629276,nan,3.0666783,0.0,0.088273674,0.082025796,-0.14056213,0.0,0.0,0.0,0.0,0.0,0.0,0.021611955,0.027599841,-0.70546937
59657225,0.15756932,-0.20629276,nan,3.0666783,0.0,0.084233314,0.08871705,-0.14056213,0.0,0.0,0.0,0.0,0.0,0.0,0.019913998,0.030829862,-0.7092236
59757572,0.15756932,-0.20629276,nan,3.0666783,0.0,0.08020018,0.09536589,-0.14056213,0.0,0.0,0.0,0.0,0.0,0.0,0.015655508,0.027184142,-0.70989794
59857604,0.15756932,-0.20629276,nan,3.0666783,0.0,0.07649765,0.102744386,-0.13192423,0.0,0.0,0.0,0.0,0.0,0.0,0.017071202,0.026127145,-0.7093328
59957822,0.15756932,-0.20629276,nan,3.0666783,0.0,0.07353582,0.10922021,-0.13252266,0.0,0.0,0.0,0.0,0.0,0.0,0.018619407,0.026744325,-0.71252185
60058684,0.15756932,-0.20629276,nan,3.0666783,0.0,0.07064553,0.11497942,-0.1325306,0.0,0.0,0.0,0.0,0.0,0.0,0.014908342,0.030459931,-0.71349204
60157896,0.15756932,-0.20629276,nan,3.0666783,0.0,0.068426445,0.11909706,-0.13253021,0.0,0.0,0.0,0.0,0.0,0.0,0.017806118,0.030390745,-0.71258336
60258726,0.15756932,-0.20629276,nan,3.0666783,0.0,0.066706724,0.12128948,-0.13253021,0.0,0.0,0.0,0.0,0.0,0.0,0.019628346,0.02771119,-0.7120407
60358029,0.15756932,-0.20629276,nan,3.0666783,0.0,0.06565659,0.12109146,-0.13253021,0.0,0.0,0.0,0.0,0.0,0.0,0.014805871,0.027777035,-0.7117382
60458005,0.15756932,-0.20629276,nan,3.0666783,0.0,0.06489984,0.11916595,-0.13253021,0.0,0.0,0.0,0.0,0.0,0.0,0.014580729,0.023302631,-0.70970166
60578239,0.15756932,-0.20629276,nan,3.0666783,0.0,0.063979745,0.11536068,-0.13253021,0.0,0.0,0.0,0.0,0.0,0.0,0.013874694,0.023940356,-0.71130985
60678522,0.15756932,-0.20629276,nan,3.0666783,0.0,0.062559396,0.11115365,-0.13253021,0.0,0.0,0.0,0.0,0.0,0.0,0.017007694,0.02416115,-0.7092091
60778516,0.15756932,-0.20629276,nan,3.0666783,0.0,0.060269624,0.10660999,-0.13253021,0.0,0.0,0.0,0.0,0.0,0.0,0.01849773,0.02047574,-0.7089984
60878652,0.15756932,-0.20629276,nan,3.0666783,0.0,0.057353083,0.10179434,-0.13253021,0.0,0.0,0.0,0.0,0.0,0.0,0.015823932,0.021805238,-0.70824456
60978632,0.15756932,-0.20629276,nan,3.0666783,0.0,0.05353354,0.096675776,-0.13253021,0.0,0.0,0.0,0.0,0.0,0.0,0.015055852,0.022511687,-0.70990616
61078783,0.15756932,-0.20629276,nan,3.0666783,0.0,0.04939552,0.09160883,-0.13253021,0.0,0.0,0.0,0.0,0.0,0.0,0.010942135,0.021495406,-0.7084961
61178811,0.15756932,-0.20629276,nan,3.0666783,0.0,0.044519465,0.08675379,-0.13253021,0.0,0.0,0.0,0.0,0.0,0.0,0.0130399875,0.025744386,-0.7087625
61279019,0.15756932,-0.20629276,nan,3.0666783,0.0,0.039925504,0.08270297,-0.11551427,0.0,0.0,0.0,0.0,0.0,0.0,0.011803414,0.021737393,-0.7039851
61379150,0.15756932,-0.20629276,nan,3.0666783,0.0,0.034821253,0.07906856,-0.11646596,0.0,0.0,0.0,0.0,0.0,0.0,0.010823,0.02507176,-0.7039014
61479374,0.15756932,-0.20629276,-0.7533496,3.0666783,0.0,0.02999197,0.07690559,-0.00020521879,0.0,0.0,0.0,0.0,0.0,0.0,0.011697212,0.022938494,-0.68042135
61579346,0.15756932,-0.20629276,-0.7533496,3.0666783,0.0,0.025024338,0.07512028,-0.0014138818,0.0,0.0,0.0,0.0,0.0,0.0,0.009653484,0.02171179,-0.68280554
61679399,0.15756932,-0.20629276,-0.7533496,3.0666783,0.0,0.021297008,0.074477114,-0.004286289,0.0,0.0,0.0,0.0,0.0,0.0,0.01329119,0.025745038,-0.6863234
61799371,0.15756932,-0.20629276,-0.7533496,3.0666783,0.0,0.018128106,0.073639154,-0.010976672,0.0,0.0,0.0,0.0,0.0,0.0,0.015124438,0.0215188,-0.69254965
61899485,0.15756932,-0.20629276,-0.7533496,3.0666783,0.0,0.016365277,0.07395812,-0.01960653,0.0,0.0,0.0,0.0,0.0,0.0,0.010954139,0.022910405,-0.6983186
61999542,0.15756932,-0.20629276,-0.7533496,3.0666783,0.0,0.015433946,0.0747826,-0.029965818,0.0,0.0,0.0,0.0,0.0,0.0,0.0123669915,0.025320102,-0.7042373
62099632,0.15756932,-0.20629276,-0.7533496,3.0666783,0.0,0.015133087,0.0757248,-0.04354179,0.0,0.0,0.0,0.0,0.0,0.0,0.017725756,0.022826564,-0.7109892
62200191,0.15756932,-0.20629276,-0.7533496,3.0666783,0.0,0.01592168,0.07712071,-0.058120906,0.0,0.0,0.0,0.0,0.0,0.0,0.01717022,0.029025836,-0.7162725
62300206,0.15756932,-0.20629276,-0.7533496,3.0666783,0.0,0.017085964,0.07905355,-0.07367498,0.0,0.0,0.0,0.0,0.0,0.0,0.016887682,0.027758745,-0.71879697
62400337,0.15756932,-0.20629276,-0.7533496,3.0666783,0.0,0.017956026,0.080819614,-0.08612138,0.0,0.0,0.0,0.0,0.0,0.0,0.013104279,0.029373161,-0.7194501
62500361,0.15756932,-0.20629276,-0.7533496,3.0666783,0.0,0.018372597,0.083076835,-0.09704745,0.0,0.0,0.0,0.0,0.0,0.0,0.013860953,0.031526748,-0.7190425
62600330,0.15756932,-0.20629276,-0.7533496,3.0666783,0.0,0.017720142,0.08558068,-0.10450375,0.0,0.0,0.0,0.0,0.0,0.0,0.01401719,0.02867072,-0.7187289
62700414,0.15756932,-0.20629276,-0.7533496,3.0666783,0.0,0.016169667,0.088430725,-0.11067963,0.0,0.0,0.0,0.0,0.0,0.0,0.013353079,0.033968918,-0.71761787
62800409,0.15756932,-0.20629276,-0.7533496,3.0666783,0.0,0.013914359,0.09057931,-0.114889026,0.0,0.0,0.0,0.0,0.0,0.0,0.012454067,0.03193178,-0.7166787
62920533,0.15756932,-0.20629276,-0.7533496,3.0666783,0.0,0.010476832,0.09223238,-0.119332016,0.0,0.0,0.0,0.0,0.0,0.0,0.018170135,0.028869215,-0.71905315
63020850,0.15756932,-0.20629276,-0.7533496,3.0666783,0.0,0.0078000976,0.09211148,-0.12366575,0.0,0.0,0.0,0.0,0.0,0.0,0.012469709,0.026243772,-0.7178309
63121852,0.15756932,-0.20629276,-0.7533496,3.0666783,0.0,0.0056863367,0.09048257,-0.12797678,0.0,0.0,0.0,0.0,0.0,0.0,0.013007417,0.024636474,-0.71957695
63220946,0.15756932,-0.20629276,-0.7533496,3.0666783,0.0,0.004398188,0.086619735,-0.13141143,0.0,0.0,0.0,0.0,0.0,0.0,0.012767046,0.022074841,-0.71791697
63320990,0.15756932,-0.20629276,-0.7533496,3.0666783,0.0,0.003714887,0.081058934,-0.13390833,0.0,0.0,0.0,0.0,0.0,0.0,0.013807684,0.023347216,-0.7153122
63421185,0.15756932,-0.20629276,-0.7533496,3.0666783,0.0,0.0041393717,0.07213524,-0.13538331,0.0,0.0,0.0,0.0,0.0,0.0,0.016027916,0.02145208,-0.7118809
63521091,0.15756932,-0.20629276,-0.7533496,3.0666783,0.0,0.0055879517,0.06146171,-0.13503444,0.0,0.0,0.0,0.0,0.0,0.0,0.01585668,0.011737856,-0.70974267
63622012,0.15756932,-0.20629276,-0.7533496,3.0666783,0.0,0.008877037,0.046917643,-0.1330576,0.0,0.0,0.0,0.0,0.0,0.0,0.01636261,0.014447672,-0.7055626
63721405,0.15756932,-0.20629276,-0.7533496,3.0666783,0.0,0.012198583,0.032263838,-0.1289683,0.0,0.0,0.0,0.0,0.0,0.0,0.016753463,0.01212297,-0.70108414
63821544,0.15756932,-0.20629276,-0.7533496,3.0666783,0.0,0.015290092,0.015943438,-0.12247968,0.0,0.0,0.0,0.0,0.0,0.0,0.018863313,0.010414483,-0.69862336
63921658,0.15756932,-0.20629276,-0.7533496,3.0666783,0.0,0.017608324,0.00027277393,-0.11540002,0.0,0.0,0.0,0.0,0.0,0.0,0.016199645,0.007404236,-0.69705963
64021732,0.15756932,-0.20629276,-0.7533496,3.0666783,0.0,0.018744988,-0.012093176,-0.10919958,0.0,0.0,0.0,0.0,0.0,0.0,0.018272309,0.012589863,-0.6951199
64121742,0.15756932,-0.20629276,-0.7533496,3.0666783,0.0,0.01889156,-0.023142044,-0.10337615,0.0,0.0,0.0,0.0,0.0,0.0,0.016351672,0.009375328,-0.6948379
64221897,0.15756932,-0.20629276,-0.7533496,3.0666783,0.0,0.017071255,-0.030679291,-0.09923655,0.0,0.0,0.0,0.0,0.0,0.0,0.012651451,0.011029846,-0.69775575
64341954,0.15756932,-0.20629276,-0.7533496,3.0666783,0.0,0.012596695,-0.037069257,-0.09679288,0.0,0.0,0.0,0.0,0.0,0.0,0.008201938,0.009095754,-0.6980286
64441977,0.15756932,-0.20629276,-0.7533496,3.0666783,0.0,0.0069744573,-0.039942704,-0.096143484,0.0,0.0,0.0,0.0,0.0,0.0,0.006921265,0.008811448,-0.70032924
64542410,0.15756932,-0.20629276,-0.7533496,3.0666783,0.0,0.00018611028,-0.04156294,-0.096105814,0.0,0.0,0.0,0.0,0.0,0.0,0.008711927,0.013187544,-0.7022981
64642383,0.15756932,-0.20629276,-0.7533496,3.0666783,0.0,-0.008244047,-0.043245308,-0.097200334,0.0,0.0,0.0,0.0,0.0,0.0,0.009348234,0.007710268,-0.7044652
64742510,0.15756932,-0.20629276,-0.7533496,3.0666783,0.0,-0.016539834,-0.045174416,-0.0991621,0.0,0.0,0.0,0.0,0.0,0.0,0.0047032014,0.0063758614,-0.70766056
64842570,0.15756932,-0.20629276,-0.7533496,3.0666783,0.0,-0.02617305,-0.048556197,-0.10157287,0.0,0.0,0.0,0.0,0.0,0.0,0.0043008747,0.010318562,-0.70962554
64942601,0.15756932,-0.20629276,-0.7533496,3.0666783,0.0,-0.035361025,-0.05274292,-0.10420942,0.0,0.0,0.0,0.0,0.0,0.0,0.0044065397,0.008401772,-0.71008253
65042686,0.15756932,-0.20629276,-0.7533496,3.0666783,0.0,-0.04480833,-0.058592293,-0.10734755,0.0,0.0,0.0,0.0,0.0,0.0,0.011348751,0.004415893,-0.71333194
65142709,0.15756932,-0.20629276,-0.7533496,3.0666783,0.0,-0.051998947,-0.06457481,-0.11053014,0.0,0.0,0.0,0.0,0.0,0.0,0.0027516922,0.0077782366,-0.7147432
65242859,0.15756932,-0.20629276,-0.7533496,3.0666783,0.0,-0.058028203,-0.071083084,-0.1139465,0.0,0.0,0.0,0.0,0.0,0.0,0.00662157,0.008010278,-0.7166325
65362985,0.15756932,-0.20629276,-0.7533496,3.0666783,0.0,-0.06190621,-0.07707548,-0.11834139,0.0,0.0,0.0,0.0,0.0,0.0,0.0089099975,0.008332026,-0.7200534
65463389,0.15756932,-0.20629276,-0.7533496,3.0666783,0.0,-0.06237615,-0.07972964,-0.122060835,0.0,0.0,0.0,0.0,0.0,0.0,0.005377899,0.008700876,-0.7190559
65563536,0.15756932,-0.20629276,-0.7533496,3.0666783,0.0,-0.060328003,-0.07965246,-0.12497598,0.0,0.0,0.0,0.0,0.0,0.0,0.009491203,0.013809425,-0.7175366
65663553,0.15756932,-0.20629276,-0.7533496,3.0666783,0.0,-0.05628717,-0.076967426,-0.12641346,0.0,0.0,0.0,0.0,0.0,0.0,0.007960431,0.014640372,-0.71576124
65763617,0.15756932,-0.20629276,-0.7533496,3.0666783,0.0,-0.05052074,-0.07059685,-0.12627244,0.0,0.0,0.0,0.0,0.0,0.0,0.01306961,0.016941354,-0.7111858
65863528,0.15756932,-0.20629276,-0.7533496,3.0666783,0.0,-0.045216575,-0.062591575,-0.12362832,0.0,0.0,0.0,0.0,0.0,0.0,0.011610297,0.016111193,-0.7093463
65963554,0.15756932,-0.20629276,-0.7533496,3.0666783,0.0,-0.03988979,-0.051772,-0.119476974,0.0,0.0,0.0,0.0,0.0,0.0,0.009961598,0.018780543,-0.70749944
66063655,0.15756932,-0.20629276,-0.7533496,3.0666783,0.0,-0.036267865,-0.04134246,-0.115204155,0.0,0.0,0.0,0.0,0.0,0.0,0.011693558,0.023101702,-0.70834166
66163985,0.15756932,-0.20629276,-0.7533496,3.0666783,0.0,-0.034008577,-0.02917294,-0.111020565,0.0,0.0,0.0,0.0,0.0,0.0,0.008178432,0.024289459,-0.70653206
66265586,0.15756932,-0.20629276,-0.7533496,3.0666783,0.0,-0.033639953,-0.016989885,-0.10803515,0.0,0.0,0.0,0.0,0.0,0.0,0.00903197,0.028759088,-0.7075818
66364079,0.15756932,-0.20629276,-0.7533496,3.0666783,0.0,-0.034599796,-0.006215874,-0.10660344,0.0,0.0,0.0,0.0,0.0,0.0,0.010641429,0.022453979,-0.7092459
66484221,0.15756932,-0.20629276,-0.7533496,3.0666783,0.0,-0.03731216,0.0052294345,-0.10630041,0.0,0.0,0.0,0.0,0.0,0.0,0.012368521,0.027546369,-0.7093823
66585152,0.15756932,-0.20629276,-0.7533496,3.0666783,0.0,-0.04031,0.013092512,-0.10655564,0.0,0.0,0.0,0.0,0.0,0.0,0.011261484,0.022999402,-0.70849824
66684326,0.15756932,-0.20629276,-0.7533496,3.0666783,0.0,-0.043482255,0.018475583,-0.10651904,0.0,0.0,0.0,0.0,0.0,0.0,0.00390088,0.026816938,-0.708009
66785183,0.15756932,-0.20629276,-0.7533496,3.0666783,0.0,-0.04725136,0.022879602,-0.10581285,0.0,0.0,0.0,0.0,0.0,0.0,0.008426838,0.02486336,-0.70849997
66884421,0.15756932,-0.20629276,-0.7533496,3.0666783,0.0,-0.050277565,0.025387626,-0.10500181,0.0,0.0,0.0,0.0,0.0,0.0,0.004517759,0.025757749,-0.70948505
66985188,nan,nan,-0.7533496,3.0666783,0.0,0.011268977,0.15014327,-0.10429686,0.0,0.0,0.0,0.0,0.0,0.0,0.0120934695,0.03534381,-0.7100084
67084791,nan,nan,-0.7533496,3.0666783,0.0,0.012148154,0.16185707,-0.10411453,0.0,0.0,0.0,0.0,0.0,0.0,0.009021477,0.03641826,-0.7128401
67185180,nan,nan,-0.7533496,3.0666783,0.0,0.01216974,0.16214468,-0.10560566,0.0,0.0,0.0,0.0,0.0,0.0,0.011493939,0.032768324,-0.71609795
67284963,nan,nan,-0.7533496,3.0666783,0.0,0.009988525,0.13308305,-0.10835028,0.0,0.0,0.0,0.0,0.0,0.0,0.006628481,0.03003321,-0.7181506
67385225,nan,nan,-0.7533496,3.0666783,0.0,0.010143442,0.13514711,-0.11234498,0.0,0.0,0.0,0.0,0.0,0.0,0.009013073,0.024652611,-0.7212966
67485071,nan,nan,-0.7533496,3.0666783,0.0,0.010141583,0.13512233,-0.11679578,0.0,0.0,0.0,0.0,0.0,0.0,0.0074983435,0.023522312,-0.7230195
67585195,nan,nan,-0.7533496,3.0666783,0.0,0.012322793,0.16418388,-0.122045815,0.0,0.0,0.0,0.0,0.0,0.0,0.007835883,0.021795236,-0.7250607
67705329,nan,nan,-0.7533496,3.0666783,0.0,0.012170893,0.16216004,-0.12748009,0.0,0.0,0.0,0.0,0.0,0.0,0.006144312,0.023021203,-0.7261105
67805585,nan,nan,-0.7533496,3.0666783,0.0,0.01216982,0.16214573,-0.13078779,0.0,0.0,0.0,0.0,0.0,0.0,0.0045938934,0.02102643,-0.7255128
67905587,nan,nan,-0.7533496,3.0666783,0.0,0.012169808,0.16214557,-0.13270426,0.0,0.0,0.0,0.0,0.0,0.0,0.0033417372,0.02074312,-0.7220953
68005663,nan,nan,-0.7533496,3.0666783,0.0,0.012169808,0.16214557,-0.13345939,0.0,0.0,0.0,0.0,0.0,0.0,0.0025371006,0.020314474,-0.72386074
68105850,nan,nan,-0.7533496,3.0666783,0.0,0.018582324,0.24758333,-0.13290536,0.0,0.0,0.0,0.0,0.0,0.0,0.003654086,0.02563364,-0.7212088
68205831,nan,nan,-0.7533496,3.0666783,0.0,0.018225959,0.24283525,-0.13107818,0.0,0.0,0.0,0.0,0.0,0.0,0.005534199,0.024106955,-0.7175394
68305863,nan,nan,-0.7533496,3.0666783,0.0,0.018254224,0.24321187,-0.12706894,0.0,0.0,0.0,0.0,0.0,0.0,0.007843623,0.023899782,-0.71509576
68405976,nan,nan,-0.7533496,3.0666783,0.0,0.018673707,0.24880087,-0.12180227,0.0,0.0,0.0,0.0,0.0,0.0,0.0065158512,0.024142448,-0.7108069
68506178,nan,nan,-0.7533496,3.0666783,0.0,0.020267626,0.27003762,-0.11551106,0.0,0.0,0.0,0.0,0.0,0.0,0.008884308,0.02734303,-0.70911074
68606316,nan,nan,-0.7533496,3.0666783,0.0,0.02246538,0.2993196,-0.109894514,0.0,0.0,0.0,0.0,0.0,0.0,0.013343529,0.029041879,-0.71038866
68706459,nan,nan,-0.7533496,3.0666783,0.0,0.022313245,0.29729262,-0.10599589,0.0,0.0,0.0,0.0,0.0,0.0,0.013203143,0.028490936,-0.71183765
68806559,nan,nan,-0.7533496,3.0666783,0.0,0.020899434,0.27845556,-0.10512972,0.0,0.0,0.0,0.0,0.0,0.0,0.009162147,0.023628432,-0.7178483
68926545,0.30653575,0.010070884,-0.7533496,3.0666783,0.0,0.0,0.0,-0.10799235,0.0,0.0,0.0,0.0,0.0,0.0,0.00924775,0.00013454445,-0.7225334
69026571,0.30653575,0.010070884,-0.7533496,3.0666783,0.0,0.0026990592,-0.021422055,-0.113432944,0.0,0.0,0.0,0.0,0.0,0.0,0.008861222,-0.0026112609,-0.7250662
69927544,nan,nan,-0.7533496,3.0666783,0.0,0.01184939,0.15787643,-0.1603213,0.0,0.0,0.0,0.0,0.0,0.0,0.006409051,0.027836423,-0.7391852
70028939,nan,nan,-0.7533496,3.0666783,0.0,0.024751889,0.3297841,-0.16126353,0.0,0.0,0.0,0.0,0.0,0.0,0.009027332,0.03908641,-0.7363564
70127794,nan,nan,-0.7533496,3.0666783,0.0,0.0200761,0.2674858,-0.1605125,0.0,0.0,0.0,0.0,0.0,0.0,0.008638959,0.03359484,-0.7336936
70228552,nan,nan,-0.7533496,3.0666783,0.0,0.021512916,0.28662935,-0.15897739,0.0,0.0,0.0,0.0,0.0,0.0,0.0062139845,0.035164673,-0.7333042
70348765,nan,nan,-0.7533496,3.0666783,0.0,0.04371231,0.58240503,-0.15642083,0.0,0.0,0.0,0.0,0.0,0.0,0.012572547,0.05575893,-0.72996396
70448157,nan,nan,-0.7533496,3.0666783,0.0,0.017432015,0.2322571,-0.15415037,0.0,0.0,0.0,0.0,0.0,0.0,0.006600678,0.018264415,-0.73239875
70549233,0.3466446,0.21615459,-0.7533496,3.0666783,0.0,0.0,0.0,-0.15258098,0.0,0.0,0.0,0.0,0.0,0.0,0.007131907,0.0021572672,-0.73210466
70648288,0.3466446,0.21615459,-0.7533496,3.0666783,0.0,-0.0015390798,-0.024068419,-0.15217775,0.0,0.0,0.0,0.0,0.0,0.0,0.0054948474,-0.0057461467,-0.7346916
70749159,0.3466446,0.21615459,-0.7533496,3.0666783,0.0,-0.0016477704,-0.053428516,-0.15332174,0.0,0.0,0.0,0.0,0.0,0.0,0.012010646,-0.011499945,-0.7346879
70848448,0.3466446,0.21615459,-0.7533496,3.0666783,0.0,-0.00049002765,-0.08192184,-0.15512556,0.0,0.0,0.0,0.0,0.0,0.0,0.009185255,-0.011181569,-0.73377943
70948584,0.3466446,0.21615459,-0.7533496,3.0666783,0.0,0.0017019316,-0.11160914,-0.15626109,0.0,0.0,0.0,0.0,0.0,0.0,0.016484708,-0.008677574,-0.733502
71048871,0.3466446,0.21615459,-0.7533496,3.0666783,0.0,0.004005073,-0.13597052,-0.15575689,0.0,0.0,0.0,0.0,0.0,0.0,0.008905655,-0.011743373,-0.7286061
71148883,0.3466446,0.21615459,-0.7533496,3.0666783,0.0,0.0061531765,-0.15618736,-0.15341872,0.0,0.0,0.0,0.0,0.0,0.0,0.012982404,-0.009580025,-0.7278262
71249104,0.3466446,0.21615459,-0.7533496,3.0666783,0.0,0.008318494,-0.16792764,-0.15017939,0.0,0.0,0.0,0.0,0.0,0.0,0.012850229,-0.0038287202,-0.72750247
71348981,0.3466446,0.21615459,-0.7533496,3.0666783,0.0,0.010324103,-0.17299452,-0.14598054,0.0,0.0,0.0,0.0,0.0,0.0,0.011709945,-0.00090012886,-0.72765636
71449049,0.3466446,0.21615459,-0.7533496,3.0666783,0.0,0.011993871,-0.17193562,-0.14239955,0.0,0.0,0.0,0.0,0.0,0.0,0.011709147,-0.00013716891,-0.72587156
71549150,nan,nan,-0.7533496,3.0666783,0.0,-0.017623387,-0.23480684,-0.13916957,0.0,0.0,0.0,0.0,0.0,0.0,0.009215551,-0.0029359683,-0.72829866
71669243,nan,nan,-0.7533496,3.0666783,0.0,-0.057043176,-0.7600201,-0.1369394,0.0,0.0,0.0,0.0,0.0,0.0,0.007881161,-0.047276974,-0.7290551
71769558,nan,nan,-0.7533496,3.0666783,0.0,-0.08384147,-1.1170698,-0.13631243,0.0,0.0,0.0,0.0,0.0,0.0,0.0006676568,-0.07159142,-0.728878
71869664,nan,nan,-0.7533496,3.0666783,0.0,-0.12131079,-1.6162957,-0.13574082,0.0,0.0,0.0,0.0,0.0,0.0,0.0007117018,-0.11305777,-0.7288304
71969636,nan,nan,-0.7533496,3.0666783,0.0,-0.1587408,-2.114998,-0.13513458,0.0,0.0,0.0,0.0,0.0,0.0,-0.00592691,-0.14529385,-0.7289237
72069823,nan,nan,-0.7533496,3.0666783,0.0,-0.19621424,-2.6142788,-0.13476884,0.0,0.0,0.0,0.0,0.0,0.0,-0.005341906,-0.1768797,-0.72972834
72169767,nan,nan,-0.7533496,3.0666783,0.0,-0.17835018,-2.3762653,-0.13483322,0.0,0.0,0.0,0.0,0.0,0.0,-0.0064527094,-0.14202853,-0.7347808
72269909,nan,nan,-0.7533496,3.0666783,0.0,-0.011337564,-0.42924783,-0.13482642,0.0,0.0,0.0,0.0,0.0,0.0,0.010574918,0.0398514,-0.7306386
72369945,0.32852602,0.07029578,-0.7533496,3.0666783,0.0,0.00035056172,0.012758078,-0.13337213,0.0,0.0,0.0,0.0,0.0,0.0,0.012734281,0.07223203,-0.7296113
72490035,0.32852602,0.07029578,-0.7533496,3.0666783,0.0,0.0038688346,0.11572492,-0.13218164,0.0,0.0,0.0,0.0,0.0,0.0,0.014156146,0.0875518,-0.7319891
72590580,0.32852602,0.07029578,-0.7533496,3.0666783,0.0,0.007250218,0.20828223,-0.13056374,0.0,0.0,0.0,0.0,0.0,0.0,0.012281708,0.080286786,-0.73029464
72690606,0.32852602,0.07029578,-0.7533496,3.0666783,0.0,0.010771407,0.2903033,-0.12908071,0.0,0.0,0.0,0.0,0.0,0.0,0.015867341,0.08074579,-0.7282965
72790752,0.32852602,0.07029578,-0.7533496,3.0666783,0.0,0.014746469,0.36753428,-0.1263364,0.0,0.0,0.0,0.0,0.0,0.0,0.015893025,0.078974724,-0.72784996
72890781,0.32852602,0.07029578,-0.7533496,3.0666783,0.0,0.018729204,0.42034066,-0.1231904,0.0,0.0,0.0,0.0,0.0,0.0,0.013238667,0.07644565,-0.7255384
72990803,0.32852602,0.07029578,-0.7533496,3.0666783,0.0,0.023618778,0.45333126,-0.12045604,0.0,0.0,0.0,0.0,0.0,0.0,0.019330304,0.06464559,-0.730375
73090803,0.32852602,0.07029578,-0.7533496,3.0666783,0.0,0.02925888,0.4614555,-0.1193015,0.0,0.0,0.0,0.0,0.0,0.0,0.018970508,0.053820122,-0.7341007
73190784,0.32852602,0.07029578,-0.7533496,3.0666783,0.0,0.036459044,0.44891143,-0.12093437,0.0,0.0,0.0,0.0,0.0,0.0,0.015273193,0.04399495,-0.73488194
73290936,0.32852602,0.07029578,-0.7533496,3.0666783,0.0,0.043614555,0.42254788,-0.12419933,0.0,0.0,0.0,0.0,0.0,0.0,0.018772589,0.03597201,-0.7392407
73391231,nan,nan,-0.7533496,3.0666783,0.0,0.014752097,0.19655095,-0.12915397,0.0,0.0,0.0,0.0,0.0,0.0,0.016623573,0.010485635,-0.7424429
73491546,nan,nan,-0.7533496,3.0666783,0.0,0.0163446,0.2177688,-0.13501918,0.0,0.0,0.0,0.0,0.0,0.0,0.018382424,0.0130916005,-0.74304605
73611709,nan,nan,-0.7533496,3.0666783,0.0,0.01188979,0.15841474,-0.13987285,0.0,0.0,0.0,0.0,0.0,0.0,0.018137425,0.009888316,-0.7444321
73711469,0.2459193,-0.21572974,-0.7533496,3.0666783,0.0,0.0,0.0,-0.14282769,0.0,0.0,0.0,0.0,0.0,0.0,0.01446512,-0.00024687033,-0.74292785
73811668,nan,nan,-0.7533496,3.0666783,0.0,0.027845081,0.37099653,-0.1443181,0.0,0.0,0.0,0.0,0.0,0.0,0.014238108,0.036489457,-0.74105453
73911671,nan,nan,-0.7533496,3.0666783,0.0,0.03895104,0.5189678,-0.14348346,0.0,0.0,0.0,0.0,0.0,0.0,0.012945009,0.045127977,-0.73868227
74012891,nan,nan,-0.7533496,3.0666783,0.0,0.04306076,0.5737241,-0.13960755,0.0,0.0,0.0,0.0,0.0,0.0,0.013993192,0.060979474,-0.7354214
74111957,nan,nan,-0.7533496,3.0666783,0.0,0.0458811,0.6113011,-0.13384235,0.0,0.0,0.0,0.0,0.0,0.0,0.014613757,0.06790504,-0.7306967
74211921,nan,nan,-0.7533496,3.0666783,0.0,0.030090401,0.40091226,-0.12473917,0.0,0.0,0.0,0.0,0.0,0.0,0.013890886,0.048356757,-0.72457135
74311997,nan,nan,-0.7533496,3.0666783,0.0,0.051386364,0.684651,-0.115496814,0.0,0.0,0.0,0.0,0.0,0.0,0.014906223,0.07468437,-0.7203382
74412712,nan,nan,-0.7533496,3.0666783,0.0,0.071295604,0.9499137,-0.10486555,0.0,0.0,0.0,0.0,0.0,0.0,0.018211355,0.09006994,-0.71909297
74512334,nan,nan,-0.7533496,3.0666783,0.0,0.085339695,1.1370314,-0.095501125,0.0,0.0,0.0,0.0,0.0,0.0,0.016013086,0.1061551,-0.7164664
74612277,nan,nan,-0.7533496,3.0666783,0.0,0.07607873,1.0136421,-0.086765945,0.0,0.0,0.0,0.0,0.0,0.0,0.013914098,0.0859174,-0.71748626
74712311,nan,nan,-0.7533496,3.0666783,0.0,0.006046515,0.06821095,-0.08105087,0.0,0.0,0.0,0.0,0.0,0.0,0.00736273,-0.003871724,-0.7212171
74832611,0.24960276,-0.18954611,-0.7533496,3.0666783,0.0,-0.0009022534,-0.029361641,-0.079853475,0.0,0.0,0.0,0.0,0.0,0.0,0.009531909,-0.013381824,-0.72923744
74932721,0.24960276,-0.18954611,-0.7533496,3.0666783,0.0,-0.0022841154,-0.06874258,-0.083984375,0.0,0.0,0.0,0.0,0.0,0.0,0.007037113,-0.02514302,-0.73483497
75032862,0.24960276,-0.18954611,-0.7533496,3.0666783,0.0,-0.0042625726,-0.10997733,-0.09116238,0.0,0.0,0.0,0.0,0.0,0.0,0.0053924476,-0.021207636,-0.7389766
75132884,0.24960276,-0.18954611,-0.7533496,3.0666783,0.0,-0.0077697188,-0.15623686,-0.10124272,0.0,0.0,0.0,0.0,0.0,0.0,0.0062979055,-0.027056953,-0.74486345
75233524,0.24960276,-0.18954611,-0.7533496,3.0666783,0.0,-0.012703092,-0.19733606,-0.110568464,0.0,0.0,0.0,0.0,0.0,0.0,0.004044531,-0.025488807,-0.74587613
75333049,0.24960276,-0.18954611,-0.7533496,3.0666783,0.0,-0.018768331,-0.23286626,-0.1198926,0.0,0.0,0.0,0.0,0.0,0.0,0.002424406,-0.022597287,-0.750824
75433054,0.24960276,-0.18954611,-0.7533496,3.0666783,0.0,-0.0266419,-0.2585346,-0.1284709,0.0,0.0,0.0,0.0,0.0,0.0,-0.0011752732,-0.018325737,-0.7518629
75533136,0.24960276,-0.18954611,-0.7533496,3.0666783,0.0,-0.035360925,-0.26915643,-0.13437533,0.0,0.0,0.0,0.0,0.0,0.0,-0.0029212907,-0.012304928,-0.75068736
75633392,0.24960276,-0.18954611,-0.7533496,3.0666783,0.0,-0.046115205,-0.2669152,-0.13822919,0.0,0.0,0.0,0.0,0.0,0.0,-0.0011954457,-0.0030290922,-0.7513357
75733562,0.24960276,-0.18954611,-0.7533496,3.0666783,0.0,-0.057294194,-0.25329262,-0.13928157,0.0,0.0,0.0,0.0,0.0,0.0,-0.006968745,-0.0017295051,-0.7488016
75833588,0.24960276,-0.18954611,-0.7533496,3.0666783,0.0,-0.06895888,-0.22971757,-0.13866091,0.0,0.0,0.0,0.0,0.0,0.0,-0.0063774493,0.009506186,-0.74598515
75933724,0.24960276,-0.18954611,-0.7533496,3.0666783,0.0,-0.07891863,-0.20145759,-0.13545442,0.0,0.0,0.0,0.0,0.0,0.0,-0.0033687437,0.012771078,-0.743278
76033926,0.24960276,-0.18954611,-0.7533496,3.0666783,0.0,-0.08836166,-0.16884357,-0.12975371,0.0,0.0,0.0,0.0,0.0,0.0,-0.0058617303,0.01581177,-0.7350304
76154259,0.24960276,-0.18954611,-0.7533496,3.0666783,0.0,-0.096096754,-0.13192177,-0.12169629,0.0,0.0,0.0,0.0,0.0,0.0,-0.0030064508,0.020735875,-0.7339834
76254025,0.24960276,-0.18954611,-0.7533496,3.0666783,0.0,-0.099465534,-0.1055165,-0.11406869,0.0,0.0,0.0,0.0,0.0,0.0,-0.0035267035,0.023623075,-0.7303739
76354505,0.24960276,-0.18954611,-0.7533496,3.0666783,0.0,-0.100086085,-0.081408635,-0.10500616,0.0,0.0,0.0,0.0,0.0,0.0,-0.0021742536,0.02437305,-0.7253846
76454153,0.24960276,-0.18954611,-0.7533496,3.0666783,0.0,-0.09824225,-0.06438699,-0.095795274,0.0,0.0,0.0,0.0,0.0,0.0,0.0016141222,0.021284606,-0.7202518
76554363,0.24960276,-0.18954611,-0.7533496,3.0666783,0.0,-0.09478686,-0.051731113,-0.08450836,0.0,0.0,0.0,0.0,0.0,0.0,0.0034483233,0.020911831,-0.71786505
76654359,0.24960276,-0.18954611,-0.7533496,3.0666783,0.0,-0.08981201,-0.045317464,-0.07515651,0.0,0.0,0.0,0.0,0.0,0.0,0.003049992,0.017621167,-0.71695644
76754573,0.24960276,-0.18954611,-0.7533496,3.0666783,0.0,-0.08317939,-0.04384227,-0.06660265,0.0,0.0,0.0,0.0,0.0,0.0,0.0015785368,0.01594433,-0.7200583
76854691,0.24960276,-0.18954611,-0.7533496,3.0666783,0.0,-0.07553116,-0.04669556,-0.061974406,0.0,0.0,0.0,0.0,0.0,0.0,0.00392045,0.00907822,-0.72237945
76954802,0.24960276,-0.18954611,-0.7533496,3.0666783,0.0,-0.06812299,-0.051991656,-0.06174767,0.0,0.0,0.0,0.0,0.0,0.0,0.004459846,0.014632557,-0.730247
77054996,0.24960276,-0.18954611,-0.7533496,3.0666783,0.0,-0.06069511,-0.05885997,-0.0654757,0.0,0.0,0.0,0.0,0.0,0.0,0.006408917,0.007532224,-0.736158
77154760,0.24960276,-0.18954611,-0.7533496,3.0666783,0.0,-0.05488525,-0.0658974,-0.07196826,0.0,0.0,0.0,0.0,0.0,0.0,0.005635993,0.0073472643,-0.7401271
77254787,0.24960276,-0.18954611,-0.7533496,3.0666783,0.0,-0.049940296,-0.07306976,-0.08068025,0.0,0.0,0.0,0.0,0.0,0.0,0.0039492394,0.0071299253,-0.7458576
77375015,0.24960276,-0.18954611,-0.7533496,3.0666783,0.0,-0.04563146,-0.07974931,-0.09066367,0.0,0.0,0.0,0.0,0.0,0.0,0.0017091194,0.006721452,-0.7451284
77475199,0.24960276,-0.18954611,-0.7533496,3.0666783,0.0,-0.04339358,-0.08284627,-0.09657097,0.0,0.0,0.0,0.0,0.0,0.0,0.0046618152,0.0068761134,-0.74614173
77575287,0.24960276,-0.18954611,-0.7533496,3.0666783,0.0,-0.042364404,-0.0838441,-0.099733174,0.0,0.0,0.0,0.0,0.0,0.0,0.0014692657,0.009123876,-0.7422248
77675323,0.24960276,-0.18954611,-0.7533496,3.0666783,0.0,-0.042463977,-0.0819229,-0.099621356,0.0,0.0,0.0,0.0,0.0,0.0,0.005792331,0.011116663,-0.73954654
77775625,0.24960276,-0.18954611,-0.7533496,3.0666783,0.0,-0.04291182,-0.077171706,-0.09645045,0.0,0.0,0.0,0.0,0.0,0.0,0.0040261624,0.013103979,-0.73450124
77875490,0.24960276,-0.18954611,-0.7533496,3.0666783,0.0,-0.042847436,-0.0698429,-0.090993345,0.0,0.0,0.0,0.0,0.0,0.0,0.008097933,0.016132632,-0.7323466
77975526,0.24960276,-0.18954611,-0.7533496,3.0666783,0.0,-0.041447286,-0.059095968,-0.08267599,0.0,0.0,0.0,0.0,0.0,0.0,0.0054394263,0.019818017,-0.7251506
78075638,0.24960276,-0.18954611,-0.7533496,3.0666783,0.0,-0.03829908,-0.04775012,-0.07373828,0.0,0.0,0.0,0.0,0.0,0.0,0.010000814,0.020923372,-0.72261244
78175995,0.24960276,-0.18954611,-0.7533496,3.0666783,0.0,-0.033193853,-0.033723418,-0.06372148,0.0,0.0,0.0,0.0,0.0,0.0,0.008064158,0.020110598,-0.718655
78276028,0.24960276,-0.18954611,-0.7533496,3.0666783,0.0,-0.026889121,-0.0205567,-0.054929495,0.0,0.0,0.0,0.0,0.0,0.0,0.015362933,0.026192516,-0.7170801
78376146,0.24960276,-0.18954611,-0.7533496,3.0666783,0.0,-0.018536793,-0.0055394247,-0.045859993,0.0,0.0,0.0,0.0,0.0,0.0,0.011881234,0.024195153,-0.7149508
78496153,0.24960276,-0.18954611,-0.7533496,3.0666783,0.0,-0.008343918,0.010973726,-0.036098897,0.0,0.0,0.0,0.0,0.0,0.0,0.01275431,0.027055256,-0.71221465
78596182,0.24960276,-0.18954611,-0.7533496,3.0666783,0.0,-0.0005382717,0.023737095,-0.030192971,0.0,0.0,0.0,0.0,0.0,0.0,0.010145875,0.032994606,-0.7137507
78696351,0.24960276,-0.18954611,-0.7533496,3.0666783,0.0,0.006871344,0.03729949,-0.025510311,0.0,0.0,0.0,0.0,0.0,0.0,0.011168161,0.031932198,-0.7158433
78796387,0.24960276,-0.18954611,-0.7533496,3.0666783,0.0,0.013117215,0.049694363,-0.023616433,0.0,0.0,0.0,0.0,0.0,0.0,0.015548842,0.030567333,-0.7184921
78896699,0.24960276,-0.18954611,-0.7533496,3.0666783,0.0,0.01885484,0.062252596,-0.024042487,0.0,0.0,0.0,0.0,0.0,0.0,0.01314174,0.03465076,-0.7235979
78996591,0.24960276,-0.18954611,-0.7533496,3.0666783,0.0,0.02247195,0.07241484,-0.025773942,0.0,0.0,0.0,0.0,0.0,0.0,0.012270647,0.031147238,-0.7243719
79096753,0.24960276,-0.18954611,-0.7533496,3.0666783,0.0,0.02494529,0.081558175,-0.029405594,0.0,0.0,0.0,0.0,0.0,0.0,0.012476176,0.031139288,-0.7263379
79196869,0.24960276,-0.18954611,-0.7533496,3.0666783,0.0,0.025087474,0.088330455,-0.032607436,0.0,0.0,0.0,0.0,0.0,0.0,0.008841936,0.02916357,-0.7313832
79296915,0.24960276,-0.18954611,-0.7533496,3.0666783,0.0,0.023518113,0.092844754,-0.036473274,0.0,0.0,0.0,0.0,0.0,0.0,0.004629111,0.030703632,-0.7296208
79396949,0.24960276,-0.18954611,-0.7533496,3.0666783,0.0,0.021105688,0.09471347,-0.039835334,0.0,0.0,0.0,0.0,0.0,0.0,0.0074391733,0.027027307,-0.732348
79497040,0.24960276,-0.18954611,-0.7533496,3.0666783,0.0,0.016696641,0.09399225,-0.041778088,0.0,0.0,0.0,0.0,0.0,0.0,0.0066252965,0.024015613,-0.7295091
79597161,0.24960276,-0.18954611,-0.7533496,3.0666783,0.0,0.011817996,0.09149052,-0.042336166,0.0,0.0,0.0,0.0,0.0,0.0,0.0025936933,0.02387302,-0.72726333
79697215,0.24960276,-0.18954611,-0.7533496,3.0666783,0.0,0.0055862246,0.08729086,-0.040866196,0.0,0.0,0.0,0.0,0.0,0.0,0.004363504,0.024605162,-0.72869384
79797386,0.24960276,-0.18954611,-0.7533496,3.0666783,0.0,-4.4478475e-05,0.082591854,-0.038654923,0.0,0.0,0.0,0.0,0.0,0.0,0.003589137,0.023410011,-0.7259005
79897785,0.24960276,-0.18954611,-0.7533496,3.0666783,0.0,-0.005302678,0.076884,-0.03607911,0.0,0.0,0.0,0.0,0.0,0.0,0.0047084056,0.02089999,-0.72650814
80017873,0.24960276,-0.18954611,-0.7533496,3.0666783,0.0,-0.010397573,0.07056871,-0.03374213,0.0,0.0,0.0,0.0,0.0,0.0,0.004055308,0.022289468,-0.72709334
80117984,0.24960276,-0.18954611,-0.7533496,3.0666783,0.0,-0.013338956,0.06663589,-0.03342825,0.0,0.0,0.0,0.0,0.0,0.0,0.0034844857,0.019408274,-0.72892237
80218020,0.24960276,-0.18954611,-0.7533496,3.0666783,0.0,-0.015021749,0.06407089,-0.034899592,0.0,0.0,0.0,0.0,0.0,0.0,0.0033964147,0.025097929,-0.7310005
80318020,0.24960276,-0.18954611,-0.7533496,3.0666783,0.0,-0.015337741,0.06285205,-0.037653744,0.0,0.0,0.0,0.0,0.0,0.0,0.006392798,0.021846069,-0.73461384
80418013,0.24960276,-0.18954611,-0.7533496,3.0666783,0.0,-0.014424049,0.062957086,-0.04140997,0.0,0.0,0.0,0.0,0.0,0.0,0.008912655,0.023530422,-0.73493135
80518440,0.24960276,-0.18954611,-0.7533496,3.0666783,0.0,-0.0127299605,0.06384467,-0.045475483,0.0,0.0,0.0,0.0,0.0,0.0,0.006497016,0.026478574,-0.7372551
80618469,0.24960276,-0.18954611,-0.7533496,3.0666783,0.0,-0.010703996,0.065419115,-0.050278068,0.0,0.0,0.0,0.0,0.0,0.0,0.009057604,0.026627105,-0.7395114
80718834,0.24960276,-0.18954611,-0.7533496,3.0666783,0.0,-0.009043485,0.0675987,-0.05531591,0.0,0.0,0.0,0.0,0.0,0.0,0.009125668,0.023550091,-0.74086416
80818497,0.24960276,-0.18954611,-0.7533496,3.0666783,0.0,-0.008077331,0.06970168,-0.06010723,0.0,0.0,0.0,0.0,0.0,0.0,0.0075607714,0.0279544,-0.74314106
80919328,0.24960276,-0.18954611,-0.7533496,3.0666783,0.0,-0.0077779857,0.072013825,-0.06574905,0.0,0.0,0.0,0.0,0.0,0.0,0.005511733,0.027448712,-0.7439624
81018596,0.24960276,-0.18954611,-0.7533496,3.0666783,0.0,-0.008686666,0.07443072,-0.07058138,0.0,0.0,0.0,0.0,0.0,0.0,0.006249327,0.027818242,-0.74678206
81138691,0.24960276,-0.18954611,-0.7533496,3.0666783,0.0,-0.011496228,0.07741268,-0.07588053,0.0,0.0,0.0,0.0,0.0,0.0,0.005340196,0.02842351,-0.74535906
81239235,0.24960276,-0.18954611,-0.7533496,3.0666783,0.0,-0.014813908,0.079951234,-0.07949346,0.0,0.0,0.0,0.0,0.0,0.0,0.005373703,0.025760425,-0.745679
81338862,0.24960276,-0.18954611,-0.7533496,3.0666783,0.0,-0.018397555,0.08178923,-0.08164525,0.0,0.0,0.0,0.0,0.0,0.0,0.0038973598,0.030994643,-0.7419443
81439251,0.24960276,-0.18954611,-0.7533496,3.0666783,0.0,-0.02234773,0.08338774,-0.081841886,0.0,0.0,0.0,0.0,0.0,0.0,0.0032656624,0.029200036,-0.7401075
81539236,0.24960276,-0.18954611,-0.7533496,3.0666783,0.0,-0.026516447,0.08566149,-0.080262125,0.0,0.0,0.0,0.0,0.0,0.0,0.005504139,0.031501994,-0.7392682
81639369,0.24960276,-0.18954611,-0.7533496,3.0666783,0.0,-0.030105473,0.087806374,-0.078484535,0.0,0.0,0.0,0.0,0.0,0.0,0.002792099,0.028671365,-0.7395151
81739397,0.24960276,-0.18954611,-0.7533496,3.0666783,0.0,-0.03274103,0.08836721,-0.07775706,0.0,0.0,0.0,0.0,0.0,0.0,0.0046400307,0.025068777,-0.74133945
81839575,0.24960276,-0.18954611,-0.7533496,3.0666783,0.0,-0.034693297,0.08736841,-0.07830101,0.0,0.0,0.0,0.0,0.0,0.0,0.00030557672,0.026330926,-0.7407689
81939459,0.24960276,-0.18954611,-0.7533496,3.0666783,0.0,-0.035791103,0.08468747,-0.07970387,0.0,0.0,0.0,0.0,0.0,0.0,0.0027117075,0.023616495,-0.7428193
82039572,0.24960276,-0.18954611,nan,3.0666783,0.0,-0.03667048,0.08012402,-0.14610894,0.0,0.0,0.0,0.0,0.0,0.0,0.0027802316,0.025041962,-0.7547704
82159757,0.24960276,-0.18954611,nan,3.0666783,0.0,-0.037036102,0.073847264,-0.14824161,0.0,0.0,0.0,0.0,0.0,0.0,0.0016339421,0.02596088,-0.7534167
82259986,0.24960276,-0.18954611,nan,3.0666783,0.0,-0.037042897,0.06856548,-0.14857896,0.0,0.0,0.0,0.0,0.0,0.0,0.0034700956,0.020229273,-0.7483034
82360115,0.24960276,-0.18954611,nan,3.0666783,0.0,-0.036730897,0.06358565,-0.14859445,0.0,0.0,0.0,0.0,0.0,0.0,0.0027982588,0.0271917,-0.7432182
82460152,0.24960276,-0.18954611,nan,3.0666783,0.0,-0.03588963,0.059782665,-0.14859445,0.0,0.0,0.0,0.0,0.0,0.0,0.007354306,0.025068142,-0.7399891
82560256,0.24960276,-0.18954611,nan,3.0666783,0.0,-0.03454296,0.05701465,-0.14859445,0.0,0.0,0.0,0.0,0.0,0.0,0.007087739,0.03159532,-0.7335919
82660225,0.24960276,-0.18954611,nan,3.0666783,0.0,-0.032657478,0.056175493,-0.14859445,0.0,0.0,0.0,0.0,0.0,0.0,0.0019756956,0.02578986,-0.72971493
82760374,0.24960276,-0.18954611,nan,3.0666783,0.0,-0.03051028,0.056725614,-0.14859445,0.0,0.0,0.0,0.0,0.0,0.0,0.0036286013,0.026376024,-0.72737265
82860416,0.24960276,-0.18954611,nan,3.0666783,0.0,-0.028888756,0.058109358,-0.14859445,0.0,0.0,0.0,0.0,0.0,0.0,0.006603949,0.027410544,-0.7296618
82960969,0.24960276,-0.18954611,nan,3.0666783,0.0,-0.02779967,0.06016593,-0.14859445,0.0,0.0,0.0,0.0,0.0,0.0,-0.00086182076,0.02763157,-0.729747
83060971,0.24960276,-0.18954611,nan,3.0666783,0.0,-0.027357943,0.061114416,-0.14859445,0.0,0.0,0.0,0.0,0.0,0.0,0.0035539065,0.025976658,-0.73247516
83161148,0.24960276,-0.18954611,nan,3.0666783,0.0,-0.027919402,0.062363323,-0.14859445,0.0,0.0,0.0,0.0,0.0,0.0,-0.0019901232,0.029611664,-0.73109186
83281132,0.24960276,-0.18954611,nan,3.0666783,0.0,-0.030167816,0.0625933,-0.14859445,0.0,0.0,0.0,0.0,0.0,0.0,-0.00339319,0.028722946,-0.72942764
83381193,0.24960276,-0.18954611,nan,3.0666783,0.0,-0.032971036,0.06270938,-0.14859445,0.0,0.0,0.0,0.0,0.0,0.0,0.0030074432,0.030416325,-0.73230034
83481207,0.24960276,-0.18954611,nan,3.0666783,0.0,-0.03674225,0.06316504,-0.14859445,0.0,0.0,0.0,0.0,0.0,0.0,-0.0012922394,0.034814794,-0.7328394
83581220,0.24960276,-0.18954611,nan,3.0666783,0.0,-0.040131588,0.06455814,-0.14859445,0.0,0.0,0.0,0.0,0.0,0.0,-0.0016913237,0.031249478,-0.73285687
83681561,0.24960276,-0.18954611,nan,3.0666783,0.0,-0.043171585,0.06767393,-0.14859445,0.0,0.0,0.0,0.0,0.0,0.0,-0.0013958421,0.034304664,-0.73451185
83781919,0.24960276,-0.18954611,nan,3.0666783,0.0,-0.044744637,0.07220753,-0.14693546,0.0,0.0,0.0,0.0,0.0,0.0,0.0034840293,0.035026353,-0.7384068
83881561,0.24960276,-0.18954611,nan,3.0666783,0.0,-0.044257186,0.07830862,-0.14062293,0.0,0.0,0.0,0.0,0.0,0.0,0.00012720376,0.03746128,-0.7362515
83982860,0.24960276,-0.18954611,nan,3.0666783,0.0,-0.0412583,0.086082585,-0.14056173,0.0,0.0,0.0,0.0,0.0,0.0,0.005166761,0.03619898,-0.74208283
84081795,0.24960276,-0.18954611,nan,3.0666783,0.0,-0.036493585,0.094230555,-0.14056213,0.0,0.0,0.0,0.0,0.0,0.0,0.0064025926,0.04180732,-0.74589586
84182773,0.24960276,-0.18954611,nan,3.0666783,0.0,-0.029038187,0.10356959,-0.14056213,0.0,0.0,0.0,0.0,0.0,0.0,0.0081712995,0.040439043,-0.74972206
84281797,0.24960276,-0.18954611,nan,3.0666783,0.0,-0.02067346,0.11159585,-0.13192423,0.0,0.0,0.0,0.0,0.0,0.0,0.0107767675,0.04310838,-0.7471815
84382460,0.24960276,-0.18954611,nan,3.0666783,0.0,-0.010933437,0.11932395,-0.12135632,0.0,0.0,0.0,0.0,0.0,0.0,0.013273529,0.04312373,-0.74762106
84503198,0.24960276,-0.18954611,nan,3.0666783,0.0,0.00055159256,0.12627481,-0.10000594,0.0,0.0,0.0,0.0,0.0,0.0,0.011253543,0.040595226,-0.74270403
84602172,0.24960276,-0.18954611,nan,3.0666783,0.0,0.009177373,0.1304231,-0.100406885,0.0,0.0,0.0,0.0,0.0,0.0,0.012289045,0.041372776,-0.7421163
84702441,0.24960276,-0.18954611,nan,3.0666783,0.0,0.016974866,0.13240282,-0.10040252,0.0,0.0,0.0,0.0,0.0,0.0,0.012889151,0.041451897,-0.7443322
84802489,0.24960276,-0.18954611,nan,3.0666783,0.0,0.022858595,0.13294582,-0.10040172,0.0,0.0,0.0,0.0,0.0,0.0,0.011881079,0.038828865,-0.7431091
84903452,0.24960276,-0.18954611,nan,3.0666783,0.0,0.027408807,0.13134655,-0.10040172,0.0,0.0,0.0,0.0,0.0,0.0,0.01396879,0.03816278,-0.74522257
85002636,0.24960276,-0.18954611,nan,3.0666783,0.0,0.029959466,0.12807263,-0.10040172,0.0,0.0,0.0,0.0,0.0,0.0,0.009839253,0.036380734,-0.7427711
85102614,0.24960276,-0.18954611,nan,3.0666783,0.0,0.031505015,0.12230055,-0.10040172,0.0,0.0,0.0,0.0,0.0,0.0,0.013736382,0.032148127,-0.74377817
85202726,0.24960276,-0.18954611,nan,3.0666783,0.0,0.03145373,0.1152695,-0.10040172,0.0,0.0,0.0,0.0,0.0,0.0,0.009265515,0.033162385,-0.74317855
85302995,0.24960276,-0.18954611,-0.8762717,3.0666783,0.0,0.03087555,0.10571715,0.0010201335,0.0,0.0,0.0,0.0,0.0,0.0,0.012300494,0.027587254,-0.7244706
85403260,0.24960276,-0.18954611,-0.8762717,3.0666783,0.0,0.030245066,0.09632585,0.0032561421,0.0,0.0,0.0,0.0,0.0,0.0,0.00921938,0.02758665,-0.72292
85503153,0.24960276,-0.18954611,-0.8762717,3.0666783,0.0,0.029867169,0.085560195,0.0048019886,0.0,0.0,0.0,0.0,0.0,0.0,0.013019167,0.028451502,-0.7262931
85603248,0.24960276,-0.18954611,-0.8762717,3.0666783,0.0,0.029995197,0.075631276,0.0046090484,0.0,0.0,0.0,0.0,0.0,0.0,0.00909889,0.026912447,-0.7299784
85723325,0.24960276,-0.18954611,-0.8762717,3.0666783,0.0,0.031081961,0.06452001,0.0015134811,0.0,0.0,0.0,0.0,0.0,0.0,0.013492387,0.025362113,-0.73539233
85823400,0.24960276,-0.18954611,-0.8762717,3.0666783,0.0,0.032875735,0.05618659,-0.004038632,0.0,0.0,0.0,0.0,0.0,0.0,0.014622298,0.02747447,-0.7403074
85923467,0.24960276,-0.18954611,-0.8762717,3.0666783,0.0,0.034632083,0.050666984,-0.01039356,0.0,0.0,0.0,0.0,0.0,0.0,0.012544708,0.029824968,-0.7399351
86023608,0.24960276,-0.18954611,-0.8762717,3.0666783,0.0,0.037257276,0.046314735,-0.018444657,0.0,0.0,0.0,0.0,0.0,0.0,0.013364539,0.029978426,-0.7461207
86123643,0.24960276,-0.18954611,-0.8762717,3.0666783,0.0,0.040082455,0.044150252,-0.026182473,0.0,0.0,0.0,0.0,0.0,0.0,0.012481612,0.029768214,-0.7468952
86223908,0.24960276,-0.18954611,-0.8762717,3.0666783,0.0,0.043545943,0.043384366,-0.0338611,0.0,0.0,0.0,0.0,0.0,0.0,0.015712809,0.03053817,-0.7476041
86323971,0.24960276,-0.18954611,-0.8762717,3.0666783,0.0,0.04633748,0.043898683,-0.039277196,0.0,0.0,0.0,0.0,0.0,0.0,0.009195471,0.032041807,-0.74611557
86424103,0.24960276,-0.18954611,-0.8762717,3.0666783,0.0,0.04836015,0.04571637,-0.043922186,0.0,0.0,0.0,0.0,0.0,0.0,0.011418916,0.029975418,-0.7476389
86524154,0.24960276,-0.18954611,-0.8762717,3.0666783,0.0,0.049250524,0.04851005,-0.04720974,0.0,0.0,0.0,0.0,0.0,0.0,0.013552319,0.036160447,-0.747438
86624170,0.24960276,-0.18954611,-0.8762717,3.0666783,0.0,0.04921287,0.05225053,-0.049449027,0.0,0.0,0.0,0.0,0.0,0.0,0.010573136,0.0346942,-0.74689364
86724286,0.24960276,-0.18954611,-0.8762717,3.0666783,0.0,0.048344452,0.055939484,-0.05025816,0.0,0.0,0.0,0.0,0.0,0.0,0.01205149,0.034360982,-0.7451047
86824356,0.24960276,-0.18954611,-0.8762717,3.0666783,0.0,0.046417806,0.05906119,-0.05048865,0.0,0.0,0.0,0.0,0.0,0.0,0.009469697,0.037100926,-0.7433845
86944617,0.24960276,-0.18954611,-0.8762717,3.0666783,0.0,0.043101527,0.06165065,-0.051577866,0.0,0.0,0.0,0.0,0.0,0.0,0.010974612,0.033268094,-0.7477232
87045218,0.24960276,-0.18954611,-0.8762717,3.0666783,0.0,0.040057708,0.062042207,-0.054677725,0.0,0.0,0.0,0.0,0.0,0.0,0.008282325,0.033047035,-0.7507218
87145574,0.24960276,-0.18954611,-0.8762717,3.0666783,0.0,0.036162898,0.06022799,-0.061362565,0.0,0.0,0.0,0.0,0.0,0.0,0.008854589,0.028969513,-0.75995386
87245504,0.24960276,-0.18954611,-0.8762717,3.0666783,0.0,0.03207106,0.056365993,-0.07106787,0.0,0.0,0.0,0.0,0.0,0.0,0.01089644,0.026934935,-0.7665819
87345545,0.24960276,-0.18954611,-0.8762717,3.0666783,0.0,0.027785245,0.049556356,-0.0860703,0.0,0.0,0.0,0.0,0.0,0.0,0.0080572255,0.024751404,-0.77585226
87445404,0.24960276,-0.18954611,-0.8762717,3.0666783,0.0,0.023448594,0.041488793,-0.10342926,0.0,0.0,0.0,0.0,0.0,0.0,0.0063249585,0.02720222,-0.7853794
87545374,0.24960276,-0.18954611,-0.8762717,3.0666783,0.0,0.018466862,0.031927276,-0.12436503,0.0,0.0,0.0,0.0,0.0,0.0,0.005879962,0.023669675,-0.79196125
87645607,0.24960276,-0.18954611,-0.8762717,3.0666783,0.0,0.013925854,0.022562776,-0.14502257,0.0,0.0,0.0,0.0,0.0,0.0,0.008205906,0.025873046,-0.79913485
87745540,0.24960276,-0.18954611,-0.8762717,3.0666783,0.0,0.008868557,0.012781517,-0.16650677,0.0,0.0,0.0,0.0,0.0,0.0,0.005076008,0.02405158,-0.8028511
87846776,0.24960276,-0.18954611,-0.8762717,3.0666783,0.0,0.0035310984,0.004307532,-0.18660212,0.0,0.0,0.0,0.0,0.0,0.0,0.0028380868,0.02438208,-0.80612534
87945709,0.24960276,-0.18954611,-0.8762717,3.0666783,0.0,-0.0013934701,-0.001944907,-0.20350283,0.0,0.0,0.0,0.0,0.0,0.0,0.0044347285,0.026418233,-0.8115569
88065730,0.24960276,-0.18954611,-0.8762717,3.0666783,0.0,-0.0075212223,-0.0054643266,-0.22171408,0.0,0.0,0.0,0.0,0.0,0.0,0.0007848339,0.023784878,-0.810055
88165883,0.24960276,-0.18954611,-0.8762717,3.0666783,0.0,-0.012012218,-0.0063192276,-0.235098,0.0,0.0,0.0,0.0,0.0,0.0,0.0038547155,0.02653694,-0.8112594
88265838,0.24960276,-0.18954611,-0.8762717,3.0666783,0.0,-0.015166566,-0.004495483,-0.2449463,0.0,0.0,0.0,0.0,0.0,0.0,0.0016624574,0.03133208,-0.8086525
88365926,0.24960276,-0.18954611,-0.8762717,3.0666783,0.0,-0.017737398,-0.0014746271,-0.2532736,0.0,0.0,0.0,0.0,0.0,0.0,0.0037793498,0.032960888,-0.8097435
88465978,0.24960276,-0.18954611,-0.8762717,3.0666783,0.0,-0.01902467,0.0029146567,-0.25885457,0.0,0.0,0.0,0.0,0.0,0.0,0.005921104,0.031841256,-0.8079094
88566213,0.24960276,-0.18954611,-0.8762717,3.0666783,0.0,-0.019653626,0.008053761,-0.2633127,0.0,0.0,0.0,0.0,0.0,0.0,0.007266359,0.029136684,-0.80638677
88666400,0.24960276,-0.18954611,-0.8762717,3.0666783,0.0,-0.01950442,0.0122465575,-0.2678008,0.0,0.0,0.0,0.0,0.0,0.0,0.0068417494,0.029493326,-0.8102162
88766463,0.24960276,-0.18954611,-0.8762717,3.0666783,0.0,-0.018866546,0.01534857,-0.27408522,0.0,0.0,0.0,0.0,0.0,0.0,0.005062986,0.03335935,-0.81294703
88866566,0.24960276,-0.18954611,-0.8762717,3.0666783,0.0,-0.01787123,0.017478907,-0.28050715,0.0,0.0,0.0,0.0,0.0,0.0,0.0048900824,0.029952796,-0.81535804
88966591,0.24960276,-0.18954611,-0.8762717,3.0666783,0.0,-0.016877359,0.017597862,-0.28820688,0.0,0.0,0.0,0.0,0.0,0.0,0.008620698,0.028862234,-0.8159174
89066616,0.24960276,-0.18954611,-0.8762717,3.0666783,0.0,-0.01547313,0.017353484,-0.29597205,0.0,0.0,0.0,0.0,0.0,0.0,0.008691769,0.027459078,-0.8182129
89166752,0.24960276,-0.18954611,-0.8762717,3.0666783,0.0,-0.013951235,0.015257887,-0.30361867,0.0,0.0,0.0,0.0,0.0,0.0,0.004664669,0.02860388,-0.81762093
89266782,0.24960276,-0.18954611,-0.8762717,3.0666783,0.0,-0.01208447,0.013427644,-0.30992138,0.0,0.0,0.0,0.0,0.0,0.0,0.0063514765,0.030408774,-0.8186186
89386967,0.24960276,-0.18954611,-0.8762717,3.0666783,0.0,-0.009681982,0.010873345,-0.31511378,0.0,0.0,0.0,0.0,0.0,0.0,0.0059216246,0.030862257,-0.81580913
89487158,0.24960276,-0.18954611,-0.8762717,3.0666783,0.0,-0.007162592,0.009252571,-0.316168,0.0,0.0,0.0,0.0,0.0,0.0,0.010985225,0.027029905,-0.8117459
89587245,0.24960276,-0.18954611,-0.8762717,3.0666783,0.0,-0.004117444,0.008135059,-0.31371295,0.0,0.0,0.0,0.0,0.0,0.0,0.01172149,0.031731695,-0.8063105
89687350,0.24960276,-0.18954611,-0.8762717,3.0666783,0.0,-0.00032863393,0.007591522,-0.30671299,0.0,0.0,0.0,0.0,0.0,0.0,0.008687337,0.026339741,-0.79500073
89787372,0.24960276,-0.18954611,-0.8762717,3.0666783,0.0,0.003769119,0.00719307,-0.29642743,0.0,0.0,0.0,0.0,0.0,0.0,0.010651487,0.025939237,-0.78712606
89887475,0.24960276,-0.18954611,-0.8762717,3.0666783,0.0,0.007994687,0.006989689,-0.28010613,0.0,0.0,0.0,0.0,0.0,0.0,0.012277122,0.023532216,-0.7769979
89987575,0.24960276,-0.18954611,-0.8762717,3.0666783,0.0,0.011567192,0.006250486,-0.2608223,0.0,0.0,0.0,0.0,0.0,0.0,0.0104001695,0.026133787,-0.764542
90087635,0.24960276,-0.18954611,-0.8762717,3.0666783,0.0,0.01574102,0.004963639,-0.23736727,0.0,0.0,0.0,0.0,0.0,0.0,0.009442086,0.021273758,-0.75554454
90187785,0.24960276,-0.18954611,-0.8762717,3.0666783,0.0,0.019671943,0.0027520314,-0.21313673,0.0,0.0,0.0,0.0,0.0,0.0,0.012757944,0.025057264,-0.7473399
90288181,0.24960276,-0.18954611,-0.8762717,3.0666783,0.0,0.024122933,-0.00051783025,-0.18530959,0.0,0.0,0.0,0.0,0.0,0.0,0.01029864,0.02411862,-0.7347482
90388336,0.24960276,-0.18954611,-0.8762717,3.0666783,0.0,0.028318336,-0.0041087666,-0.15891266,0.0,0.0,0.0,0.0,0.0,0.0,0.011644097,0.023347052,-0.7277136
90508309,0.24960276,-0.18954611,-0.8762717,3.0666783,0.0,0.033948995,-0.009112439,-0.12590796,0.0,0.0,0.0,0.0,0.0,0.0,0.014409919,0.025048403,-0.7210695
90608368,0.24960276,-0.18954611,-0.8762717,3.0666783,0.0,0.039407406,-0.012512296,-0.09937662,0.0,0.0,0.0,0.0,0.0,0.0,0.01488594,0.026396612,-0.7169272
90708357,0.24960276,-0.18954611,-0.8762717,3.0666783,0.0,0.04510184,-0.013681732,-0.0776028,0.0,0.0,0.0,0.0,0.0,0.0,0.015423223,0.028354188,-0.71647966
90808433,0.24960276,-0.18954611,-0.8762717,3.0666783,0.0,0.051060878,-0.013003272,-0.057183206,0.0,0.0,0.0,0.0,0.0,0.0,0.016034894,0.028167527,-0.7176011
90908427,0.24960276,-0.18954611,-0.8762717,3.0666783,0.0,0.056106173,-0.009682533,-0.042511404,0.0,0.0,0.0,0.0,0.0,0.0,0.014799897,0.032836728,-0.72055864
91008811,0.24960276,-0.18954611,-0.8762717,3.0666783,0.0,0.061152227,-0.0031747327,-0.031704664,0.0,0.0,0.0,0.0,0.0,0.0,0.014825236,0.033084422,-0.7244758
91108884,0.24960276,-0.18954611,-0.8762717,3.0666783,0.0,0.06532043,0.0043816254,-0.025351286,0.0,0.0,0.0,0.0,0.0,0.0,0.01756865,0.03694698,-0.73088014
91209031,0.24960276,-0.18954611,-0.8762717,3.0666783,0.0,0.0690047,0.013917318,-0.021536827,0.0,0.0,0.0,0.0,0.0,0.0,0.015265908,0.037503656,-0.73401934
91310955,0.24960276,-0.18954611,-0.8762717,3.0666783,0.0,0.07140446,0.02350921,-0.020358086,0.0,0.0,0.0,0.0,0.0,0.0,0.015151367,0.036363147,-0.74062055
91408984,0.24960276,-0.18954611,-0.8762717,3.0666783,0.0,0.072458,0.031015357,-0.02045381,0.0,0.0,0.0,0.0,0.0,0.0,0.013448395,0.035309892,-0.74052626
91511647,0.24960276,-0.18954611,-0.8762717,3.0666783,0.0,0.07224273,0.036695167,-0.0201329,0.0,0.0,0.0,0.0,0.0,0.0,0.0168317,0.032678332,-0.74142295
91630032,0.24960276,-0.18954611,-0.8762717,3.0666783,0.0,0.07018184,0.039487995,-0.017183304,0.0,0.0,0.0,0.0,0.0,0.0,0.010164195,0.032537986,-0.7405531
91729380,0.24960276,-0.18954611,-0.8762717,3.0666783,0.0,0.0675064,0.038379617,-0.012784958,0.0,0.0,0.0,0.0,0.0,0.0,0.014334258,0.03371583,-0.7376993
91829586,0.24960276,-0.18954611,-0.8762717,3.0666783,0.0,0.06433537,0.034587692,-0.0063620806,0.0,0.0,0.0,0.0,0.0,0.0,0.013083401,0.030237002,-0.7354979
91929605,0.24960276,-0.18954611,-0.8762717,3.0666783,0.0,0.06110789,0.02911623,0.0021022558,0.0,0.0,0.0,0.0,0.0,0.0,0.011302159,0.02741751,-0.729643
92029674,0.24960276,-0.18954611,-0.8762717,3.0666783,0.0,0.057869624,0.021508684,0.013495386,0.0,0.0,0.0,0.0,0.0,0.0,0.011825759,0.027672164,-0.72541934
92129874,0.24960276,-0.18954611,-0.8762717,3.0666783,0.0,0.055952493,0.013013196,0.024984062,0.0,0.0,0.0,0.0,0.0,0.0,0.011513504,0.022503115,-0.72272307
92229856,0.24960276,-0.18954611,-0.8762717,3.0666783,0.0,0.055392124,0.0035744868,0.037695408,0.0,0.0,0.0,0.0,0.0,0.0,0.013718663,0.022329984,-0.7171193
92329947,0.24960276,-0.18954611,-0.8762717,3.0666783,0.0,0.056094196,-0.0058919825,0.049193382,0.0,0.0,0.0,0.0,0.0,0.0,0.015000751,0.017307976,-0.7179917
92430352,0.24960276,-0.18954611,-0.8762717,3.0666783,0.0,0.057725772,-0.0155168725,0.060240865,0.0,0.0,0.0,0.0,0.0,0.0,0.013179855,0.018958174,-0.7172485
92530185,0.24960276,-0.18954611,-0.8762717,3.0666783,0.0,0.060011994,-0.023722712,0.06705755,0.0,0.0,0.0,0.0,0.0,0.0,0.017597815,0.019542545,-0.7210918
92630299,0.24960276,-0.18954611,-0.8762717,3.0666783,0.0,0.062824264,-0.031865798,0.07033694,0.0,0.0,0.0,0.0,0.0,0.0,0.01535027,0.01895091,-0.7276405
92730439,0.24960276,-0.18954611,-0.8762717,3.0666783,0.0,0.06512478,-0.038844418,0.06942278,0.0,0.0,0.0,0.0,0.0,0.0,0.016095113,0.01721374,-0.7307174
92850599,0.24960276,-0.18954611,-0.8762717,3.0666783,0.0,0.06694755,-0.046727188,0.06412673,0.0,0.0,0.0,0.0,0.0,0.0,0.013086826,0.019502044,-0.7377935
92950542,0.24960276,-0.18954611,-0.8762717,3.0666783,0.0,0.06709891,-0.052399,0.056797028,0.0,0.0,0.0,0.0,0.0,0.0,0.0156643,0.018721793,-0.74259746
93050724,0.24960276,-0.18954611,-0.8762717,3.0666783,0.0,0.066107176,-0.05692442,0.048524737,0.0,0.0,0.0,0.0,0.0,0.0,0.0102512315,0.019847097,-0.7458351
93150787,0.24960276,-0.18954611,-0.8762717,3.0666783,0.0,0.063444905,-0.06112809,0.03928268,0.0,0.0,0.0,0.0,0.0,0.0,0.0107506085,0.018945705,-0.7495198
93250842,0.24960276,-0.18954611,-0.8762717,3.0666783,0.0,0.058914047,-0.06438995,0.031371415,0.0,0.0,0.0,0.0,0.0,0.0,0.011377443,0.016916353,-0.7532797
93350969,0.24960276,-0.18954611,-0.8762717,3.0666783,0.0,0.051856708,-0.068125814,0.022255182,0.0,0.0,0.0,0.0,0.0,0.0,0.0070384126,0.015316866,-0.756296
93451182,0.24960276,-0.18954611,-0.8762717,3.0666783,0.0,0.04374788,-0.0717338,0.013164699,0.0,0.0,0.0,0.0,0.0,0.0,0.0064555774,0.0145043,-0.7620114
93551250,0.24960276,-0.18954611,-0.8762717,3.0666783,0.0,0.03300889,-0.07646657,0.003132522,0.0,0.0,0.0,0.0,0.0,0.0,0.0036844374,0.012988448,-0.76558125
93651469,0.24960276,-0.18954611,-0.8762717,3.0666783,0.0,0.021558315,-0.08170387,-0.0061021447,0.0,0.0,0.0,0.0,0.0,0.0,0.0015562931,0.013315505,-0.76430357
93751472,0.24960276,-0.18954611,-0.8762717,3.0666783,0.0,0.0077525047,-0.088211656,-0.015672326,0.0,0.0,0.0,0.0,0.0,0.0,0.0014360212,0.0077343024,-0.7683115
93851408,0.24960276,-0.18954611,-0.8762717,3.0666783,0.0,-0.0061233924,-0.09547462,-0.024302661,0.0,0.0,0.0,0.0,0.0,0.0,-0.0019628806,0.010110739,-0.77117753
93971548,0.24960276,-0.18954611,-0.8762717,3.0666783,0.0,-0.023826024,-0.105441295,-0.03568256,0.0,0.0,0.0,0.0,0.0,0.0,-0.007749388,0.0053549036,-0.7742152
94071747,0.24960276,-0.18954611,-0.8762717,3.0666783,0.0,-0.039158046,-0.11549273,-0.046003222,0.0,0.0,0.0,0.0,0.0,0.0,-0.0056307185,0.0026749335,-0.7783041
94171769,0.24960276,-0.18954611,-0.8762717,3.0666783,0.0,-0.0526205,-0.12414012,-0.056173086,0.0,0.0,0.0,0.0,0.0,0.0,-0.008213993,0.004212346,-0.78071046
94272550,0.24960276,-0.18954611,-0.8762717,3.0666783,0.0,-0.065812714,-0.13315736,-0.0687114,0.0,0.0,0.0,0.0,0.0,0.0,-0.010715534,0.004391806,-0.7865659
94372739,0.24960276,-0.18954611,-0.8762717,3.0666783,0.0,-0.07643223,-0.14078915,-0.08073002,0.0,0.0,0.0,0.0,0.0,0.0,-0.005372015,0.0030618943,-0.79208076
94472589,0.24960276,-0.18954611,-0.8762717,3.0666783,0.0,-0.08604918,-0.14829984,-0.09463155,0.0,0.0,0.0,0.0,0.0,0.0,-0.008844074,0.0052328743,-0.7957128
94572423,0.24960276,-0.18954611,-0.8762717,3.0666783,0.0,-0.093155086,-0.15353201,-0.11045486,0.0,0.0,0.0,0.0,0.0,0.0,-0.0070277336,0.0053603295,-0.80350953
94672431,0.24960276,-0.18954611,-0.8762717,3.0666783,0.0,-0.09780505,-0.15540172,-0.12588304,0.0,0.0,0.0,0.0,0.0,0.0,-0.0022850954,0.0061267167,-0.80578846
94773223,0.24960276,-0.18954611,-0.8762717,3.0666783,0.0,-0.10052707,-0.1551864,-0.14322716,0.0,0.0,0.0,0.0,0.0,0.0,-0.0017089914,0.009192053,-0.81065166
94872602,0.24960276,-0.18954611,-0.8762717,3.0666783,0.0,-0.1005461,-0.15236758,-0.16068834,0.0,0.0,0.0,0.0,0.0,0.0,3.7157908e-05,0.010873452,-0.8208252
94972563,0.24960276,-0.18954611,-0.8762717,3.0666783,0.0,-0.0991028,-0.14724948,-0.17894357,0.0,0.0,0.0,0.0,0.0,0.0,0.0014720601,0.013524762,-0.8264912
95093616,0.24960276,-0.18954611,-0.8762717,3.0666783,0.0,-0.09580825,-0.13631216,-0.20320863,0.0,0.0,0.0,0.0,0.0,0.0,-0.0005003838,0.015623305,-0.8321417
95192873,0.24960276,-0.18954611,-0.8762717,3.0666783,0.0,-0.09244391,-0.12515803,-0.22199005,0.0,0.0,0.0,0.0,0.0,0.0,0.0023311542,0.017103452,-0.8372851
95293151,0.24960276,-0.18954611,-0.8762717,3.0666783,0.0,-0.08884866,-0.11263343,-0.24163985,0.0,0.0,0.0,0.0,0.0,0.0,0.0012660427,0.020657824,-0.8422117
95392983,0.24960276,-0.18954611,-0.8762717,3.0666783,0.0,-0.085084036,-0.10126761,-0.26028776,0.0,0.0,0.0,0.0,0.0,0.0,0.0032609333,0.018753918,-0.84568477
95493042,0.24960276,-0.18954611,-0.8762717,3.0666783,0.0,-0.081087604,-0.0901238,-0.27941,0.0,0.0,0.0,0.0,0.0,0.0,0.0013587996,0.02065945,-0.8484812
95593376,0.24960276,-0.18954611,-0.8762717,3.0666783,0.0,-0.0780621,-0.08123508,-0.29475355,0.0,0.0,0.0,0.0,0.0,0.0,0.0070185643,0.01921401,-0.8501609
95693206,0.24960276,-0.18954611,-0.8762717,3.0666783,0.0,-0.07459137,-0.07330923,-0.31044525,0.0,0.0,0.0,0.0,0.0,0.0,0.00067641446,0.022971706,-0.84947455
95793606,0.24960276,-0.18954611,-0.8762717,3.0666783,0.0,-0.072040126,-0.06777705,-0.32302076,0.0,0.0,0.0,0.0,0.0,0.0,0.0049383705,0.022827275,-0.85032284
95893561,0.24960276,-0.18954611,-0.8762717,3.0666783,0.0,-0.0690751,-0.06319451,-0.3333848,0.0,0.0,0.0,0.0,0.0,0.0,0.0070293746,0.019437464,-0.8467782
95993683,0.24960276,-0.18954611,-0.8762717,3.0666783,0.0,-0.06567608,-0.059931915,-0.33921534,0.0,0.0,0.0,0.0,0.0,0.0,0.007712286,0.019209662,-0.8392753
96093745,0.24960276,-0.18954611,-0.8762717,3.0666783,0.0,-0.061256316,-0.057735566,-0.34030157,0.0,0.0,0.0,0.0,0.0,0.0,0.010128658,0.023978619,-0.8326317
96193768,0.24960276,-0.18954611,-0.8762717,3.0666783,0.0,-0.0561548,-0.055403307,-0.33677077,0.0,0.0,0.0,0.0,0.0,0.0,0.0071001314,0.0233762,-0.82367855
96293807,0.24960276,-0.18954611,-0.8762717,3.0666783,0.0,-0.049834408,-0.052923113,-0.32859033,0.0,0.0,0.0,0.0,0.0,0.0,0.009034999,0.019511664,-0.8154985
96414034,0.24960276,-0.18954611,-0.8762717,3.0666783,0.0,-0.041996006,-0.05002601,-0.31345844,0.0,0.0,0.0,0.0,0.0,0.0,0.0093779275,0.019742636,-0.80604094
96514179,0.24960276,-0.18954611,-0.8762717,3.0666783,0.0,-0.03522132,-0.04751673,-0.298209,0.0,0.0,0.0,0.0,0.0,0.0,0.009107411,0.018437386,-0.7946204
96614380,0.24960276,-0.18954611,-0.8762717,3.0666783,0.0,-0.027589565,-0.044390425,-0.27954596,0.0,0.0,0.0,0.0,0.0,0.0,0.009292278,0.018294984,-0.7858045
96714452,0.24960276,-0.18954611,-0.8762717,3.0666783,0.0,-0.021129144,-0.041306276,-0.26059198,0.0,0.0,0.0,0.0,0.0,0.0,0.012674855,0.02174579,-0.7809839
96814462,0.24960276,-0.18954611,-0.8762717,3.0666783,0.0,-0.014567112,-0.037881292,-0.23904806,0.0,0.0,0.0,0.0,0.0,0.0,0.011334889,0.018583793,-0.7700707
96914510,0.24960276,-0.18954611,-0.8762717,3.0666783,0.0,-0.009050903,-0.034191757,-0.21822906,0.0,0.0,0.0,0.0,0.0,0.0,0.012681393,0.025317177,-0.76232415
97014607,0.24960276,-0.18954611,-0.8762717,3.0666783,0.0,-0.00385935,-0.03024845,-0.19365525,0.0,0.0,0.0,0.0,0.0,0.0,0.016712325,0.023853755,-0.7556674
97114698,0.24960276,-0.18954611,-0.8762717,3.0666783,0.0,0.0009734303,-0.025841683,-0.17029119,0.0,0.0,0.0,0.0,0.0,0.0,0.009540841,0.02252163,-0.74502295
97214801,0.24960276,-0.18954611,-0.8762717,3.0666783,0.0,0.0061687906,-0.021299627,-0.14412534,0.0,0.0,0.0,0.0,0.0,0.0,0.010187262,0.023732811,-0.73938686
97314995,0.24960276,-0.18954611,-0.8762717,3.0666783,0.0,0.011238615,-0.016179817,-0.11939031,0.0,0.0,0.0,0.0,0.0,0.0,0.018004924,0.025903469,-0.7326461
97415350,0.24960276,-0.18954611,-0.8762717,3.0666783,0.0,0.016851878,-0.010827069,-0.09327555,0.0,0.0,0.0,0.0,0.0,0.0,0.015694728,0.025227046,-0.72754407
97535975,0.24960276,-0.18954611,-0.8762717,3.0666783,0.0,0.023232656,-0.0043712207,-0.06472111,0.0,0.0,0.0,0.0,0.0,0.0,0.014808375,0.030796764,-0.7280874
97635707,0.24960276,-0.18954611,-0.8762717,3.0666783,0.0,0.028449364,0.0010646946,-0.04434198,0.0,0.0,0.0,0.0,0.0,0.0,0.014842704,0.023084354,-0.7259719
97735939,0.24960276,-0.18954611,-0.8762717,3.0666783,0.0,0.034601536,0.0061156773,-0.025559425,0.0,0.0,0.0,0.0,0.0,0.0,0.01269355,0.026123274,-0.7256291
97835802,0.24960276,-0.18954611,-0.8762717,3.0666783,0.0,0.04053651,0.010120169,-0.011049807,0.0,0.0,0.0,0.0,0.0,0.0,0.018814206,0.023561507,-0.72953594
97936158,0.24960276,-0.18954611,-0.8762717,3.0666783,0.0,0.046289537,0.013381835,0.001612246,0.0,0.0,0.0,0.0,0.0,0.0,0.0137027735,0.025636721,-0.7296394
98036129,0.24960276,-0.18954611,-0.8762717,3.0666783,0.0,0.05080185,0.015394918,0.010564625,0.0,0.0,0.0,0.0,0.0,0.0,0.018236639,0.025102388,-0.73480046
98136021,0.24960276,-0.18954611,-0.8762717,3.0666783,0.0,0.054506857,0.016137844,0.018384933,0.0,0.0,0.0,0.0,0.0,0.0,0.015527522,0.025688304,-0.7339021
98236204,0.24960276,-0.18954611,-0.8762717,3.0666783,0.0,0.05645966,0.016282463,0.025198877,0.0,0.0,0.0,0.0,0.0,0.0,0.014255764,0.02245108,-0.7319125
98336149,0.24960276,-0.18954611,-0.8762717,3.0666783,0.0,0.05671514,0.016069626,0.03397286,0.0,0.0,0.0,0.0,0.0,0.0,0.012928632,0.025254266,-0.7305068
98436295,0.24960276,-0.18954611,-0.8762717,3.0666783,0.0,0.055308234,0.01582232,0.04310912,0.0,0.0,0.0,0.0,0.0,0.0,0.0076417276,0.026086878,-0.72800684
98536240,0.24960276,-0.18954611,-0.8762717,3.0666783,0.0,0.052075505,0.016153345,0.053842545,0.0,0.0,0.0,0.0,0.0,0.0,0.0100761335,0.022446057,-0.72984564
98636371,0.24960276,-0.18954611,-0.8762717,3.0666783,0.0,0.048009362,0.016828535,0.06330788,0.0,0.0,0.0,0.0,0.0,0.0,0.00817124,0.026511567,-0.72954506
98736424,0.24960276,-0.18954611,-0.8762717,3.0666783,0.0,0.042634416,0.017907089,0.07218468,0.0,0.0,0.0,0.0,0.0,0.0,0.007204227,0.025485162,-0.73199695
98856564,0.24960276,-0.18954611,-0.8762717,3.0666783,0.0,0.035299968,0.019423956,0.08019674,0.0,0.0,0.0,0.0,0.0,0.0,0.005431693,0.022142755,-0.7325581
98956577,0.24960276,-0.18954611,-0.8762717,3.0666783,0.0,0.02875365,0.019990796,0.08467221,0.0,0.0,0.0,0.0,0.0,0.0,0.0057928767,0.021362744,-0.73388267
99056909,0.24960276,-0.18954611,-0.8762717,3.0666783,0.0,0.02317504,0.019895822,0.08698028,0.0,0.0,0.0,0.0,0.0,0.0,0.006564998,0.022533914,-0.73900753
99158390,0.24960276,-0.18954611,-0.8762717,3.0666783,0.0,0.018127343,0.018500455,0.08686745,0.0,0.0,0.0,0.0,0.0,0.0,0.0023085857,0.02317113,-0.74042517
99357605,0.24960276,-0.18954611,-0.8762717,3.0666783,0.0,0.011140216,0.0122092,0.08095455,0.0,0.0,0.0,0.0,0.0,0.0,0.0046713725,0.021085748,-0.749365
99857555,0.24960276,-0.18954611,-0.8762717,3.0666783,0.0,0.005021552,-0.009784174,0.057183444,0.0,0.0,0.0,0.0,0.0,0.0,0.009487576,0.016972568,-0.7528633
99957679,0.24960276,-0.18954611,-0.8762717,3.0666783,0.0,0.0063227243,-0.012038067,0.055606604,0.0,0.0,0.0,0.0,0.0,0.0,0.011365034,0.018942885,-0.7521547
100057736,0.24960276,-0.18954611,-0.8762717,3.0666783,0.0,0.007814084,-0.013463799,0.056235373,0.0,0.0,0.0,0.0,0.0,0.0,0.00959033,0.017010022,-0.74934137
100177842,0.24960276,-0.18954611,-0.8762717,3.0666783,0.0,0.009650711,-0.01377696,0.058660746,0.0,0.0,0.0,0.0,0.0,0.0,0.011860981,0.018049287,-0.7452242
100277948,0.24960276,-0.18954611,-0.8762717,3.0666783,0.0,0.010644328,-0.013550491,0.061402977,0.0,0.0,0.0,0.0,0.0,0.0,0.010329346,0.022977311,-0.74362993
100377963,0.24960276,-0.18954611,-0.8762717,3.0666783,0.0,0.010955918,-0.012454723,0.06417,0.0,0.0,0.0,0.0,0.0,0.0,0.010238994,0.017667612,-0.744763
100478057,0.24960276,-0.18954611,-0.8762717,3.0666783,0.0,0.010785421,-0.011240837,0.06630707,0.0,0.0,0.0,0.0,0.0,0.0,0.008564014,0.021421548,-0.7441083
100578285,0.24960276,-0.18954611,-0.8762717,3.0666783,0.0,0.00949774,-0.010294912,0.06803131,0.0,0.0,0.0,0.0,0.0,0.0,0.0027306369,0.019889671,-0.74214715
100678392,0.24960276,-0.18954611,-0.8762717,3.0666783,0.0,0.0068556876,-0.009429579,0.06970334,0.0,0.0,0.0,0.0,0.0,0.0,0.00558961,0.019921374,-0.74091816
100778461,0.24960276,-0.18954611,-0.8762717,3.0666783,0.0,0.00335259,-0.009393551,0.07118791,0.0,0.0,0.0,0.0,0.0,0.0,0.0050639575,0.02204537,-0.7384768
100878592,0.24960276,-0.18954611,-0.8762717,3.0666783,0.0,-0.0014805585,-0.009611583,0.07329112,0.0,0.0,0.0,0.0,0.0,0.0,0.006426675,0.024196757,-0.73761094
100978613,0.24960276,-0.18954611,-0.8762717,3.0666783,0.0,-0.0065280586,-0.010175449,0.075339854,0.0,0.0,0.0,0.0,0.0,0.0,0.0033415752,0.016846651,-0.73835695
101078662,0.24960276,-0.18954611,-0.8762717,3.0666783,0.0,-0.01155775,-0.0112275025,0.07727295,0.0,0.0,0.0,0.0,0.0,0.0,0.0035352604,0.017179644,-0.73592937
101178834,0.24960276,-0.18954611,-0.8762717,3.0666783,0.0,-0.01534765,-0.0121594835,0.079437494,0.0,0.0,0.0,0.0,0.0,0.0,0.0018943767,0.020079413,-0.73343945
101298810,0.24960276,-0.18954611,-0.8762717,3.0666783,0.0,-0.019351449,-0.014120047,0.0824343,0.0,0.0,0.0,0.0,0.0,0.0,0.00038115866,0.01875853,-0.7344018
101398983,0.24960276,-0.18954611,-0.8762717,3.0666783,0.0,-0.022193117,-0.016831182,0.083343506,0.0,0.0,0.0,0.0,0.0,0.0,0.003168427,0.021921754,-0.7373471
101499376,0.24960276,-0.18954611,-0.8762717,3.0666783,0.0,-0.023946209,-0.018914536,0.08223891,0.0,0.0,0.0,0.0,0.0,0.0,0.0047145025,0.01741244,-0.7422435
101599302,0.24960276,-0.18954611,-0.8762717,3.0666783,0.0,-0.025244465,-0.020676645,0.07890761,0.0,0.0,0.0,0.0,0.0,0.0,0.0046938295,0.021331528,-0.7452698
101699588,0.24960276,-0.18954611,-0.8762717,3.0666783,0.0,-0.02558189,-0.021681897,0.07402861,0.0,0.0,0.0,0.0,0.0,0.0,0.005625603,0.017157493,-0.7481562
101799628,0.24960276,-0.18954611,-0.8762717,3.0666783,0.0,-0.024871338,-0.02252403,0.06873071,0.0,0.0,0.0,0.0,0.0,0.0,0.004205659,0.018670302,-0.74727774
101899468,0.24960276,-0.18954611,-0.8762717,3.0666783,0.0,-0.024726013,-0.02259324,0.0644865,0.0,0.0,0.0,0.0,0.0,0.0,0.005951762,0.02070114,-0.7470907
101999533,0.24960276,-0.18954611,-0.8762717,3.0666783,0.0,-0.025137275,-0.021769354,0.062173784,0.0,0.0,0.0,0.0,0.0,0.0,0.004836977,0.020317618,-0.74542475
102099674,0.24960276,-0.18954611,-0.8762717,3.0666783,0.0,-0.026262486,-0.020414913,0.06185478,0.0,0.0,0.0,0.0,0.0,0.0,0.00041608093,0.023300707,-0.74258846
102219895,0.24960276,-0.18954611,-0.8762717,3.0666783,0.0,-0.027543869,-0.019096116,0.062734485,0.0,0.0,0.0,0.0,0.0,0.0,0.007558525,0.018318202,-0.74373186
102319989,0.24960276,-0.18954611,-0.8762717,3.0666783,0.0,-0.02892644,-0.01787365,0.06333852,0.0,0.0,0.0,0.0,0.0,0.0,0.0040371814,0.02090702,-0.7436783
102420065,0.24960276,-0.18954611,-0.8762717,3.0666783,0.0,-0.030737882,-0.017405538,0.06344855,0.0,0.0,0.0,0.0,0.0,0.0,0.007760735,0.01518163,-0.7438711
102520197,0.24960276,-0.18954611,-0.8762717,3.0666783,0.0,-0.031987187,-0.018452847,0.062086463,0.0,0.0,0.0,0.0,0.0,0.0,0.0045975284,0.020693412,-0.7455748
102620165,0.24960276,-0.18954611,-0.8762717,3.0666783,0.0,-0.033139974,-0.020324355,0.05969262,0.0,0.0,0.0,0.0,0.0,0.0,0.00460097,0.012585833,-0.7480485
102720400,0.24960276,-0.18954611,-0.8762717,3.0666783,0.0,-0.033998597,-0.023973374,0.056123614,0.0,0.0,0.0,0.0,0.0,0.0,0.0047179917,0.013402802,-0.7502191
102820444,0.24960276,-0.18954611,-0.8762717,3.0666783,0.0,-0.033998456,-0.029785857,0.05054182,0.0,0.0,0.0,0.0,0.0,0.0,0.0065572443,0.013997059,-0.7536659
102920598,0.24960276,-0.18954611,-0.8762717,3.0666783,0.0,-0.033193372,-0.03654565,0.04444152,0.0,0.0,0.0,0.0,0.0,0.0,0.0035132663,0.009283482,-0.7572075
103020779,0.24960276,-0.18954611,-0.8762717,3.0666783,0.0,-0.032046556,-0.045482427,0.03799194,0.0,0.0,0.0,0.0,0.0,0.0,0.0045271087,0.0071481885,-0.75465727
103120837,0.24960276,-0.18954611,-0.8762717,3.0666783,0.0,-0.03125486,-0.05472608,0.03245783,0.0,0.0,0.0,0.0,0.0,0.0,0.0076410994,0.0057042353,-0.7587258
103221065,0.24960276,-0.18954611,-0.8762717,3.0666783,0.0,-0.030838335,-0.06541042,0.026707053,0.0,0.0,0.0,0.0,0.0,0.0,0.007353766,0.0029674135,-0.76041585
103341032,0.24960276,-0.18954611,-0.8762717,3.0666783,0.0,-0.030722225,-0.07767907,0.021004498,0.0,0.0,0.0,0.0,0.0,0.0,0.0055382038,0.0064983563,-0.7610085
103440985,0.24960276,-0.18954611,-0.8762717,3.0666783,0.0,-0.031119162,-0.08647242,0.017863274,0.0,0.0,0.0,0.0,0.0,0.0,0.002749352,0.005333284,-0.7574298
103541128,0.24960276,-0.18954611,-0.8762717,3.0666783,0.0,-0.031717174,-0.094605334,0.015783548,0.0,0.0,0.0,0.0,0.0,0.0,0.005580958,0.0026255846,-0.7568106
103641254,0.24960276,-0.18954611,-0.8762717,3.0666783,0.0,-0.032515775,-0.10017231,0.014650941,0.0,0.0,0.0,0.0,0.0,0.0,0.0068763057,0.0061159385,-0.7568337
103741379,0.24960276,-0.18954611,-0.8762717,3.0666783,0.0,-0.033832632,-0.103273064,0.014622748,0.0,0.0,0.0,0.0,0.0,0.0,0.0055871718,0.009563967,-0.7544328
103841633,0.24960276,-0.18954611,-0.8762717,3.0666783,0.0,-0.03487478,-0.103223346,0.0151788,0.0,0.0,0.0,0.0,0.0,0.0,0.003669443,0.0075898347,-0.7521232
103941553,0.24960276,-0.18954611,-0.8762717,3.0666783,0.0,-0.035975244,-0.100035764,0.016215444,0.0,0.0,0.0,0.0,0.0,0.0,0.006438572,0.01672761,-0.7513976
104041728,0.24960276,-0.18954611,-0.8762717,3.0666783,0.0,-0.036454372,-0.09432789,0.01763475,0.0,0.0,0.0,0.0,0.0,0.0,0.0028938872,0.01545573,-0.75129074
104141695,0.24960276,-0.18954611,-0.8762717,3.0666783,0.0,-0.036314677,-0.08549378,0.019331813,0.0,0.0,0.0,0.0,0.0,0.0,0.0060733208,0.015840702,-0.7479668
104241784,0.24960276,-0.18954611,-0.8762717,3.0666783,0.0,-0.035991862,-0.07533218,0.020682037,0.0,0.0,0.0,0.0,0.0,0.0,0.00393226,0.017976865,-0.75015247
104341933,0.24960276,-0.18954611,-0.8762717,3.0666783,0.0,-0.035544954,-0.06318887,0.02142042,0.0,0.0,0.0,0.0,0.0,0.0,0.0091467835,0.020617412,-0.7505026
104442665,0.24960276,-0.18954611,-0.8762717,3.0666783,0.0,-0.035010334,-0.0517172,0.02173382,0.0,0.0,0.0,0.0,0.0,0.0,0.0018093609,0.021391548,-0.74768806
104542675,0.24960276,-0.18954611,-0.8762717,3.0666783,0.0,-0.034251343,-0.03887178,0.022347808,0.0,0.0,0.0,0.0,0.0,0.0,0.0039835945,0.022364466,-0.74851143
104662719,0.24960276,-0.18954611,-0.8762717,3.0666783,0.0,-0.03300869,-0.024898391,0.02341193,0.0,0.0,0.0,0.0,0.0,0.0,0.0054931897,0.024555111,-0.74699664
104762798,0.24960276,-0.18954611,-0.8762717,3.0666783,0.0,-0.032523733,-0.014698154,0.024775803,0.0,0.0,0.0,0.0,0.0,0.0,0.0043960568,0.029080674,-0.7459457
104862725,0.24960276,-0.18954611,-0.8762717,3.0666783,0.0,-0.03200038,-0.0049895872,0.025862038,0.0,0.0,0.0,0.0,0.0,0.0,0.007441663,0.024244739,-0.7482713
104962743,0.24960276,-0.18954611,-0.8762717,3.0666783,0.0,-0.031408712,0.0032285117,0.025701582,0.0,0.0,0.0,0.0,0.0,0.0,0.0048149168,0.027313136,-0.75163245
105062776,0.24960276,-0.18954611,-0.8762717,3.0666783,0.0,-0.030382423,0.011081341,0.024137855,0.0,0.0,0.0,0.0,0.0,0.0,0.0030440951,0.026093397,-0.7533921
105162800,0.24960276,-0.18954611,-0.8762717,3.0666783,0.0,-0.028691815,0.017075812,0.020992637,0.0,0.0,0.0,0.0,0.0,0.0,0.0077042156,0.025566434,-0.75559986
105262806,0.24960276,-0.18954611,-0.8762717,3.0666783,0.0,-0.026319707,0.02347818,0.01733011,0.0,0.0,0.0,0.0,0.0,0.0,0.0062805093,0.030046407,-0.75512785
105363538,0.24960276,-0.18954611,-0.8762717,3.0666783,0.0,-0.022953497,0.029023055,0.013881803,0.0,0.0,0.0,0.0,0.0,0.0,0.0076648276,0.02690174,-0.7538101
105463225,0.24960276,-0.18954611,-0.8762717,3.0666783,0.0,-0.019195223,0.03441643,0.0122612715,0.0,0.0,0.0,0.0,0.0,0.0,0.004783407,0.030319877,-0.7508123
105564255,0.24960276,-0.18954611,-0.8762717,3.0666783,0.0,-0.014910907,0.040616944,0.013451755,0.0,0.0,0.0,0.0,0.0,0.0,0.01041233,0.030477028,-0.74674535
105663353,0.24960276,-0.18954611,-0.8762717,3.0666783,0.0,-0.010352217,0.04685401,0.016171515,0.0,0.0,0.0,0.0,0.0,0.0,0.0066237454,0.03489533,-0.7439416
105783496,0.24960276,-0.18954611,-0.8762717,3.0666783,0.0,-0.003955102,0.056476012,0.02208823,0.0,0.0,0.0,0.0,0.0,0.0,0.012766534,0.03570075,-0.74146235
105883598,0.24960276,-0.18954611,-0.8762717,3.0666783,0.0,0.0024694756,0.066536374,0.028373063,0.0,0.0,0.0,0.0,0.0,0.0,0.014370546,0.034213323,-0.7393324
105983523,0.24960276,-0.18954611,-0.8762717,3.0666783,0.0,0.009477016,0.076802805,0.034164846,0.0,0.0,0.0,0.0,0.0,0.0,0.012581632,0.038815204,-0.7365437
106083647,0.24960276,-0.18954611,-0.8762717,3.0666783,0.0,0.017654331,0.08879107,0.04016167,0.0,0.0,0.0,0.0,0.0,0.0,0.015646795,0.039660692,-0.73873615
106183724,0.24960276,-0.18954611,-0.8762717,3.0666783,0.0,0.025553394,0.10028665,0.044469833,0.0,0.0,0.0,0.0,0.0,0.0,0.015509505,0.04058328,-0.7349087
106283963,0.24960276,-0.18954611,-0.8762717,3.0666783,0.0,0.03435308,0.11256664,0.047878385,0.0,0.0,0.0,0.0,0.0,0.0,0.01690566,0.039515898,-0.7374462
106384180,0.24960276,-0.18954611,-0.8762717,3.0666783,0.0,0.042456064,0.122708894,0.049938917,0.0,0.0,0.0,0.0,0.0,0.0,0.020384952,0.04159738,-0.73848164
106484110,0.24960276,-0.18954611,-0.8762717,3.0666783,0.0,0.051853027,0.13218306,0.05025679,0.0,0.0,0.0,0.0,0.0,0.0,0.020795528,0.043465115,-0.74015635
106584231,0.24960276,-0.18954611,-0.8762717,3.0666783,0.0,0.06082614,0.13846642,0.049122393,0.0,0.0,0.0,0.0,0.0,0.0,0.021641042,0.0375391,-0.74331087
106684291,0.24960276,-0.18954611,-0.8762717,3.0666783,0.0,0.070791036,0.14230663,0.046377003,0.0,0.0,0.0,0.0,0.0,0.0,0.023368184,0.038356747,-0.7439845
106784330,0.24960276,-0.18954611,-0.8762717,3.0666783,0.0,0.07969845,0.14339586,0.043450713,0.0,0.0,0.0,0.0,0.0,0.0,0.022716641,0.034706146,-0.7465358
106884426,0.24960276,-0.18954611,-0.8762717,3.0666783,0.0,0.08822928,0.14056087,0.040606856,0.0,0.0,0.0,0.0,0.0,0.0,0.023662042,0.03165691,-0.7453173
106984616,0.24960276,-0.18954611,-0.8762717,3.0666783,0.0,0.095090136,0.13531448,0.038125575,0.0,0.0,0.0,0.0,0.0,0.0,0.022746494,0.030598953,-0.74526244
107084717,0.24960276,-0.18954611,-0.8762717,3.0666783,0.0,0.10111338,0.12726739,0.036269963,0.0,0.0,0.0,0.0,0.0,0.0,0.027024098,0.030273875,-0.74841267
107184860,0.24960276,-0.18954611,-0.8762717,3.0666783,0.0,0.10509744,0.11824972,0.035279334,0.0,0.0,0.0,0.0,0.0,0.0,0.020709002,0.027441079,-0.7450981
107284921,0.24960276,-0.18954611,-0.8762717,3.0666783,0.0,0.107780986,0.1082116,0.034772992,0.0,0.0,0.0,0.0,0.0,0.0,0.020718867,0.028615277,-0.7477977
107404971,0.24960276,-0.18954611,-0.8762717,3.0666783,0.0,0.10811582,0.09655513,0.03428495,0.0,0.0,0.0,0.0,0.0,0.0,0.018033449,0.028191293,-0.7500277
107505072,0.24960276,-0.18954611,-0.8762717,3.0666783,0.0,0.106464624,0.08864741,0.033192217,0.0,0.0,0.0,0.0,0.0,0.0,0.02043651,0.025046447,-0.75085807
107605169,0.24960276,-0.18954611,-0.8762717,3.0666783,0.0,0.103666216,0.08212949,0.030824304,0.0,0.0,0.0,0.0,0.0,0.0,0.018946905,0.026862327,-0.75105107
107705206,0.24960276,-0.18954611,-0.8762717,3.0666783,0.0,0.09999251,0.07851187,0.028371155,0.0,0.0,0.0,0.0,0.0,0.0,0.01776796,0.03121816,-0.75283194
107805480,0.24960276,-0.18954611,-0.8762717,3.0666783,0.0,0.0952755,0.076804474,0.02435702,0.0,0.0,0.0,0.0,0.0,0.0,0.018661855,0.026831426,-0.7565011
107905505,0.24960276,-0.18954611,-0.8762717,3.0666783,0.0,0.090730764,0.07722131,0.019024909,0.0,0.0,0.0,0.0,0.0,0.0,0.017140584,0.033260334,-0.76001835
108005622,0.24960276,-0.18954611,-0.8762717,3.0666783,0.0,0.08536331,0.07923454,0.0131421685,0.0,0.0,0.0,0.0,0.0,0.0,0.013167196,0.031052317,-0.7604985
108105695,0.24960276,-0.18954611,-0.8762717,3.0666783,0.0,0.08031684,0.08164476,0.007849216,0.0,0.0,0.0,0.0,0.0,0.0,0.011471845,0.031455986,-0.75962764
108205746,0.24960276,-0.18954611,-0.8762717,3.0666783,0.0,0.07487623,0.0847245,0.0028122067,0.0,0.0,0.0,0.0,0.0,0.0,0.010398304,0.031225622,-0.7600423
108305809,0.24960276,-0.18954611,-0.8762717,3.0666783,0.0,0.06965997,0.08677595,-0.00040864944,0.0,0.0,0.0,0.0,0.0,0.0,0.011213151,0.03154897,-0.7594136
108405947,0.24960276,-0.18954611,-0.8762717,3.0666783,0.0,0.06417018,0.08814249,-0.0031408668,0.0,0.0,0.0,0.0,0.0,0.0,0.0092491135,0.030895106,-0.7591088
108505992,0.24960276,-0.18954611,-0.8762717,3.0666783,0.0,0.05864017,0.0869574,-0.0048371553,0.0,0.0,0.0,0.0,0.0,0.0,0.01185745,0.032496236,-0.76108176
108606471,0.24960276,-0.18954611,-0.8762717,3.0666783,0.0,0.053298037,0.08362477,-0.0067976713,0.0,0.0,0.0,0.0,0.0,0.0,0.0143457055,0.028398192,-0.762256
108706627,0.24960276,-0.18954611,-0.8762717,3.0666783,0.0,0.048578776,0.07851181,-0.008363783,0.0,0.0,0.0,0.0,0.0,0.0,0.010407049,0.029821344,-0.7583771
108827922,0.24960276,-0.18954611,-0.8762717,3.0666783,0.0,0.04200733,0.0714736,-0.0074778795,0.0,0.0,0.0,0.0,0.0,0.0,0.003960279,0.027834166,-0.7542747
108926764,0.24960276,-0.18954611,-0.8762717,3.0666783,0.0,0.035279796,0.065420024,-0.0041458607,0.0,0.0,0.0,0.0,0.0,0.0,0.007195791,0.027679587,-0.7511189
109026796,0.24960276,-0.18954611,-0.8762717,3.0666783,0.0,0.027851779,0.059511606,0.0009031892,0.0,0.0,0.0,0.0,0.0,0.0,0.008079368,0.02770052,-0.7455509
109126767,0.24960276,-0.18954611,-0.8762717,3.0666783,0.0,0.019288752,0.053420503,0.008261025,0.0,0.0,0.0,0.0,0.0,0.0,0.008986387,0.024538884,-0.7418967
109227544,0.24960276,-0.18954611,-0.8762717,3.0666783,0.0,0.011321485,0.04755979,0.01694578,0.0,0.0,0.0,0.0,0.0,0.0,0.0058762087,0.026401116,-0.7372566
109326873,0.24960276,-0.18954611,-0.8762717,3.0666783,0.0,0.004938399,0.04226207,0.026109457,0.0,0.0,0.0,0.0,0.0,0.0,0.006450734,0.024469832,-0.73174006
109427539,0.24960276,-0.18954611,-0.8762717,3.0666783,0.0,-0.00019502862,0.036932662,0.03596139,0.0,0.0,0.0,0.0,0.0,0.0,0.008876941,0.020313771,-0.72903585
109527178,0.24960276,-0.18954611,-0.8762717,3.0666783,0.0,-0.0029394864,0.032061096,0.044085383,0.0,0.0,0.0,0.0,0.0,0.0,0.006734648,0.024386713,-0.73054385
109627480,0.24960276,-0.18954611,-0.8762717,3.0666783,0.0,-0.0033121035,0.02765794,0.050801814,0.0,0.0,0.0,0.0,0.0,0.0,0.008061625,0.023992281,-0.7291789
109727311,0.24960276,-0.18954611,-0.8762717,3.0666783,0.0,-0.0019394994,0.023703927,0.054570317,0.0,0.0,0.0,0.0,0.0,0.0,0.011139983,0.02415648,-0.7341181
109827589,0.24960276,-0.18954611,-0.8762717,3.0666783,0.0,0.0012483418,0.02045697,0.055959404,0.0,0.0,0.0,0.0,0.0,0.0,0.011431675,0.023931213,-0.7363902
109927486,0.24960276,-0.18954611,-0.8762717,3.0666783,0.0,0.005081135,0.017464044,0.054638505,0.0,0.0,0.0,0.0,0.0,0.0,0.011006078,0.02241624,-0.73939943
110027538,0.24960276,-0.18954611,-0.8762717,3.0666783,0.0,0.009470504,0.014203101,0.051846027,0.0,0.0,0.0,0.0,0.0,0.0,0.00985878,0.024124201,-0.74218106
110148384,0.24960276,-0.18954611,-0.8762717,3.0666783,0.0,0.0140905315,0.009637503,0.047166526,0.0,0.0,0.0,0.0,0.0,0.0,0.010561116,0.022079907,-0.7436435
110248031,0.24960276,-0.18954611,-0.8762717,3.0666783,0.0,0.016552646,0.0048943874,0.04330939,0.0,0.0,0.0,0.0,0.0,0.0,0.013041725,0.018427884,-0.746458
110348410,0.24960276,-0.18954611,-0.8762717,3.0666783,0.0,0.017742127,-0.0009377003,0.039189517,0.0,0.0,0.0,0.0,0.0,0.0,0.008523678,0.021296823,-0.74841857
110448217,0.24960276,-0.18954611,-0.8762717,3.0666783,0.0,0.017653424,-0.007829924,0.034665704,0.0,0.0,0.0,0.0,0.0,0.0,0.009059489,0.016157858,-0.7545448
110549113,0.24960276,-0.18954611,-0.8762717,3.0666783,0.0,0.016028672,-0.016341748,0.028921366,0.0,0.0,0.0,0.0,0.0,0.0,0.008063525,0.020194009,-0.75661457
110648192,0.24960276,-0.18954611,-0.8762717,3.0666783,0.0,0.013197438,-0.025258012,0.022351384,0.0,0.0,0.0,0.0,0.0,0.0,0.007256885,0.015790012,-0.7605039
110748245,0.24960276,-0.18954611,-0.8762717,3.0666783,0.0,0.008923979,-0.036288418,0.014475822,0.0,0.0,0.0,0.0,0.0,0.0,0.009067825,0.014420175,-0.76360035
110848336,0.24960276,-0.18954611,-0.8762717,3.0666783,0.0,0.004008102,-0.047122113,0.007085681,0.0,0.0,0.0,0.0,0.0,0.0,0.0065645273,0.013720619,-0.7651924
110948446,0.24960276,-0.18954611,-0.8762717,3.0666783,0.0,-0.001956062,-0.060004182,-0.001024127,0.0,0.0,0.0,0.0,0.0,0.0,0.0072599254,0.0074402764,-0.76674414
111048617,0.24960276,-0.18954611,-0.8762717,3.0666783,0.0,-0.007781157,-0.07095341,-0.0077317953,0.0,0.0,0.0,0.0,0.0,0.0,0.0032745409,0.0095877955,-0.76707464
111148825,0.24960276,-0.18954611,-0.8762717,3.0666783,0.0,-0.013613868,-0.08174542,-0.013306439,0.0,0.0,0.0,0.0,0.0,0.0,0.0063502504,0.00925685,-0.76586056
111248886,0.24960276,-0.18954611,-0.8762717,3.0666783,0.0,-0.017833179,-0.08959557,-0.016517341,0.0,0.0,0.0,0.0,0.0,0.0,0.0020689154,0.011100781,-0.7618556
111348893,0.24960276,-0.18954611,-0.8762717,3.0666783,0.0,-0.021309493,-0.09561302,-0.016786754,0.0,0.0,0.0,0.0,0.0,0.0,0.008278149,0.010930557,-0.7574477
111469059,0.24960276,-0.18954611,-0.8762717,3.0666783,0.0,-0.02360482,-0.09881685,-0.013973653,0.0,0.0,0.0,0.0,0.0,0.0,0.0050913384,0.016553536,-0.7565146
111569097,0.24960276,-0.18954611,-0.8762717,3.0666783,0.0,-0.023999916,-0.09806481,-0.011002719,0.0,0.0,0.0,0.0,0.0,0.0,0.011215832,0.017885689,-0.7559365
111669180,0.24960276,-0.18954611,-0.8762717,3.0666783,0.0,-0.022530174,-0.09517794,-0.008955836,0.0,0.0,0.0,0.0,0.0,0.0,0.009874913,0.01632698,-0.7583133
111769362,0.24960276,-0.18954611,-0.8762717,3.0666783,0.0,-0.019940853,-0.09038219,-0.009021878,0.0,0.0,0.0,0.0,0.0,0.0,0.011150301,0.015601959,-0.7615196
111870148,0.24960276,-0.18954611,-0.8762717,3.0666783,0.0,-0.016577646,-0.08429979,-0.011518836,0.0,0.0,0.0,0.0,0.0,0.0,0.0081395665,0.018567836,-0.762146
111970332,0.24960276,-0.18954611,-0.8762717,3.0666783,0.0,-0.013306199,-0.07779384,-0.01583451,0.0,0.0,0.0,0.0,0.0,0.0,0.009633229,0.02038672,-0.7661842
112069911,0.24960276,-0.18954611,-0.8762717,3.0666783,0.0,-0.010274783,-0.07014976,-0.021579087,0.0,0.0,0.0,0.0,0.0,0.0,0.010111007,0.02698084,-0.76517576
112170407,0.24960276,-0.18954611,-0.8762717,3.0666783,0.0,-0.008173083,-0.06311739,-0.026394904,0.0,0.0,0.0,0.0,0.0,0.0,0.009245359,0.02236921,-0.7655582
112270211,0.24960276,-0.18954611,-0.8762717,3.0666783,0.0,-0.00674946,-0.055158563,-0.029396772,0.0,0.0,0.0,0.0,0.0,0.0,0.008776965,0.02840615,-0.7602688
112369985,0.24960276,-0.18954611,-0.8762717,3.0666783,0.0,-0.00577133,-0.047703687,-0.029414713,0.0,0.0,0.0,0.0,0.0,0.0,0.011516159,0.025375122,-0.75538695
112470032,0.24960276,-0.18954611,-0.8762717,3.0666783,0.0,-0.008680749,-0.03774681,-0.016628146,0.0,0.0,0.0,0.0,0.0,0.0,0.0017395336,0.031859737,-0.7204118
112570393,0.24960276,-0.18954611,-0.8762717,3.0666783,0.0,-0.010242025,-0.026516914,-0.00498271,0.0,0.0,0.0,0.0,0.0,0.0,0.016677776,0.034703474,-0.76202893
112691505,0.24960276,-0.18954611,-0.8762717,3.0666783,0.0,-0.013961003,-0.008290068,0.002658844,0.0,0.0,0.0,0.0,0.0,0.0,-0.003709251,0.03806549,-0.7339601
112790495,0.24960276,-0.18954611,-0.8762717,3.0666783,0.0,-0.017558947,0.006557673,0.01041168,0.0,0.0,0.0,0.0,0.0,0.0,0.010711583,0.037609145,-0.74634343
112891952,0.24960276,-0.18954611,-0.8762717,3.0666783,0.0,-0.021748843,0.023276484,0.013930738,0.0,0.0,0.0,0.0,0.0,0.0,0.0027733585,0.042924456,-0.74090487
112990557,0.24960276,-0.18954611,-0.8762717,3.0666783,0.0,-0.026074465,0.039446052,0.016794026,0.0,0.0,0.0,0.0,0.0,0.0,0.009905946,0.04264898,-0.7447161
113091521,0.24960276,-0.18954611,-0.8762717,3.0666783,0.0,-0.02923994,0.05653629,0.017148018,0.0,0.0,0.0,0.0,0.0,0.0,0.007663529,0.047342304,-0.7428115
113190791,0.24960276,-0.18954611,-0.8762717,3.0666783,0.0,-0.030191004,0.07116137,0.016772509,0.0,0.0,0.0,0.0,0.0,0.0,0.008918788,0.044386685,-0.7477156
113291818,0.24960276,-0.18954611,-0.8762717,3.0666783,0.0,-0.02826784,0.085533775,0.015649676,0.0,0.0,0.0,0.0,0.0,0.0,0.011472207,0.042713672,-0.7447417
113391307,0.24960276,-0.18954611,-0.8762717,3.0666783,0.0,-0.023355389,0.09696228,0.014670968,0.0,0.0,0.0,0.0,0.0,0.0,0.013857227,0.050259393,-0.74848896
113491626,0.24960276,-0.18954611,-0.8762717,3.0666783,0.0,-0.014710966,0.10779703,0.013150394,0.0,0.0,0.0,0.0,0.0,0.0,0.017559137,0.04594549,-0.7507143
113591226,0.24960276,-0.18954611,-0.8762717,3.0666783,0.0,-0.0042188303,0.11599437,0.009933233,0.0,0.0,0.0,0.0,0.0,0.0,0.015584717,0.04456885,-0.7571054
113691308,0.24960276,-0.18954611,-0.8762717,3.0666783,0.0,0.00957029,0.1229878,0.0043019056,0.0,0.0,0.0,0.0,0.0,0.0,0.023249311,0.043571923,-0.7629256
113791373,0.24960276,-0.18954611,-0.8762717,3.0666783,0.0,0.023887107,0.12784603,-0.0033128262,0.0,0.0,0.0,0.0,0.0,0.0,0.024911216,0.04624661,-0.76480854
113891486,0.24960276,-0.18954611,-0.8762717,3.0666783,0.0,0.0403333,0.13171493,-0.012231708,0.0,0.0,0.0,0.0,0.0,0.0,0.02810433,0.04720486,-0.77207416
114012066,0.24960276,-0.18954611,-0.8762717,3.0666783,0.0,0.05989024,0.13419646,-0.021207452,0.0,0.0,0.0,0.0,0.0,0.0,0.030567355,0.044178482,-0.770774
114111807,0.24960276,-0.18954611,-0.8762717,3.0666783,0.0,0.07594595,0.13463366,-0.026418686,0.0,0.0,0.0,0.0,0.0,0.0,0.03611749,0.038397662,-0.76393473
114211997,0.24960276,-0.18954611,-0.8762717,3.0666783,0.0,0.09323337,0.13354987,-0.028522074,0.0,0.0,0.0,0.0,0.0,0.0,0.036269195,0.039202653,-0.7648716
114312034,0.24960276,-0.18954611,-0.8762717,3.0666783,0.0,0.109238684,0.13121425,-0.027911305,0.0,0.0,0.0,0.0,0.0,0.0,0.03644835,0.036470924,-0.7548187
114412233,0.24960276,-0.18954611,-0.8762717,3.0666783,0.0,0.12605736,0.12652062,-0.023791075,0.0,0.0,0.0,0.0,0.0,0.0,0.042089812,0.035710186,-0.75557864
114512211,0.24960276,-0.18954611,-0.8762717,3.0666783,0.0,0.14091848,0.120419145,-0.016967237,0.0,0.0,0.0,0.0,0.0,0.0,0.04121974,0.027160725,-0.74577177
114612261,0.24960276,-0.18954611,-0.8762717,3.0666783,0.0,0.15639913,0.11159983,-0.008508027,0.0,0.0,0.0,0.0,0.0,0.0,0.044826724,0.029252427,-0.7423873
114712372,0.24960276,-0.18954611,-0.8762717,3.0666783,0.0,0.16985779,0.10142568,0.0009265542,0.0,0.0,0.0,0.0,0.0,0.0,0.047211446,0.024483427,-0.7421733
114812554,0.24960276,-0.18954611,-0.8762717,3.0666783,0.0,0.18514502,0.089148395,0.011279285,0.0,0.0,0.0,0.0,0.0,0.0,0.047396697,0.02206479,-0.73194027
114912598,0.24960276,-0.18954611,-0.8762717,3.0666783,0.0,0.19957858,0.07703004,0.021318436,0.0,0.0,0.0,0.0,0.0,0.0,0.052500248,0.026030604,-0.73172224
115012620,0.24960276,-0.18954611,-0.8762717,3.0666783,0.0,0.21603206,0.06357438,0.0319224,0.0,0.0,0.0,0.0,0.0,0.0,0.049916018,0.018210206,-0.72817796
115112728,0.24960276,-0.18954611,-0.8762717,3.0666783,0.0,0.23194252,0.05118888,0.04045421,0.0,0.0,0.0,0.0,0.0,0.0,0.058607962,0.021117209,-0.7264286
115212892,0.24960276,-0.18954611,-0.8762717,3.0666783,0.0,0.24932581,0.03833232,0.049119234,0.0,0.0,0.0,0.0,0.0,0.0,0.05646943,0.021435797,-0.7256739
115332971,0.24960276,-0.18954611,-0.8762717,3.0666783,0.0,0.26965663,0.02441237,0.059049904,0.0,0.0,0.0,0.0,0.0,0.0,0.059318908,0.017569449,-0.7220866
115433031,0.24960276,-0.18954611,-0.8762717,3.0666783,0.0,0.28456613,0.014105155,0.06687939,0.0,0.0,0.0,0.0,0.0,0.0,0.05870337,0.019073252,-0.7185651
115533250,0.24960276,-0.18954611,-0.8762717,3.0666783,0.0,0.29855752,0.003736093,0.075623155,0.0,0.0,0.0,0.0,0.0,0.0,0.060041007,0.020475827,-0.71623826
115633399,0.24960276,-0.18954611,-0.8762717,3.0666783,0.0,0.3092007,-0.004713841,0.08375269,0.0,0.0,0.0,0.0,0.0,0.0,0.05927886,0.012736985,-0.7159817
115733959,0.24960276,-0.18954611,-0.8762717,3.0666783,0.0,0.3181193,-0.012944001,0.09213734,0.0,0.0,0.0,0.0,0.0,0.0,0.057681784,0.0131349135,-0.7154418
115833741,0.24960276,-0.18954611,-0.8762717,3.0666783,0.0,0.32363263,-0.019677168,0.0986895,0.0,0.0,0.0,0.0,0.0,0.0,0.060884647,0.012129622,-0.7165735
115933597,0.24960276,-0.18954611,-0.8762717,3.0666783,0.0,0.3284594,-0.02695816,0.10355103,0.0,0.0,0.0,0.0,0.0,0.0,0.056170065,0.0091711525,-0.71843946
116033746,0.24960276,-0.18954611,-0.8762717,3.0666783,0.0,0.3301591,-0.033547513,0.10715169,0.0,0.0,0.0,0.0,0.0,0.0,0.061164536,0.019866152,-0.7193198
116134697,0.24960276,-0.18954611,-0.8762717,3.0666783,0.0,0.33179697,-0.04134311,0.108926654,0.0,0.0,0.0,0.0,0.0,0.0,0.06288067,0.014085851,-0.721335
116233850,0.24960276,-0.18954611,-0.8762717,3.0666783,0.0,0.3333827,-0.05009702,0.10967708,0.0,0.0,0.0,0.0,0.0,0.0,0.06434019,0.011505475,-0.72193664
116334758,0.24960276,-0.18954611,-0.8762717,3.0666783,0.0,0.33730954,-0.061083328,0.110126734,0.0,0.0,0.0,0.0,0.0,0.0,0.068524584,0.008328315,-0.7235662
116434002,0.24960276,-0.18954611,-0.8762717,3.0666783,0.0,0.34561476,-0.07164711,0.10982931,0.0,0.0,0.0,0.0,0.0,0.0,0.07340753,0.008894017,-0.72635424
116534201,0.24960276,-0.18954611,-0.8762717,3.0666783,0.0,0.3615088,-0.08209884,0.10761309,0.0,0.0,0.0,0.0,0.0,0.0,0.08469881,0.008711886,-0.7304991
116854479,0.24960276,-0.18954611,-0.8762717,3.0666783,0.0,0.45720536,-0.10271701,0.09897947,0.0,0.0,0.0,0.0,0.0,0.0,0.10756592,0.011645935,-0.7263648
116954528,0.24960276,-0.18954611,-0.8762717,3.0666783,0.0,0.49488044,-0.107642695,0.0992288,0.0,0.0,0.0,0.0,0.0,0.0,0.11082446,0.010877739,-0.72469294
117054560,0.24960276,-0.18954611,-0.8762717,3.0666783,0.0,0.5368361,-0.113802485,0.10078752,0.0,0.0,0.0,0.0,0.0,0.0,0.11430727,0.0050191414,-0.7257168
117154738,0.24960276,-0.18954611,-0.8762717,3.0666783,0.0,0.5750809,-0.12059927,0.10293484,0.0,0.0,0.0,0.0,0.0,0.0,0.12006788,0.0038644709,-0.7264198
117254746,0.24960276,-0.18954611,-0.8762717,3.0666783,0.0,0.61427414,-0.12959442,0.1054942,0.0,0.0,0.0,0.0,0.0,0.0,0.12385629,-0.0012492891,-0.7248025
117354966,0.24960276,-0.18954611,-0.8762717,3.0666783,0.0,0.646173,-0.13945211,0.107150316,0.0,0.0,0.0,0.0,0.0,0.0,0.12281725,-0.0004198458,-0.7253725
117455155,0.24960276,-0.18954611,-0.8762717,3.0666783,0.0,0.6734228,-0.1521452,0.10697532,0.0,0.0,0.0,0.0,0.0,0.0,0.11706258,-0.0045551043,-0.7294177
117555342,0.24960276,-0.18954611,-0.8762717,3.0666783,0.0,0.68974197,-0.1655476,0.10382491,0.0,0.0,0.0,0.0,0.0,0.0,0.11609648,-0.007359557,-0.73304355
117655338,0.24960276,-0.18954611,-0.8762717,3.0666783,0.0,0.69699126,-0.18148267,0.098142385,0.0,0.0,0.0,0.0,0.0,0.0,0.112414114,-0.006140858,-0.736827
117755357,0.24960276,-0.18954611,-0.8762717,3.0666783,0.0,0.6951664,-0.19660576,0.09169793,0.0,0.0,0.0,0.0,0.0,0.0,0.11027251,-0.011178389,-0.7378785
117855439,0.24960276,-0.18954611,-0.8762717,3.0666783,0.0,0.68554395,-0.21252765,0.083743215,0.0,0.0,0.0,0.0,0.0,0.0,0.10514195,-0.011828277,-0.74161416
117975565,0.24960276,-0.18954611,-0.8762717,3.0666783,0.0,0.6675358,-0.22899708,0.07397252,0.0,0.0,0.0,0.0,0.0,0.0,0.10362415,-0.009689968,-0.74395347
118075643,0.24960276,-0.18954611,-0.8762717,3.0666783,0.0,0.6504575,-0.23970062,0.06726456,0.0,0.0,0.0,0.0,0.0,0.0,0.10049731,-0.010836311,-0.7441449
118175752,0.24960276,-0.18954611,-0.8762717,3.0666783,0.0,0.631062,-0.24817483,0.060926378,0.0,0.0,0.0,0.0,0.0,0.0,0.098868474,-0.011234306,-0.7454759
118275978,0.24960276,-0.18954611,-0.8762717,3.0666783,0.0,0.6134338,-0.25338218,0.056147516,0.0,0.0,0.0,0.0,0.0,0.0,0.09885091,-0.009561889,-0.7459583
118376063,0.24960276,-0.18954611,-0.8762717,3.0666783,0.0,0.5961187,-0.25507244,0.051011205,0.0,0.0,0.0,0.0,0.0,0.0,0.094880804,-0.006723214,-0.75051606
118476178,0.24960276,-0.18954611,-0.8762717,3.0666783,0.0,0.58119804,-0.2529794,0.044199646,0.0,0.0,0.0,0.0,0.0,0.0,0.08857603,-0.0055533377,-0.7567115
118576231,0.24960276,-0.18954611,-0.8762717,3.0666783,0.0,0.56549734,-0.24644926,0.035314023,0.0,0.0,0.0,0.0,0.0,0.0,0.08683799,0.0013592914,-0.7611713
118676202,0.24960276,-0.18954611,-0.8762717,3.0666783,0.0,0.5501644,-0.23670451,0.025081933,0.0,0.0,0.0,0.0,0.0,0.0,0.08676258,0.0033916337,-0.76654637
118776417,0.24960276,-0.18954611,-0.8762717,3.0666783,0.0,0.5311779,-0.22278045,0.010568082,0.0,0.0,0.0,0.0,0.0,0.0,0.080252364,0.006405362,-0.7757781
118876605,0.24960276,-0.18954611,-0.8762717,3.0666783,0.0,0.50867057,-0.20801394,-0.00509429,0.0,0.0,0.0,0.0,0.0,0.0,0.0733738,0.008828415,-0.78165716
118996576,0.24960276,-0.18954611,-0.8762717,3.0666783,0.0,0.47165117,-0.18802853,-0.027302861,0.0,0.0,0.0,0.0,0.0,0.0,0.059025336,0.0141672585,-0.790323
119097002,0.24960276,-0.18954611,-0.8762717,3.0666783,0.0,0.4290707,-0.16975805,-0.046144307,0.0,0.0,0.0,0.0,0.0,0.0,0.04388331,0.016016763,-0.7868339
119197060,0.24960276,-0.18954611,-0.8762717,3.0666783,0.0,0.37977633,-0.15159123,-0.060262144,0.0,0.0,0.0,0.0,0.0,0.0,0.043184943,0.020381473,-0.7907897
119297182,0.24960276,-0.18954611,-0.8762717,3.0666783,0.0,0.3184933,-0.13054763,-0.07228923,0.0,0.0,0.0,0.0,0.0,0.0,0.029280616,0.02094182,-0.7854737
119397191,0.24960276,-0.18954611,-0.8762717,3.0666783,0.0,0.25631428,-0.11042193,-0.08003688,0.0,0.0,0.0,0.0,0.0,0.0,0.019318629,0.026506342,-0.7811241
119497170,0.24960276,-0.18954611,-0.8762717,3.0666783,0.0,0.18421063,-0.08921787,-0.083401084,0.0,0.0,0.0,0.0,0.0,0.0,0.008458089,0.023125784,-0.77767444
119597188,0.24960276,-0.18954611,-0.8762717,3.0666783,0.0,0.11551305,-0.07120882,-0.082852125,0.0,0.0,0.0,0.0,0.0,0.0,0.00081730634,0.026930517,-0.77341247
119697396,0.24960276,-0.18954611,-0.8762717,3.0666783,0.0,0.041422952,-0.054131098,-0.080361485,0.0,0.0,0.0,0.0,0.0,0.0,-0.00426298,0.025444381,-0.7669127
119797387,0.24960276,-0.18954611,-0.8762717,3.0666783,0.0,-0.024829267,-0.039861277,-0.07644224,0.0,0.0,0.0,0.0,0.0,0.0,-0.011114124,0.026848512,-0.7640124
119897631,0.24960276,-0.18954611,-0.8762717,3.0666783,0.0,-0.09257259,-0.02604955,-0.070560634,0.0,0.0,0.0,0.0,0.0,0.0,-0.011622675,0.028148517,-0.76000655
119998780,0.24960276,-0.18954611,-0.8762717,3.0666783,0.0,-0.1547612,-0.014055439,-0.06539327,0.0,0.0,0.0,0.0,0.0,0.0,-0.018818934,0.025022805,-0.75769246
120118786,0.24960276,-0.18954611,-0.8762717,3.0666783,0.0,-0.21793497,-0.0031320236,-0.06155622,0.0,0.0,0.0,0.0,0.0,0.0,-0.019867104,0.02659541,-0.7588976
120217950,0.24960276,-0.18954611,-0.8762717,3.0666783,0.0,-0.26072174,0.0039609484,-0.060612142,0.0,0.0,0.0,0.0,0.0,0.0,-0.020854406,0.022741305,-0.76190656
120318705,0.24960276,-0.18954611,-0.8762717,3.0666783,0.0,-0.2995435,0.010457255,-0.06127453,0.0,0.0,0.0,0.0,0.0,0.0,-0.017902061,0.024113722,-0.7618644
120418001,0.24960276,-0.18954611,-0.8762717,3.0666783,0.0,-0.32929194,0.015658546,-0.06359315,0.0,0.0,0.0,0.0,0.0,0.0,-0.021274962,0.023480497,-0.763619
120518740,0.24960276,-0.18954611,-0.8762717,3.0666783,0.0,-0.35650545,0.020930704,-0.067366004,0.0,0.0,0.0,0.0,0.0,0.0,-0.019913882,0.022493053,-0.7671183
120618462,0.24960276,-0.18954611,-0.8762717,3.0666783,0.0,-0.37835675,0.025449855,-0.072709024,0.0,0.0,0.0,0.0,0.0,0.0,-0.019457702,0.02461889,-0.7721752
120718794,0.24960276,-0.18954611,-0.8762717,3.0666783,0.0,-0.39953735,0.030599082,-0.0792644,0.0,0.0,0.0,0.0,0.0,0.0,-0.021022461,0.024537617,-0.77499294
120818436,0.24960276,-0.18954611,-0.8762717,3.0666783,0.0,-0.41771832,0.035674993,-0.085149586,0.0,0.0,0.0,0.0,0.0,0.0,-0.024935696,0.02605252,-0.77138025
120918845,0.24960276,-0.18954611,-0.8762717,3.0666783,0.0,-0.43596736,0.041067265,-0.09029561,0.0,0.0,0.0,0.0,0.0,0.0,-0.017666645,0.026371602,-0.7778728
121018645,0.24960276,-0.18954611,-0.8762717,3.0666783,0.0,-0.45314333,0.045924183,-0.09192222,0.0,0.0,0.0,0.0,0.0,0.0,-0.024420992,0.02446814,-0.76674736
121539364,nan,nan,-0.8762717,3.0666783,0.0,-0.9707322,0.07285814,-0.08567846,0.0,0.0,0.0,0.0,0.0,0.0,-0.072268635,0.025035277,-0.760821
121939582,nan,nan,-0.8762717,3.0666783,0.0,-1.0995312,0.08252512,-0.06699127,0.0,0.0,0.0,0.0,0.0,0.0,-0.07101229,0.021430762,-0.75582325
122039538,0.863845,-0.25708428,-0.8762717,3.0666783,0.0,0.0,0.0,-0.060460746,0.0,0.0,0.0,0.0,0.0,0.0,0.035176873,0.017698195,-0.74922276
122139760,0.863845,-0.25708428,-0.8762717,3.0666783,0.0,0.010842216,-0.0029293224,-0.052449286,0.0,0.0,0.0,0.0,0.0,0.0,0.025228724,0.01714321,-0.7437559
122239890,0.863845,-0.25708428,-0.8762717,3.0666783,0.0,0.021698589,-0.0058190925,-0.04237926,0.0,0.0,0.0,0.0,0.0,0.0,0.019919872,0.015074184,-0.73830444
122339976,0.863845,-0.25708428,-0.8762717,3.0666783,0.0,0.028928619,-0.0077125137,-0.03196484,0.0,0.0,0.0,0.0,0.0,0.0,0.019153494,0.01735399,-0.7392695
122440022,0.863845,-0.25708428,-0.8762717,3.0666783,0.0,0.032342277,-0.008181392,-0.021792948,0.0,0.0,0.0,0.0,0.0,0.0,0.011052331,0.017074643,-0.74019
122560228,0.863845,-0.25708428,-0.8762717,3.0666783,0.0,0.030098082,-0.006783944,-0.015580595,0.0,0.0,0.0,0.0,0.0,0.0,0.0052460646,0.018988233,-0.7494129
122660163,0.863845,-0.25708428,-0.8762717,3.0666783,0.0,0.020628104,-0.0036149307,-0.01428014,0.0,0.0,0.0,0.0,0.0,0.0,-0.0021779966,0.024462804,-0.75015736
122760253,0.863845,-0.25708428,-0.8762717,3.0666783,0.0,0.00045333503,0.0030975535,-0.015598476,0.0,0.0,0.0,0.0,0.0,0.0,-0.00603519,0.028732179,-0.75466436
122860383,0.863845,-0.25708428,-0.8762717,3.0666783,0.0,-0.028663447,0.012017682,-0.018421173,0.0,0.0,0.0,0.0,0.0,0.0,-0.01365451,0.027885064,-0.7548958
122960547,nan,nan,-0.8762717,3.0666783,0.0,-0.15052819,0.011297868,-0.022112072,0.0,0.0,0.0,0.0,0.0,0.0,-0.023653157,0.03135918,-0.7559715
123060952,nan,nan,-0.8762717,3.0666783,0.0,-0.16075763,0.012065637,-0.025067925,0.0,0.0,0.0,0.0,0.0,0.0,-0.023547117,0.030881,-0.75941277
123161109,nan,nan,-0.8762717,3.0666783,0.0,-0.16213213,0.012168799,-0.02731818,0.0,0.0,0.0,0.0,0.0,0.0,-0.019199764,0.0325849,-0.75753826
123261170,nan,nan,-0.8762717,3.0666783,0.0,-0.16214648,0.012169876,-0.024184048,0.0,0.0,0.0,0.0,0.0,0.0,-0.014673051,0.03339299,-0.7428849
123361210,nan,nan,-0.8762717,3.0666783,0.0,-0.16214557,0.012169808,-0.016784847,0.0,0.0,0.0,0.0,0.0,0.0,-0.007995539,0.03244282,-0.7437259
123461173,nan,nan,-0.8762717,3.0666783,0.0,-0.19033305,0.0142854145,-0.008231163,0.0,0.0,0.0,0.0,0.0,0.0,-0.0011338564,0.028121892,-0.7439847
123561204,nan,nan,-0.8762717,3.0666783,0.0,-0.22291404,0.016730774,-0.00012034178,0.0,0.0,0.0,0.0,0.0,0.0,0.0023829332,0.029896175,-0.7467758
123661248,nan,nan,-0.8762717,3.0666783,0.0,-0.30639493,0.02299642,0.0025873184,0.0,0.0,0.0,0.0,0.0,0.0,0.0007696273,0.028230187,-0.7539352
123761391,nan,nan,-0.8762717,3.0666783,0.0,-0.351647,0.026392803,-0.00060772896,0.0,0.0,0.0,0.0,0.0,0.0,0.0041373097,0.02174176,-0.7637522
123881921,nan,nan,-0.8762717,3.0666783,0.0,-0.35132936,0.026368963,-0.010139883,0.0,0.0,0.0,0.0,0.0,0.0,0.0064894157,0.02197906,-0.7690113
123981682,nan,nan,-0.8762717,3.0666783,0.0,-0.35131562,0.026367933,-0.022050679,0.0,0.0,0.0,0.0,0.0,0.0,0.008613071,0.016470881,-0.7740072
124083245,nan,nan,-0.8762717,3.0666783,0.0,-0.35131532,0.02636791,-0.035508394,0.0,0.0,0.0,0.0,0.0,0.0,0.009638957,0.008152578,-0.77906334
124181773,nan,nan,-0.8762717,3.0666783,0.0,-0.29488456,0.022132508,-0.047139227,0.0,0.0,0.0,0.0,0.0,0.0,0.012721607,0.006714983,-0.7801367
124283239,nan,nan,-0.8762717,3.0666783,0.0,-0.16482191,0.0123706795,-0.05587119,0.0,0.0,0.0,0.0,0.0,0.0,0.021705601,0.0008074194,-0.7763354
124382056,nan,nan,-0.8762717,3.0666783,0.0,-0.107617326,0.0080772,-0.061036706,0.0,0.0,0.0,0.0,0.0,0.0,0.02436757,-0.00018514693,-0.7778086
124482542,nan,nan,-0.8762717,3.0666783,0.0,-0.080520764,0.006043472,-0.06445509,0.0,0.0,0.0,0.0,0.0,0.0,0.022714585,0.0018109512,-0.7749888
124582346,nan,nan,-0.8762717,3.0666783,0.0,-0.092211455,0.0069209146,-0.06487328,0.0,0.0,0.0,0.0,0.0,0.0,0.016184267,0.0057038255,-0.7736406
124702471,nan,nan,-0.8762717,3.0666783,0.0,-0.24638177,0.01849214,-0.062999964,0.0,0.0,0.0,0.0,0.0,0.0,-0.0043640165,0.010328049,-0.76708376
124802491,nan,nan,-0.8762717,3.0666783,0.0,-0.57052386,0.04282057,-0.05884391,0.0,0.0,0.0,0.0,0.0,0.0,-0.034941383,0.015589999,-0.76274914
124902810,nan,nan,-0.8762717,3.0666783,0.0,-0.7706994,0.05784471,-0.05325079,0.0,0.0,0.0,0.0,0.0,0.0,-0.051438272,0.016588163,-0.75989306
125002619,nan,nan,-0.8762717,3.0666783,0.0,-0.83826834,0.062916085,-0.046390533,0.0,0.0,0.0,0.0,0.0,0.0,-0.060694087,0.01886373,-0.75355715
125102737,nan,nan,-0.8762717,3.0666783,0.0,-0.8657744,0.064980544,-0.038273156,0.0,0.0,0.0,0.0,0.0,0.0,-0.06018802,0.024885997,-0.74741185
125202770,nan,nan,-0.8762717,3.0666783,0.0,-0.81687534,0.061310437,-0.02642858,0.0,0.0,0.0,0.0,0.0,0.0,-0.050489716,0.023180412,-0.73875284
125302814,nan,nan,-0.8762717,3.0666783,0.0,-0.78276855,0.05875056,-0.0125255585,0.0,0.0,0.0,0.0,0.0,0.0,-0.04761872,0.024806079,-0.7316276
125402986,nan,nan,-0.8762717,3.0666783,0.0,-0.55190086,0.041422825,0.0040804744,0.0,0.0,0.0,0.0,0.0,0.0,-0.022012282,0.024972573,-0.72691864
125503178,nan,nan,-0.8762717,3.0666783,0.0,-0.07877347,0.0059123305,0.018561244,0.0,0.0,0.0,0.0,0.0,0.0,0.019730182,0.012794657,-0.7269152
125603285,0.72397316,-0.1805246,-0.8762717,3.0666783,0.0,0.01083123,0.00074708834,0.03159082,0.0,0.0,0.0,0.0,0.0,0.0,0.028967991,0.016882079,-0.72867227
125703319,0.72397316,-0.1805246,-0.8762717,3.0666783,0.0,0.03911116,0.00041073933,0.039013326,0.0,0.0,0.0,0.0,0.0,0.0,0.03019258,0.01890363,-0.7335551
125803397,0.72397316,-0.1805246,-0.8762717,3.0666783,0.0,0.07250371,-0.002261409,0.041064322,0.0,0.0,0.0,0.0,0.0,0.0,0.032427683,0.016928187,-0.7418492
125923430,0.72397316,-0.1805246,-0.8762717,3.0666783,0.0,0.110082276,-0.008289177,0.03686887,0.0,0.0,0.0,0.0,0.0,0.0,0.03403738,0.015746547,-0.7483508
126023494,0.72397316,-0.1805246,-0.8762717,3.0666783,0.0,0.13696052,-0.01507867,0.028899312,0.0,0.0,0.0,0.0,0.0,0.0,0.03472454,0.015709218,-0.75648594
126123645,0.72397316,-0.1805246,-0.8762717,3.0666783,0.0,0.1596788,-0.023496343,0.017758429,0.0,0.0,0.0,0.0,0.0,0.0,0.031323295,0.011231352,-0.7606816
126224173,nan,nan,-0.8762717,3.0666783,0.0,-0.2160841,0.016218154,0.007409036,0.0,0.0,0.0,0.0,0.0,0.0,-0.005299894,0.016000036,-0.76436687
126324367,nan,nan,-0.8762717,3.0666783,0.0,-0.33231592,0.024941914,-0.002879858,0.0,0.0,0.0,0.0,0.0,0.0,-0.017244386,0.016065495,-0.7648822
126424392,nan,nan,-0.8762717,3.0666783,0.0,-0.33226943,0.024938423,-0.009927928,0.0,0.0,0.0,0.0,0.0,0.0,-0.019554367,0.015634352,-0.7636378
126524377,nan,nan,-0.8762717,3.0666783,0.0,-0.27810866,0.020873398,-0.01417762,0.0,0.0,0.0,0.0,0.0,0.0,-0.008290101,0.01867977,-0.763464
126624437,nan,nan,-0.8762717,3.0666783,0.0,-0.18112141,0.013594036,-0.015369594,0.0,0.0,0.0,0.0,0.0,0.0,-0.0037774136,0.019014971,-0.759053
126724400,nan,nan,-0.8762717,3.0666783,0.0,-0.24755926,0.018580519,-0.013509572,0.0,0.0,0.0,0.0,0.0,0.0,-0.004940094,0.021839455,-0.7563686
126824450,nan,nan,-0.8762717,3.0666783,0.0,-0.20539205,0.015415664,-0.010417461,0.0,0.0,0.0,0.0,0.0,0.0,0.0016348704,0.018018994,-0.75429916
126924426,nan,nan,-0.8762717,3.0666783,0.0,-0.081205204,0.0060948427,-0.006380856,0.0,0.0,0.0,0.0,0.0,0.0,0.01740349,0.022778621,-0.75235474
127044844,0.5029514,-0.12515913,-0.8762717,3.0666783,0.0,0.00922372,0.0011462197,-0.0016802549,0.0,0.0,0.0,0.0,0.0,0.0,0.028609019,0.025475746,-0.75243723
127144844,0.5029514,-0.12515913,-0.8762717,3.0666783,0.0,0.034157883,0.004660798,0.0006505847,0.0,0.0,0.0,0.0,0.0,0.0,0.027945135,0.025220774,-0.75106764
127244895,0.5029514,-0.12515913,-0.8762717,3.0666783,0.0,0.06354151,0.009393976,0.0018997788,0.0,0.0,0.0,0.0,0.0,0.0,0.03347379,0.023753338,-0.75254416
127345638,0.5029514,-0.12515913,-0.8762717,3.0666783,0.0,0.09233256,0.014718299,0.0021561384,0.0,0.0,0.0,0.0,0.0,0.0,0.034826085,0.027075913,-0.7530506
127445138,0.5029514,-0.12515913,-0.8762717,3.0666783,0.0,0.116198756,0.019843671,0.002944827,0.0,0.0,0.0,0.0,0.0,0.0,0.032464594,0.026290093,-0.7500545
