timestamp,ref_timestamp,ref_lat,ref_lon,x,y,z,delta_xy[0],delta_xy[1],delta_z,vx,vy,vz,z_deriv,delta_vxy[0],delta_vxy[1],delta_vz,ax,ay,az,yaw,ref_alt,dist_bottom,dist_bottom_rate,eph,epv,evh,evv,vxy_max,vz_max,hagl_min,hagl_max,xy_valid,z_valid,v_xy_valid,v_z_valid,xy_reset_counter,z_reset_counter,vxy_reset_counter,vz_reset_counter,xy_global,z_global,dist_bottom_valid
30462478,0,0.0,0.0,0.1266279,0.682035,-0.03181064,0.1208579,0.67637897,-0.25504225,0.0009514335,-0.0015667015,0.020511378,0.009055753,-0.0022686475,0.002186978,0.000578492,0.00133146,0.0025709383,0.033806916,3.0897746,0.0,0.1,-0.020511378,0.00564701,0.0038687151,0.026657542,0.017609067,inf,inf,inf,inf,1,1,1,1,2,1,2,3,0,0,0
30558476,0,0.0,0.0,0.1267829,0.6820776,-0.03160682,0.1208579,0.67637897,-0.25504225,0.00072333263,-0.0013307845,0.020886354,0.009283573,-0.0022686475,0.002186978,0.000578492,-0.009496121,-0.008596473,0.058942117,3.0897624,0.0,0.1,-0.020886354,0.0053662146,0.0036838676,0.026212756,0.017346429,inf,inf,inf,inf,1,1,1,1,2,1,2,3,0,0,0
30662470,0,0.0,0.0,0.12687236,0.6821684,-0.03137651,0.1208579,0.67637897,-0.25504225,0.00051897473,-0.0009904294,0.022165712,0.010385369,-0.0022686475,0.002186978,0.000578492,0.00092917425,0.004248394,0.044338316,3.0897667,0.0,0.1,-0.022165712,0.005363093,0.0036774976,0.026412312,0.017463343,inf,inf,inf,inf,1,1,1,1,2,1,2,3,0,0,0
30766470,0,0.0,0.0,0.12689771,0.68230194,-0.031204123,0.1208579,0.67637897,-0.25504225,-0.00031408714,-0.00017810395,0.021453505,0.009469109,-0.0022686475,0.002186978,0.000578492,-0.21920048,0.13874175,0.025397101,3.0899627,0.0,0.1,-0.021453505,0.005152743,0.0035363913,0.02609051,0.017274998,inf,inf,inf,inf,1,1,1,1,2,1,2,3,0,0,0
30870470,0,0.0,0.0,0.12684642,0.68246466,-0.031087406,0.1208579,0.67637897,-0.25504225,0.00019442085,-0.0015181031,0.021511655,0.009356969,-0.0022686475,0.002186978,0.000578492,0.44740883,-0.3187013,0.14235157,3.090447,0.0,0.1,-0.021511655,0.005035091,0.003458122,0.025795577,0.017103573,inf,inf,inf,inf,1,1,1,1,2,1,2,3,0,0,0
30973726,0,0.0,0.0,0.12671894,0.68263966,-0.030971633,0.1208579,0.67637897,-0.25504225,-0.0027802822,-0.00057257264,0.021582903,0.009303089,-0.0022686475,0.002186978,0.000578492,-0.868714,0.15041222,-0.085307084,3.09005,0.0,0.1,-0.021582903,0.005156717,0.0035389098,0.025938371,0.017191052,inf,inf,inf,inf,1,1,1,1,2,1,2,3,0,0,0
31077695,0,0.0,0.0,0.12656833,0.68281287,-0.03089809,0.1208579,0.67637897,-0.25504225,-0.00024982064,0.0012014871,0.021519497,0.009095169,-0.0022686475,0.002186978,0.000578492,0.16020405,0.109367505,0.012865103,3.089668,0.0,0.1,-0.021519497,0.0052325106,0.0035901193,0.02601467,0.017237172,inf,inf,inf,inf,1,1,1,1,2,1,2,3,0,0,0
31181670,0,0.0,0.0,0.12652472,0.68298095,-0.03094556,0.1208579,0.67637897,-0.25504225,-0.000101138234,0.0012638224,0.021925405,0.009307365,-0.0022686475,0.002186978,0.000578492,-0.10351345,-0.34365857,0.073849805,3.0896387,0.0,0.1,-0.021925405,0.005004922,0.0034419417,0.02550304,0.016934918,inf,inf,inf,inf,1,1,1,1,2,1,2,3,0,0,0
31285670,0,0.0,0.0,0.12657279,0.683186,-0.031051766,0.1208579,0.67637897,-0.25504225,-0.0023951712,0.0023615018,0.020140847,0.007359519,-0.0022686475,0.002186978,0.000578492,-0.4702422,-0.31381777,-0.037484862,3.0902627,0.0,0.1,-0.020140847,0.0051706834,0.0035476447,0.02599488,0.017220117,inf,inf,inf,inf,1,1,1,1,2,1,2,3,0,0,0
31381676,0,0.0,0.0,0.12656708,0.6833044,-0.031194216,0.1208579,0.67637897,-0.25504225,-0.0003387201,-0.0017863037,0.020279828,0.0073252963,-0.0022686475,0.002186978,0.000578492,-0.023901267,-0.5775786,0.065690435,3.0911741,0.0,0.1,-0.020279828,0.004977812,0.0034195795,0.02565054,0.017016793,inf,inf,inf,inf,1,1,1,1,2,1,2,3,0,0,0
31485679,0,0.0,0.0,0.12655826,0.6833816,-0.03128944,0.1208579,0.67637897,-0.25504225,-0.00054755266,0.0024919547,0.02186235,0.008776816,-0.0022686475,0.002186978,0.000578492,0.29630515,1.4862925,0.0098410975,3.0908484,0.0,0.1,-0.02186235,0.0050232704,0.0034464765,0.025844779,0.017132172,inf,inf,inf,inf,1,1,1,1,2,1,2,3,0,0,0
31589672,0,0.0,0.0,0.12648001,0.6833881,-0.03127894,0.1208579,0.67637897,-0.25504225,0.0014464458,0.00088179606,0.021492852,0.008381012,-0.0022686475,0.002186978,0.000578492,1.0649264,-0.28109547,-0.1560732,3.089602,0.0,0.1,-0.021492852,0.0052977656,0.0036253524,0.026409492,0.017467123,inf,inf,inf,inf,1,1,1,1,2,1,2,3,0,0,0
31685676,0,0.0,0.0,0.12640296,0.6832862,-0.031270802,0.1208579,0.67637897,-0.25504225,-0.0015770282,-4.5936602e-05,0.022295868,0.009169593,-0.0022686475,0.002186978,0.000578492,-0.9899553,0.6392336,0.17509201,3.0904317,0.0,0.1,-0.022295868,0.0050463956,0.00346482,0.025668785,0.017031899,inf,inf,inf,inf,1,1,1,1,2,1,2,3,0,0,0
31789695,0,0.0,0.0,0.12630135,0.6832682,-0.031253748,0.1208579,0.67637897,-0.25504225,-0.0019284672,-0.003627139,0.020784054,0.0076574646,-0.0022686475,0.002186978,0.000578492,-0.84832364,-0.009243192,0.54772234,3.091174,0.0,0.1,-0.020784054,0.0052064536,0.0035708277,0.025975496,0.01721327,inf,inf,inf,inf,1,1,1,1,2,1,2,3,0,0,0
31888879,0,0.0,0.0,0.12628673,0.682944,-0.031141663,0.1208579,0.67637897,-0.25504225,-0.002757853,-0.005602266,0.023774918,0.010600491,-0.0022686475,0.002186978,0.000578492,-0.4998055,-1.4262544,0.45745856,3.0909328,0.0,0.1,-0.023774918,0.0052086185,0.0035727595,0.025998885,0.0172254,inf,inf,inf,inf,1,1,1,1,2,1,2,3,0,0,0
31992870,0,0.0,0.0,0.12630291,0.6824466,-0.031084493,0.1208579,0.67637897,-0.25504225,9.6977674e-05,-0.0059303865,0.023045119,0.009795284,-0.0022686475,0.002186978,0.000578492,0.8953896,-0.9771482,-0.37580743,3.0908327,0.0,0.1,-0.023045119,0.005050287,0.0034699389,0.025619768,0.017001959,inf,inf,inf,inf,1,1,1,1,2,1,2,3,0,0,0
32096876,0,0.0,0.0,0.12638503,0.6821334,-0.031034714,0.1208579,0.67637897,-0.25504225,0.0035352272,-0.003837839,0.022262141,0.00896645,-0.0022686475,0.002186978,0.000578492,1.1410675,0.46964213,0.6697246,3.0904658,0.0,0.1,-0.022262141,0.0052725715,0.003613598,0.026369546,0.017460981,inf,inf,inf,inf,1,1,1,1,2,1,2,3,0,0,0
32200870,0,0.0,0.0,0.12645683,0.6818537,-0.03100204,0.1208579,0.67637897,-0.25504225,-0.0030603402,-0.0030174616,0.023491668,0.01011199,-0.0022686475,0.002186978,0.000578492,-0.7704521,-0.43003935,-0.034885705,3.090666,0.0,0.1,-0.023491668,0.005193432,0.0035609081,0.026207117,0.01736278,inf,inf,inf,inf,1,1,1,1,2,1,2,3,0,0,0
32304869,0,0.0,0.0,0.12653174,0.68173254,-0.031082556,0.1208579,0.67637897,-0.25504225,0.0027485548,-0.004779031,0.019312786,0.0058434554,-0.0022686475,0.002186978,0.000578492,0.99719024,-0.8461763,0.27930924,3.0909126,0.0,0.1,-0.019312786,0.005084001,0.0034902054,0.025865424,0.017159142,inf,inf,inf,inf,1,1,1,1,2,1,2,3,0,0,0
32400925,0,0.0,0.0,0.12662405,0.68175495,-0.031143356,0.1208579,0.67637897,-0.25504225,-0.0005377184,-0.003881532,0.023349842,0.00980773,-0.0022686475,0.002186978,0.000578492,-0.6232657,-0.3555485,0.55702174,3.0912309,0.0,0.1,-0.023349842,0.005174462,0.0035489763,0.026042597,0.01725703,inf,inf,inf,inf,1,1,1,1,2,1,2,3,0,0,0
32504870,0,0.0,0.0,0.12676102,0.6818549,-0.031172551,0.1208579,0.67637897,-0.25504225,0.002661885,-0.0019776258,0.02175549,0.0081431875,-0.0022686475,0.002186978,0.000578492,0.714702,0.41742253,-0.39228,3.0912988,0.0,0.1,-0.02175549,0.0050627836,0.0034769815,0.025709957,0.01705555,inf,inf,inf,inf,1,1,1,1,2,1,2,3,0,0,0
32608904,0,0.0,0.0,0.12690912,0.6820381,-0.03125841,0.1208579,0.67637897,-0.25504225,-0.00040203173,-0.0032786448,0.023747476,0.010080198,-0.0022686475,0.002186978,0.000578492,-0.4104857,-0.63405,0.5316258,3.0911875,0.0,0.1,-0.023747476,0.0049247188,0.0033876095,0.025331022,0.016829738,inf,inf,inf,inf,1,1,1,1,2,1,2,3,0,0,0
32712876,0,0.0,0.0,0.12697364,0.6822712,-0.031333063,0.1208579,0.67637897,-0.25504225,0.0016246821,-0.0010993002,0.020171033,0.006462071,-0.0022686475,0.002186978,0.000578492,0.60211664,-0.017751228,-0.47303516,3.0912013,0.0,0.1,-0.020171033,0.0051621976,0.0035405026,0.02599272,0.01721871,inf,inf,inf,inf,1,1,1,1,2,1,2,3,0,0,0
32815311,0,0.0,0.0,0.12690122,0.68252665,-0.0315395,0.1208579,0.67637897,-0.25504225,-0.0012730833,0.00057388924,0.020855576,0.007115143,-0.0022686475,0.002186978,0.000578492,-0.47029546,1.3318461,0.3840133,3.0914533,0.0,0.1,-0.020855576,0.005044155,0.003464253,0.025662605,0.017024254,inf,inf,inf,inf,1,1,1,1,2,1,2,3,0,0,0
32912082,0,0.0,0.0,0.12673746,0.6826837,-0.031690296,0.1208579,0.67637897,-0.25504225,-0.000961585,0.0018805271,0.020532273,0.006755981,-0.0022686475,0.002186978,0.000578492,0.3093974,1.7757071,-0.27326962,3.0918171,0.0,0.1,-0.020532273,0.0051290104,0.0035179474,0.025906458,0.017160267,inf,inf,inf,inf,1,1,1,1,2,1,2,3,0,0,0
33016120,0,0.0,0.0,0.12657644,0.6829488,-0.031959876,0.1208579,0.67637897,-0.25504225,-0.001638712,0.00014732877,0.016776387,0.0030026839,-0.0022686475,0.002186978,0.000578492,-1.048101,-2.1963155,0.15911612,3.0916984,0.0,0.1,-0.016776387,0.005027749,0.0034530156,0.025639653,0.017009761,inf,inf,inf,inf,1,1,1,1,2,1,2,3,0,0,0
33120070,0,0.0,0.0,0.12651794,0.6832104,-0.032277945,0.1208579,0.67637897,-0.25504225,0.0024042302,0.00609632,0.015592812,0.0018201282,-0.0022686475,0.002186978,0.000578492,0.5040788,1.3372141,-0.47743958,3.0922384,0.0,0.1,-0.015592812,0.005037449,0.0034567562,0.025793653,0.017101642,inf,inf,inf,inf,1,1,1,1,2,1,2,3,0,0,0
33216097,0,0.0,0.0,0.12650731,0.68348205,-0.03242166,0.1208579,0.67637897,-0.25504225,-0.0043598255,-0.0015986852,0.021735588,0.0080237705,-0.0022686475,0.002186978,0.000578492,-0.59237593,-1.666145,-0.8099126,3.091728,0.0,0.1,-0.021735588,0.0051580295,0.0035358202,0.026016498,0.017234953,inf,inf,inf,inf,1,1,1,1,2,1,2,3,0,0,0
33320069,0,0.0,0.0,0.12649053,0.6837887,-0.032599084,0.1208579,0.67637897,-0.25504225,-0.0008238095,0.008016836,0.018863661,0.0052436404,-0.0022686475,0.002186978,0.000578492,0.45151177,1.0945725,-1.262018,3.0918632,0.0,0.1,-0.018863661,0.005046244,0.0034651118,0.025643092,0.017016204,inf,inf,inf,inf,1,1,1,1,2,1,2,3,0,0,0
33424070,0,0.0,0.0,0.12643856,0.68404394,-0.03278233,0.1208579,0.67637897,-0.25504225,-0.00032232964,0.0037204581,0.011300175,-0.0021779789,-0.0022686475,0.002186978,0.000578492,0.49895987,0.43643937,-0.98902947,3.0921726,0.0,0.1,-0.011300175,0.005138482,0.003528574,0.025702601,0.017050683,inf,inf,inf,inf,1,1,1,1,2,1,2,3,0,0,0
33520120,0,0.0,0.0,0.12633362,0.68424785,-0.03302155,0.1208579,0.67637897,-0.25504225,0.00032163624,0.0063536405,0.01659965,0.0031950334,-0.0022686475,0.002186978,0.000578492,1.3171871,0.89655334,-1.4354471,3.0921872,0.0,0.1,-0.01659965,0.005183183,0.0035560706,0.02595226,0.017193832,inf,inf,inf,inf,1,1,1,1,2,1,2,3,0,0,0
33623308,0,0.0,0.0,0.12613946,0.6845593,-0.033238653,0.1208579,0.67637897,-0.25504225,-0.0019967922,0.0058984878,0.009980942,-0.0032915007,-0.0022686475,0.002186978,0.000578492,0.15193854,-0.40704945,-1.7646902,3.092435,0.0,0.1,-0.009980942,0.0053088986,0.0036380873,0.026231896,0.017359208,inf,inf,inf,inf,1,1,1,1,2,1,2,3,0,0,0
33727279,0,0.0,0.0,0.12594993,0.684886,-0.033431705,0.1208579,0.67637897,-0.25504225,0.0021451928,0.0051110736,0.013186865,6.6129345e-05,-0.0022686475,0.002186978,0.000578492,0.80959,0.16154039,0.7060731,3.0924113,0.0,0.1,-0.013186865,0.005018245,0.003451008,0.02540209,0.016860405,inf,inf,inf,inf,1,1,1,1,2,1,2,3,0,0,0
33831276,0,0.0,0.0,0.12583663,0.6851402,-0.03356803,0.1208579,0.67637897,-0.25504225,-0.004759567,0.005628904,0.021586735,0.008624493,-0.0022686475,0.002186978,0.000578492,-0.7319265,0.05855833,2.2373526,3.0928142,0.0,0.1,-0.021586735,0.0052172705,0.0035778368,0.026073335,0.017269295,inf,inf,inf,inf,1,1,1,1,2,1,2,3,0,0,0
33927288,0,0.0,0.0,0.12587918,0.68546075,-0.033613402,0.1208579,0.67637897,-0.25504225,-0.00037613453,0.0061261216,0.015803594,0.0030210784,-0.0022686475,0.002186978,0.000578492,-0.3160775,0.21041295,1.1353528,3.0926852,0.0,0.1,-0.015803594,0.005191079,0.0035619051,0.02594614,0.017193222,inf,inf,inf,inf,1,1,1,1,2,1,2,3,0,0,0
34031307,0,0.0,0.0,0.12603298,0.68556243,-0.033618744,0.1208579,0.67637897,-0.25504225,0.0004293649,0.0047902656,0.02453797,0.011929726,-0.0022686475,0.002186978,0.000578492,1.5215933,-0.36198106,1.6609943,3.0928452,0.0,0.1,-0.02453797,0.0052767303,0.003618323,0.026117453,0.017294796,inf,inf,inf,inf,1,1,1,1,2,1,2,3,0,0,0
34135288,0,0.0,0.0,0.12625083,0.68551743,-0.033671692,0.1208579,0.67637897,-0.25504225,-0.00045969104,0.005482043,0.01849986,0.006004606,-0.0022686475,0.002186978,0.000578492,0.07147975,0.16980618,-1.673189,3.0925796,0.0,0.1,-0.01849986,0.005120596,0.0035149858,0.02586871,0.017152816,inf,inf,inf,inf,1,1,1,1,2,1,2,3,0,0,0
34231282,0,0.0,0.0,0.12646891,0.685458,-0.033773802,0.1208579,0.67637897,-0.25504225,3.5336016e-05,0.0041649216,0.022084892,0.009705666,-0.0022686475,0.002186978,0.000578492,0.14266045,-0.592977,-0.5363848,3.0925646,0.0,0.1,-0.022084892,0.0051827366,0.0035542613,0.026046028,0.017256431,inf,inf,inf,inf,1,1,1,1,2,1,2,3,0,0,0
34335270,0,0.0,0.0,0.12673712,0.6853415,-0.033897623,0.1208579,0.67637897,-0.25504225,0.0038087151,0.0016655234,0.01188647,-0.0003754551,-0.0022686475,0.002186978,0.000578492,1.1001054,0.39917502,0.72686076,3.0930917,0.0,0.1,-0.01188647,0.005049879,0.0034680644,0.025702838,0.017040314,inf,inf,inf,inf,1,1,1,1,2,1,2,3,0,0,0
34435269,0,0.0,0.0,0.12687883,0.68490696,-0.03397373,0.1208579,0.67637897,-0.25504225,-0.00051727117,0.0032280684,0.022135634,0.010009184,-0.0022686475,0.002186978,0.000578492,2.3631902,-0.7033826,-0.4496812,3.0935616,0.0,0.1,-0.022135634,0.005183454,0.0035566976,0.02588641,0.017162152,inf,inf,inf,inf,1,1,1,1,2,1,2,3,0,0,0
34534484,0,0.0,0.0,0.12692396,0.68469024,-0.034200896,0.1208579,0.67637897,-0.25504225,-0.0049101,0.0041678655,0.0126570845,0.0006122354,-0.0022686475,0.002186978,0.000578492,-2.9018419,2.115168,1.3744357,3.0927763,0.0,0.1,-0.0126570845,0.0051452974,0.0035327598,0.025745614,0.017077535,inf,inf,inf,inf,1,1,1,1,2,1,2,3,0,0,0
34638470,0,0.0,0.0,0.12688532,0.6843015,-0.03447608,0.1208579,0.67637897,-0.25504225,-0.007070639,0.0027745224,0.028221123,0.016178163,-0.0022686475,0.002186978,0.000578492,-0.7223755,0.14933762,0.7797961,3.0926156,0.0,0.1,-0.028221123,0.0050311913,0.0034552237,0.025748996,0.017080236,inf,inf,inf,inf,1,1,1,1,2,1,2,3,0,0,0
34734469,0,0.0,0.0,0.12664436,0.6838414,-0.034625765,0.1208579,0.67637897,-0.25504225,-0.0054354295,0.0046481076,0.027481904,0.01548705,-0.0022686475,0.002186978,0.000578492,0.7864516,1.1615199,-0.7716871,3.0926733,0.0,0.1,-0.027481904,0.0050977357,0.0034983451,0.025892545,0.017162,inf,inf,inf,inf,1,1,1,1,2,1,2,3,0,0,0
34838470,0,0.0,0.0,0.12673637,0.6835095,-0.03504147,0.1208579,0.67637897,-0.25504225,-0.0036447158,-0.015245451,0.017782906,0.005892709,-0.0022686475,0.002186978,0.000578492,-0.92286515,-4.3799515,2.7481024,3.0925333,0.0,0.1,-0.017782906,0.005232869,0.0035878133,0.026100166,0.017285682,inf,inf,inf,inf,1,1,1,1,2,1,2,3,0,0,0
34942470,0,0.0,0.0,0.12693411,0.68326926,-0.03526713,0.1208579,0.67637897,-0.25504225,-0.0018554893,-0.0006405438,0.014575874,0.0028021059,-0.0022686475,0.002186978,0.000578492,-2.2933524,-3.2882657,0.044917215,3.0918024,0.0,0.1,-0.014575874,0.005332372,0.0036539696,0.026250664,0.017385012,inf,inf,inf,inf,1,1,1,1,2,1,2,3,0,0,0
35038485,0,0.0,0.0,0.12703134,0.6829141,-0.03533167,0.1208579,0.67637897,-0.25504225,0.0029864432,-0.0026727438,0.013342086,0.0016811697,-0.0022686475,0.002186978,0.000578492,-0.7801412,3.2804914,2.7017033,3.0922675,0.0,0.1,-0.013342086,0.005238545,0.00359483,0.026007753,0.0172154,inf,inf,inf,inf,1,1,1,1,2,1,2,3,0,0,0
35142470,0,0.0,0.0,0.12743267,0.6827226,-0.035581354,0.1208579,0.67637897,-0.25504225,0.010565422,-0.012922731,-0.00463762,-0.016143847,-0.0022686475,0.002186978,0.000578492,0.71313983,-1.602806,0.33677548,3.0926979,0.0,0.10020052,0.00463762,0.0053087454,0.003639921,0.026194487,0.017335959,inf,inf,inf,inf,1,1,1,1,2,1,2,3,0,0,0
35245670,0,0.0,0.0,0.12777117,0.68235,-0.035585806,0.1208579,0.67637897,-0.25504225,0.0068379054,-0.0052602,0.016290568,0.0049177688,-0.0022686475,0.002186978,0.000578492,-0.5763062,0.3507688,3.8589683,3.0935254,0.0,0.10020497,-0.016290568,0.00536962,0.0036793933,0.026330333,0.017419793,inf,inf,inf,inf,1,1,1,1,2,1,2,3,0,0,0
35349676,0,0.0,0.0,0.12848432,0.6822708,-0.035523508,0.1208579,0.67637897,-0.25504225,0.009452162,-0.0005759823,0.034140844,0.02282713,-0.0022686475,0.002186978,0.000578492,1.35962,2.1517053,3.8621213,3.094044,0.0,0.10014267,-0.034140844,0.005452424,0.0037316652,0.026588406,0.017573465,inf,inf,inf,inf,1,1,1,1,2,1,2,3,0,0,0
35445670,0,0.0,0.0,0.12906443,0.6820673,-0.035460204,0.1208579,0.67637897,-0.25504225,-0.0018533986,-0.0252406,0.028066274,0.016747791,-0.0022686475,0.002186978,0.000578492,-1.020327,-2.76219,1.5842074,3.095038,0.0,0.100079365,-0.028066274,0.0053603784,0.0036723525,0.02634407,0.017410915,inf,inf,inf,inf,1,1,1,1,2,1,2,3,0,0,0
35549678,0,0.0,0.0,0.12952761,0.6816749,-0.035452776,0.1208579,0.67637897,-0.25504225,0.00992862,0.021743856,0.022390816,0.010984149,-0.0022686475,0.002186978,0.000578492,-0.76577735,4.926476,2.7259839,3.0960524,0.0,0.10007194,-0.022390816,0.0054314425,0.0037179573,0.026528396,0.017534541,inf,inf,inf,inf,1,1,1,1,2,1,2,3,0,0,0
35653676,0,0.0,0.0,0.13028924,0.6817931,-0.036164206,0.1208579,0.67637897,-0.25504225,0.0039352123,0.002040867,-0.001109763,-0.012694414,-0.0022686475,0.002186978,0.000578492,-2.2575486,1.3392128,-0.34295592,3.0946383,0.0,0.10078336,0.001109763,0.005209598,0.003572734,0.026081698,0.017265854,inf,inf,inf,inf,1,1,1,1,2,1,2,3,0,0,0
35749670,0,0.0,0.0,0.1305428,0.68220264,-0.036817607,0.1208579,0.67637897,-0.25504225,-0.005013086,-0.011772973,0.01928822,0.007384411,-0.0022686475,0.002186978,0.000578492,-2.9612243,-5.007191,1.5413656,3.0946374,0.0,0.101436764,-0.01928822,0.0049548573,0.0034055763,0.025513995,0.016929923,inf,inf,inf,inf,1,1,1,1,2,1,2,3,0,0,0
35853679,0,0.0,0.0,0.13082145,0.6831075,-0.038042355,0.1208579,0.67637897,-0.25504225,0.018025639,0.027372519,0.007708215,-0.0044864453,-0.0022686475,0.002186978,0.000578492,-0.6418257,-2.6630878,1.6465855,3.093542,0.0,0.10266152,-0.007708215,0.005113236,0.0035092013,0.025807014,0.017093282,inf,inf,inf,inf,1,1,1,1,2,1,2,3,0,0,0
35957676,0,0.0,0.0,0.13106032,0.68441325,-0.039628692,0.1208579,0.67637897,-0.25504225,0.0069757197,0.04311107,0.021003325,0.0085816225,-0.0022686475,0.002186978,0.000578492,-0.9064598,8.275237,2.3861601,3.0925002,0.0,0.10424785,-0.021003325,0.005216048,0.0035773506,0.02598159,0.017202325,inf,inf,inf,inf,1,1,1,1,2,1,2,3,0,0,0
36053670,0,0.0,0.0,0.13035901,0.68499595,-0.040563066,0.1208579,0.67637897,-0.25504225,0.003868553,0.0038214133,0.009070238,-0.0035687194,-0.0022686475,0.002186978,0.000578492,2.0311208,6.049382,-3.393344,3.090562,0.0,0.10518223,-0.009070238,0.005151998,0.0035371864,0.025775362,0.01708306,inf,inf,inf,inf,1,1,1,1,2,1,2,3,0,0,0
36156870,0,0.0,0.0,0.12827936,0.68449855,-0.040660538,0.1208579,0.67637897,-0.25504225,-0.007827966,-0.016479418,0.01665924,0.004002542,-0.0022686475,0.002186978,0.000578492,1.7438737,2.0063384,0.37995884,3.093003,0.0,0.1052797,-0.01665924,0.0052208765,0.0035821667,0.025946576,0.01720486,inf,inf,inf,inf,1,1,1,1,2,1,2,3,0,0,0
36260876,0,0.0,0.0,0.12614001,0.68417084,-0.040696442,0.1208579,0.67637897,-0.25504225,-0.014397494,0.006523484,0.010714132,-0.0015978595,-0.0022686475,0.002186978,0.000578492,-0.6208777,0.7499635,2.248029,3.0924819,0.0,0.1053156,-0.010714132,0.005213524,0.003580457,0.025793621,0.017139487,inf,inf,inf,inf,1,1,1,1,2,1,2,3,0,0,0
36364879,0,0.0,0.0,0.124181844,0.68441397,-0.040932983,0.1208579,0.67637897,-0.25504225,-0.006326165,0.013464654,0.0064595863,-0.005506204,-0.0022686475,0.002186978,0.000578492,-2.7528205,1.2671893,-0.83659244,3.0930552,0.0,0.105552144,-0.0064595863,0.005345222,0.0036641732,0.026349917,0.017454414,inf,inf,inf,inf,1,1,1,1,2,1,2,3,0,0,0
36460880,0,0.0,0.0,0.12228703,0.6845087,-0.040546276,0.1208579,0.67637897,-0.25504225,-0.02713655,-0.017537411,0.02158111,0.009774625,-0.0022686475,0.002186978,0.000578492,-0.493582,-3.0553296,-2.7673073,3.0921035,0.0,0.10516544,-0.02158111,0.0052900673,0.0036293434,0.026200779,0.01738377,inf,inf,inf,inf,1,1,1,1,2,1,2,3,0,0,0
36564887,0,0.0,0.0,0.119957455,0.68361735,-0.039475612,0.1208579,0.67637897,-0.25504225,-0.012540436,-0.021324867,0.02390451,0.012194573,-0.0022686475,0.002186978,0.000578492,-0.69024557,-2.8161669,-4.3089156,3.0925677,0.0,0.10409477,-0.02390451,0.0053679845,0.0036804446,0.026378233,0.017488116,inf,inf,inf,inf,1,1,1,1,2,1,2,3,0,0,0
36668874,0,0.0,0.0,0.11901627,0.6820222,-0.039324526,0.1208579,0.67637897,-0.25504225,-0.012932256,-0.027132913,0.020899288,0.009376336,-0.0022686475,0.002186978,0.000578492,-1.0738809,-4.246289,1.1078349,3.0936067,0.0,0.10394369,-0.020899288,0.005470011,0.0037476684,0.02663509,0.017654754,inf,inf,inf,inf,1,1,1,1,2,1,2,3,0,0,0
36772892,0,0.0,0.0,0.11937719,0.6835185,-0.03998702,0.1208579,0.67637897,-0.25504225,-0.0001604895,0.0048272843,0.007217315,-0.004345507,-0.0022686475,0.002186978,0.000578492,0.40386143,-5.7868285,-3.3708298,3.0931008,0.0,0.10460618,-0.007217315,0.005122329,0.003525041,0.025676018,0.017083047,inf,inf,inf,inf,1,1,1,1,2,1,2,3,0,0,0
36876894,0,0.0,0.0,0.12053604,0.68526465,-0.04104642,0.1208579,0.67637897,-0.25504225,0.001097907,0.010772569,0.006645574,-0.00543429,-0.0022686475,0.002186978,0.000578492,1.5938435,3.828602,-3.2916567,3.0901468,0.0,0.10566558,-0.006645574,0.0053031216,0.0036377986,0.026346736,0.0174319,inf,inf,inf,inf,1,1,1,1,2,1,2,3,0,0,0
36976077,0,0.0,0.0,0.12187522,0.68627185,-0.04215252,0.1208579,0.67637897,-0.25504225,0.0071841218,-0.018912489,0.0030952627,-0.0095279,-0.0022686475,0.002186978,0.000578492,0.5445612,-5.603957,-3.973591,3.0896614,0.0,0.10677168,-0.0030952627,0.005316077,0.0036441453,0.026366966,0.017468074,inf,inf,inf,inf,1,1,1,1,2,1,2,3,0,0,0
37080070,0,0.0,0.0,0.123472854,0.6865023,-0.043450665,0.1208579,0.67637897,-0.25504225,0.0012749892,0.012205958,0.0063198456,-0.006710341,-0.0022686475,0.002186978,0.000578492,-2.3185003,1.0469129,-1.9064704,3.0892577,0.0,0.10806982,-0.0063198456,0.005130049,0.0035258166,0.02598948,0.017279075,inf,inf,inf,inf,1,1,1,1,2,1,2,3,0,0,0
37184070,0,0.0,0.0,0.12414782,0.6865487,-0.04411568,0.1208579,0.67637897,-0.25504225,-0.01812296,0.0051572933,0.028539946,0.015362037,-0.0022686475,0.002186978,0.000578492,-0.38414243,2.3105524,1.2828535,3.089461,0.0,0.108734846,-0.028539946,0.0052213967,0.0035874324,0.026107294,0.017366566,inf,inf,inf,inf,1,1,1,1,2,1,2,3,0,0,0
37280086,0,0.0,0.0,0.12399427,0.6853802,-0.044135053,0.1208579,0.67637897,-0.25504225,0.005223194,0.002063192,0.033177268,0.02010641,-0.0022686475,0.002186978,0.000578492,1.4055151,1.7631068,1.6346328,3.0887868,0.0,0.10875422,-0.033177268,0.0052251336,0.0035916208,0.02613671,0.017437687,inf,inf,inf,inf,1,1,1,1,2,1,2,3,0,0,0
37384120,0,0.0,0.0,0.12403755,0.681821,-0.04403924,0.1208579,0.67637897,-0.25504225,0.0019285034,-0.061080553,0.022289187,0.009563374,-0.0022686475,0.002186978,0.000578492,-0.5290735,-3.725014,-1.1188246,3.0875235,0.0,0.1086584,-0.022289187,0.005329493,0.0036633196,0.026277974,0.017552428,inf,inf,inf,inf,1,1,1,1,2,1,2,3,0,0,0
37488079,0,0.0,0.0,0.123571984,0.6754579,-0.042612717,0.1208579,0.67637897,-0.25504225,-0.0091095185,-0.044505723,0.02570616,0.013322563,-0.0022686475,0.002186978,0.000578492,-2.6648057,1.0095866,-0.098402254,3.0882201,0.0,0.10723188,-0.02570616,0.004862046,0.0033584463,0.025233364,0.016972963,inf,inf,inf,inf,1,1,1,1,2,1,2,3,0,0,0
37584076,0,0.0,0.0,0.12313425,0.6713454,-0.04178618,0.1208579,0.67637897,-0.25504225,0.00023759819,-0.021372853,-0.0024264243,-0.014410142,-0.0022686475,0.002186978,0.000578492,-3.8906784,-3.2892962,-4.1772137,3.094118,0.0,0.10640534,0.0024264243,0.0052410597,0.003609877,0.026176294,0.017614894,inf,inf,inf,inf,1,1,1,1,2,1,2,3,0,0,0
37688070,0,0.0,0.0,0.12374465,0.6729433,-0.042542633,0.1208579,0.67637897,-0.25504225,0.0032566271,0.031169297,0.0027518987,-0.009035521,-0.0022686475,0.002186978,0.000578492,-2.4093149,-0.73367286,-0.51942027,3.0898786,0.0,0.10716179,-0.0027518987,0.0050537144,0.0034900154,0.0256257,0.017151434,inf,inf,inf,inf,1,1,1,1,2,1,2,3,0,0,0
37790503,0,0.0,0.0,0.12472681,0.6777627,-0.044362295,0.1208579,0.67637897,-0.25504225,0.01877963,0.019155474,0.009280461,-0.0029757111,-0.0022686475,0.002186978,0.000578492,2.987157,2.7528205,0.24140483,3.0873485,0.0,0.10898146,-0.009280461,0.005218085,0.003592163,0.026036158,0.017286751,inf,inf,inf,inf,1,1,1,1,2,1,2,3,0,0,0
37895285,0,0.0,0.0,0.12602131,0.68353915,-0.04668812,0.1208579,0.67637897,-0.25504225,-0.000611066,0.022789797,0.011271049,-0.0018342977,-0.0022686475,0.002186978,0.000578492,-0.74932224,2.1110582,2.1895356,3.08626,0.0,0.11130728,-0.011271049,0.0050857,0.0034992488,0.025767632,0.017136566,inf,inf,inf,inf,1,1,1,1,2,1,2,3,0,0,0
37999291,0,0.0,0.0,0.125639,0.68841046,-0.04811489,0.1208579,0.67637897,-0.25504225,-0.008497278,0.0036449297,0.018439502,0.0047645,-0.0022686475,0.002186978,0.000578492,-0.22716504,-1.3380209,-3.3467038,3.0827599,0.0,0.11273405,-0.018439502,0.0052278796,0.0035916273,0.026061337,0.017349081,inf,inf,inf,inf,1,1,1,1,2,1,2,3,0,0,0
38095270,0,0.0,0.0,0.123246536,0.68961394,-0.04768877,0.1208579,0.67637897,-0.25504225,-0.028278543,-0.02456251,0.037592173,0.023940802,-0.0022686475,0.002186978,0.000578492,1.3910737,-3.1263328,-2.6813707,3.0822506,0.0,0.112307936,-0.037592173,0.0054813684,0.0037623232,0.026521126,0.017740672,inf,inf,inf,inf,1,1,1,1,2,1,2,3,0,0,0
38199270,0,0.0,0.0,0.11986304,0.68622893,-0.045595348,0.1208579,0.67637897,-0.25504225,-0.02108975,-0.029455438,0.027495792,0.014565572,-0.0022686475,0.002186978,0.000578492,-0.15333082,3.0679092,2.4278932,3.083122,0.0,0.11021451,-0.027495792,0.00515936,0.0035594138,0.025778446,0.017402517,inf,inf,inf,inf,1,1,1,1,2,1,2,3,0,0,0
38303281,0,0.0,0.0,0.117883615,0.680764,-0.044279475,0.1208579,0.67637897,-0.25504225,-0.0025802932,-0.019451441,0.024386361,0.012552964,-0.0022686475,0.002186978,0.000578492,2.4381447,3.2211516,-0.6689285,3.0852056,0.0,0.10889864,-0.024386361,0.004998277,0.0034603262,0.025522983,0.017351374,inf,inf,inf,inf,1,1,1,1,2,1,2,3,0,0,0
38407276,0,0.0,0.0,0.11783685,0.6757374,-0.043995198,0.1208579,0.67637897,-0.25504225,-0.0014623544,-0.041707702,0.0026621027,-0.008589276,-0.0022686475,0.002186978,0.000578492,-1.2274014,-3.2541316,-3.2347639,3.084479,0.0,0.108614355,-0.0026621027,0.005192266,0.0035920164,0.026055634,0.017521188,inf,inf,inf,inf,1,1,1,1,2,1,2,3,0,0,0
38503305,0,0.0,0.0,0.11895509,0.67444617,-0.04441779,0.1208579,0.67637897,-0.25504225,0.0043234047,-0.014114354,-0.008696186,-0.02013634,-0.0022686475,0.002186978,0.000578492,-0.46221825,-2.3091052,-3.547365,3.0887334,0.0,0.10903695,0.008696186,0.0051532723,0.0035634418,0.025836842,0.017287375,inf,inf,inf,inf,1,1,1,1,2,1,2,3,0,0,0
38607280,0,0.0,0.0,0.12219203,0.6766638,-0.046032634,0.1208579,0.67637897,-0.25504225,0.01656778,0.02390242,0.013784427,0.0016730295,-0.0022686475,0.002186978,0.000578492,0.14424713,-0.1249835,-1.0003718,3.0823889,0.0,0.11065179,-0.013784427,0.005330379,0.0036708678,0.026388306,0.017546479,inf,inf,inf,inf,1,1,1,1,2,1,2,3,0,0,0
38710477,0,0.0,0.0,0.12464317,0.68035567,-0.048244596,0.1208579,0.67637897,-0.25504225,0.0030326312,-0.0023218626,-0.0020775958,-0.014856653,-0.0022686475,0.002186978,0.000578492,-0.4533659,-0.36558372,-0.54456204,3.081767,0.0,0.11286376,0.0020775958,0.005083916,0.003503829,0.025653852,0.017054142,inf,inf,inf,inf,1,1,1,1,2,1,2,3,0,0,0
38813719,0,0.0,0.0,0.12718056,0.6842263,-0.05080878,0.1208579,0.67637897,-0.25504225,0.01020236,-0.0022253504,0.0062353006,-0.0069809435,-0.0022686475,0.002186978,0.000578492,-1.680797,-7.1259613,0.47062698,3.0761197,0.0,0.11542794,-0.0062353006,0.0050095315,0.003448783,0.025683228,0.017124418,inf,inf,inf,inf,1,1,1,1,2,1,2,3,0,0,0
38910470,0,0.0,0.0,0.12995724,0.685818,-0.051870875,0.1208579,0.67637897,-0.25504225,0.018421313,-0.007139339,0.029332997,0.015926164,-0.0022686475,0.002186978,0.000578492,-2.2116752,-0.97280335,4.2468505,3.069151,0.0,0.116490036,-0.029332997,0.0048908205,0.0033690487,0.025450664,0.016986104,inf,inf,inf,inf,1,1,1,1,2,1,2,3,0,0,0
39014494,0,0.0,0.0,0.13345386,0.68743974,-0.052684378,0.1208579,0.67637897,-0.25504225,0.025092702,-0.014340502,0.010481879,-0.0025975246,-0.0022686475,0.002186978,0.000578492,-4.100777,-2.8811598,-0.14988828,3.070662,0.0,0.117303535,-0.010481879,0.005132372,0.003529564,0.025925227,0.017326893,inf,inf,inf,inf,1,1,1,1,2,1,2,3,0,0,0
39118495,0,0.0,0.0,0.13865186,0.6883141,-0.05235303,0.1208579,0.67637897,-0.25504225,0.05683605,0.003143216,0.015631624,0.0032093062,-0.0022686475,0.002186978,0.000578492,-4.2636027,-2.2568765,0.12603618,3.0767684,0.0,0.11697219,-0.015631624,0.0050959233,0.0035062241,0.025863932,0.017226234,inf,inf,inf,inf,1,1,1,1,2,1,2,3,0,0,0
39214470,0,0.0,0.0,0.1457887,0.68987983,-0.0526593,0.1208579,0.67637897,-0.25504225,0.047013417,0.010516376,0.011756648,-5.6467397e-06,-0.0022686475,0.002186978,0.000578492,-9.897301,-0.29031003,5.907601,3.0855017,0.0,0.11727846,-0.011756648,0.005113652,0.0035200887,0.025717147,0.017171772,inf,inf,inf,inf,1,1,1,1,2,1,2,3,0,0,0
39318511,0,0.0,0.0,0.1552803,0.6918656,-0.05354257,0.1208579,0.67637897,-0.25504225,0.0974194,0.010479854,-0.0077932747,-0.019142035,-0.0022686475,0.002186978,0.000578492,2.0394711,-2.4163756,-5.402508,3.0966253,0.0,0.11816173,0.0077932747,0.005230974,0.0035964604,0.025981069,0.017281065,inf,inf,inf,inf,1,1,1,1,2,1,2,3,0,0,0
39422474,0,0.0,0.0,0.16654703,0.6937415,-0.055108584,0.1208579,0.67637897,-0.25504225,0.08844109,0.01439903,-0.0010457342,-0.012468118,-0.0022686475,0.002186978,0.000578492,3.376799,1.9048293,0.07859005,3.1078062,0.0,0.119727746,0.0010457342,0.004983494,0.0034348078,0.0253475,0.01687285,inf,inf,inf,inf,1,1,1,1,2,1,2,3,0,0,0
39525670,0,0.0,0.0,0.17881776,0.69596505,-0.060156297,0.1208579,0.67637897,-0.25504225,0.11192994,0.019613111,-0.057509113,-0.0692989,-0.0022686475,0.002186978,0.000578492,1.8738072,-5.110087,-2.8365347,3.116721,0.0,0.124775454,0.057509113,0.0051817195,0.0035616513,0.025987476,0.017318476,inf,inf,inf,inf,1,1,1,1,2,1,2,3,0,0,0
39621676,0,0.0,0.0,0.19168763,0.69791657,-0.069015555,0.1208579,0.67637897,-0.25504225,0.105872594,0.03134797,-0.08159713,-0.094232604,-0.0022686475,0.002186978,0.000578492,-8.0088625,-0.953879,0.9267051,3.1254518,0.0,0.13363472,0.08159713,0.004932867,0.003398526,0.025441878,0.016953766,inf,inf,inf,inf,1,1,1,1,2,1,2,3,0,0,0
39725670,0,0.0,0.0,0.20709974,0.70139307,-0.08237139,0.1208579,0.67637897,-0.25504225,0.1413551,0.06591938,-0.10853931,-0.122838885,-0.0022686475,0.002186978,0.000578492,2.4177387,-2.859456,-3.8848853,3.1310964,0.0,0.14699055,0.10853931,0.0051868362,0.0035593717,0.026263079,0.017316993,inf,inf,inf,inf,1,1,1,1,2,1,2,3,0,0,0
39829674,0,0.0,0.0,0.2234576,0.7054743,-0.098836936,0.1208579,0.67637897,-0.25504225,0.13139082,0.053076148,-0.12239557,-0.13861486,-0.0022686475,0.002186978,0.000578492,-0.78630066,-0.09239702,-0.08903776,3.136545,0.0,0.1634561,0.12239557,0.0051644035,0.0035385308,0.026258921,0.017320178,inf,inf,inf,inf,1,1,1,1,2,1,2,3,0,0,0
39925676,0,0.0,0.0,0.23803459,0.7110365,-0.115007825,0.1208579,0.67637897,-0.25504225,0.120052226,0.07445536,-0.11688292,-0.1343578,-0.0022686475,0.002186978,0.000578492,-1.7568114,-4.5591803,3.1173716,3.1386285,0.0,0.17962699,0.11688292,0.005257295,0.0035961906,0.026416793,0.017348798,inf,inf,inf,inf,1,1,1,1,2,1,2,3,0,0,0
40029670,0,0.0,0.0,0.25254205,0.71853673,-0.13083029,0.1208579,0.67637897,-0.25504225,0.14848715,0.09823566,-0.115454,-0.13326757,-0.0022686475,0.002186978,0.000578492,3.2302399,3.0680995,-2.5778773,3.1400738,0.0,0.19544944,0.115454,0.0054334253,0.0037079179,0.026729383,0.01753896,inf,inf,inf,inf,1,1,1,1,2,1,2,3,0,0,0
40133670,0,0.0,0.0,0.26684391,0.72905046,-0.142822,0.1208579,0.67637897,-0.25504225,0.13826428,0.15872832,-0.06478516,-0.08149727,-0.0022686475,0.002186978,0.000578492,0.59038615,9.48665,2.5256112,3.1395283,0.0,0.20744115,0.06478516,0.005154334,0.003531381,0.025855394,0.017063422,inf,inf,inf,inf,1,1,1,1,2,1,2,3,0,0,0
40237676,0,0.0,0.0,0.28161272,0.74547166,-0.14787792,0.1208579,0.67637897,-0.25504225,0.14472805,0.1594339,-0.022272391,-0.036290724,-0.0022686475,0.002186978,0.000578492,-5.899913,-5.45547,0.21257998,3.1356277,0.0,0.21249709,0.022272391,0.00524062,0.0035874108,0.026053036,0.01716979,inf,inf,inf,inf,1,1,1,1,2,1,2,3,0,0,0
40341719,0,0.0,0.0,0.2968559,0.76525456,-0.14592163,0.1208579,0.67637897,-0.25504225,0.16965763,0.19326226,0.029111976,0.019414077,-0.0022686475,0.002186978,0.000578492,3.4720535,0.5374265,0.6390689,3.1265178,0.0,0.2105408,-0.029111976,0.005315483,0.003637494,0.026286962,0.01734878,inf,inf,inf,inf,1,1,1,1,2,1,2,3,0,0,0
40440870,0,0.0,0.0,0.3106512,0.7860127,-0.13755763,0.1208579,0.67637897,-0.25504225,0.16503687,0.23570988,0.0752209,0.07028788,-0.0022686475,0.002186978,0.000578492,-1.2126601,4.0806174,1.2752942,3.1177082,0.0,0.20217678,-0.0752209,0.0052420152,0.003591582,0.026088769,0.017200476,inf,inf,inf,inf,1,1,1,1,2,1,2,3,0,0,0
40536869,0,0.0,0.0,0.32282782,0.808984,-0.12393993,0.1208579,0.67637897,-0.25504225,0.18673451,0.2513156,0.10143326,0.10122319,-0.0022686475,0.002186978,0.000578492,4.8586297,-3.5119796,-3.3059094,3.110072,0.0,0.18855909,-0.10143326,0.0051964186,0.0035607202,0.02599869,0.017153606,inf,inf,inf,inf,1,1,1,1,2,1,2,3,0,0,0
40640876,0,0.0,0.0,0.33673215,0.83624184,-0.10581283,0.1208579,0.67637897,-0.25504225,0.208239,0.2619874,0.12541333,0.12947704,-0.0022686475,0.002186978,0.000578492,9.882887,1.3925757,-1.1039302,3.1038086,0.0,0.170432,-0.12541333,0.0053228983,0.0036434596,0.026374578,0.017461546,inf,inf,inf,inf,1,1,1,1,2,1,2,3,0,0,0
40744904,0,0.0,0.0,0.35291988,0.8650244,-0.08586878,0.1208579,0.67637897,-0.25504225,0.19392677,0.26760364,0.15547697,0.16219628,-0.0022686475,0.002186978,0.000578492,6.1075764,4.5879273,0.71453613,3.0953236,0.0,0.15048794,-0.15547697,0.005382276,0.0036861708,0.026423357,0.017516376,inf,inf,inf,inf,1,1,1,1,2,1,2,3,0,0,0
40848878,0,0.0,0.0,0.37165827,0.8938957,-0.06577249,0.1208579,0.67637897,-0.25504225,0.16598898,0.24317715,0.16388534,0.17117582,-0.0022686475,0.002186978,0.000578492,-3.818157,2.4817123,0.54766685,3.0906432,0.0,0.13039166,-0.16388534,0.0050776987,0.003492438,0.025588568,0.017019454,inf,inf,inf,inf,1,1,1,1,2,1,2,3,0,0,0
40952891,0,0.0,0.0,0.38982502,0.92105556,-0.048158478,0.1208579,0.67637897,-0.25504225,0.16481866,0.22502548,0.12780246,0.13401307,-0.0022686475,0.002186978,0.000578492,-7.4375844,-1.7119062,0.42366204,3.0959442,0.0,0.112777635,-0.12780246,0.0051497086,0.0035408088,0.02575914,0.017116053,inf,inf,inf,inf,1,1,1,1,2,1,2,3,0,0,0
41048870,0,0.0,0.0,0.4049417,0.9436227,-0.037743654,0.1208579,0.67637897,-0.25504225,0.16150266,0.22912954,0.100606754,0.10424273,-0.0022686475,0.002186978,0.000578492,-0.03610485,-1.0849727,1.5213627,3.1068993,0.0,0.10236281,-0.100606754,0.0051686903,0.0035512203,0.025950752,0.017238192,inf,inf,inf,inf,1,1,1,1,2,1,2,3,0,0,0
41152870,0,0.0,0.0,0.4195757,0.96464777,-0.034104556,0.1208579,0.67637897,-0.25504225,0.13070789,0.1931864,0.037669316,0.03687599,-0.0022686475,0.002186978,0.000578492,-6.8006625,-4.9072223,1.0079249,3.121111,0.0,0.1,-0.037669316,0.005302523,0.003637425,0.026350593,0.01743603,inf,inf,inf,inf,1,1,1,1,2,1,2,3,0,0,0
41256108,0,0.0,0.0,0.43161997,0.9824781,-0.039234072,0.1208579,0.67637897,-0.25504225,0.13110754,0.20860346,-0.02178704,-0.028459493,-0.0022686475,0.002186978,0.000578492,-2.8793793,3.8076718,1.8956743,3.1345062,0.0,0.10385323,0.02178704,0.0053815655,0.0036879184,0.02655095,0.017499715,inf,inf,inf,inf,1,1,1,1,2,1,2,3,0,0,0
41360114,0,0.0,0.0,0.44150013,0.99653274,-0.052969728,0.1208579,0.67637897,-0.25504225,0.11348481,0.17284495,-0.06312403,-0.07634238,-0.0022686475,0.002186978,0.000578492,-1.1831452,-0.14936218,2.3750522,-3.1370103,0.0,0.11758889,0.06312403,0.005099017,0.0035023,0.025853451,0.017072208,inf,inf,inf,inf,1,1,1,1,2,1,2,3,0,0,0
41464078,0,0.0,0.0,0.44899973,1.0073377,-0.07130605,0.1208579,0.67637897,-0.25504225,0.1031095,0.15993056,-0.06969827,-0.08912876,-0.0022686475,0.002186978,0.000578492,-0.93203413,4.787069,2.1337173,-3.1270962,0.0,0.1359252,0.06969827,0.0052880947,0.0036169162,0.026569609,0.017435022,inf,inf,inf,inf,1,1,1,1,2,1,2,3,0,0,0
41560079,0,0.0,0.0,0.45503664,1.013937,-0.08515422,0.1208579,0.67637897,-0.25504225,0.08962949,0.1328943,-0.02471055,-0.048091605,-0.0022686475,0.002186978,0.000578492,-2.17794,-1.2818645,0.1360051,-3.1226413,0.0,0.14977339,0.02471055,0.0052914093,0.0036168096,0.026548298,0.017392617,inf,inf,inf,inf,1,1,1,1,2,1,2,3,0,0,0
41664074,0,0.0,0.0,0.46097088,1.0188897,-0.09165314,0.1208579,0.67637897,-0.25504225,0.07983401,0.11551677,0.028104305,0.0041343193,-0.0022686475,0.002186978,0.000578492,-6.548171,-0.4153676,1.8514029,-3.1225452,0.0,0.15627229,-0.028104305,0.0053897616,0.0036829018,0.026551599,0.017485674,inf,inf,inf,inf,1,1,1,1,2,1,2,3,0,0,0
41768120,0,0.0,0.0,0.46918577,1.0233636,-0.0891868,0.1208579,0.67637897,-0.25504225,0.09849676,0.0958122,0.068116456,0.048028994,-0.0022686475,0.002186978,0.000578492,1.1906627,5.930554,-0.05832346,-3.12427,0.0,0.15380597,-0.068116456,0.005436659,0.0037189506,0.026578708,0.017518159,inf,inf,inf,inf,1,1,1,1,2,1,2,3,0,0,0
41864125,0,0.0,0.0,0.4781767,1.0220774,-0.080623075,0.1208579,0.67637897,-0.25504225,0.07399557,-0.0048515913,0.08159262,0.06777722,-0.0022686475,0.002186978,0.000578492,-2.197665,-6.160693,2.3850713,-3.1282458,0.0,0.14524224,-0.08159262,0.0053684306,0.0036766683,0.026510412,0.01749144,inf,inf,inf,inf,1,1,1,1,2,1,2,3,0,0,0
41968070,0,0.0,0.0,0.48792022,1.0134205,-0.067878455,0.1208579,0.67637897,-0.25504225,0.08160126,-0.056624576,0.072479405,0.065625034,-0.0022686475,0.002186978,0.000578492,-0.14468494,5.322173,1.6520618,-3.1330385,0.0,0.13249761,-0.072479405,0.005425945,0.0037113533,0.02664553,0.017497504,inf,inf,inf,inf,1,1,1,1,2,1,2,3,0,0,0
42072083,0,0.0,0.0,0.4979917,0.9922943,-0.060434245,0.1208579,0.67637897,-0.25504225,0.07176696,-0.21251148,-0.017952694,-0.019925328,-0.0022686475,0.002186978,0.000578492,-3.9610393,-4.4364057,1.1736488,-3.1344981,0.0,0.1250534,0.017952694,0.0051157703,0.0035081625,0.025799742,0.017014684,inf,inf,inf,inf,1,1,1,1,2,1,2,3,0,0,0
42175272,0,0.0,0.0,0.50469863,0.95704556,-0.0629379,0.1208579,0.67637897,-0.25504225,0.061954062,-0.37572512,-0.06859465,-0.06985606,-0.0022686475,0.002186978,0.000578492,-0.6156783,5.3554273,-2.611859,-3.1393824,0.0,0.12755707,0.06859465,0.005177305,0.0035470864,0.026025677,0.017128551,inf,inf,inf,inf,1,1,1,1,2,1,2,3,0,0,0
42279292,0,0.0,0.0,0.51243705,0.9053169,-0.07059137,0.1208579,0.67637897,-0.25504225,0.08602023,-0.5154559,-0.033539057,-0.03894225,-0.0022686475,0.002186978,0.000578492,-0.398178,0.6981253,5.1016083,-3.1309373,0.0,0.13521053,0.033539057,0.0052741715,0.0036060945,0.026528003,0.01730028,inf,inf,inf,inf,1,1,1,1,2,1,2,3,0,0,0
42375280,0,0.0,0.0,0.52109486,0.84922975,-0.07847715,0.1208579,0.67637897,-0.25504225,0.10674719,-0.5905849,-0.0074392008,-0.018591575,-0.0022686475,0.002186978,0.000578492,4.2456455,7.7753816,-2.635206,-3.1133783,0.0,0.14309631,0.0074392008,0.0050081336,0.003427989,0.025921151,0.01703377,inf,inf,inf,inf,1,1,1,1,2,1,2,3,0,0,0
42479269,0,0.0,0.0,0.53237635,0.78373057,-0.08359508,0.1208579,0.67637897,-0.25504225,0.13237627,-0.63680017,0.0147882085,-0.0007029701,-0.0022686475,0.002186978,0.000578492,1.5899695,-3.2384298,-2.8533351,-3.0850828,0.0,0.14821425,-0.0147882085,0.0051906495,0.003548718,0.026171256,0.017640736,inf,inf,inf,inf,1,1,1,1,2,1,2,3,0,0,0
42583274,0,0.0,0.0,0.5469691,0.71229106,-0.084095836,0.1208579,0.67637897,-0.25504225,0.1375212,-0.6606815,0.014585539,-0.00048463716,-0.0022686475,0.002186978,0.000578492,-0.5557622,-4.064575,-2.7264218,-3.057452,0.0,0.14871499,-0.014585539,0.005119234,0.0035266082,0.025962748,0.017875846,inf,inf,inf,inf,1,1,1,1,2,1,2,3,0,0,0
42679269,0,0.0,0.0,0.56402045,0.6413213,-0.08289204,0.1208579,0.67637897,-0.25504225,0.13453004,-0.62423533,0.0101189455,-0.00071495015,-0.0022686475,0.002186978,0.000578492,-0.28887108,-3.7160027,-3.1934268,-3.0403152,0.0,0.1475112,-0.0101189455,0.005205724,0.0036096796,0.026163397,0.01790663,inf,inf,inf,inf,1,1,1,1,2,1,2,3,0,0,0
42783308,0,0.0,0.0,0.5854355,0.56545055,-0.07640169,0.1208579,0.67637897,-0.25504225,0.14392336,-0.5303029,0.049290843,0.04389984,-0.0022686475,0.002186978,0.000578492,-1.8932042,-2.5414004,1.6649922,-3.0222378,0.0,0.14102085,-0.049290843,0.0050079813,0.0034731973,0.025660811,0.017122265,inf,inf,inf,inf,1,1,1,1,2,1,2,3,0,0,0
42887270,0,0.0,0.0,0.6079565,0.49812675,-0.066111445,0.1208579,0.67637897,-0.25504225,0.1293477,-0.42825007,0.077439114,0.07622026,-0.0022686475,0.002186978,0.000578492,-3.1369617,0.607878,3.1851313,-3.0045295,0.0,0.1307306,-0.077439114,0.0049052355,0.0033857496,0.02566289,0.01684494,inf,inf,inf,inf,1,1,1,1,2,1,2,3,0,0,0
42991276,0,0.0,0.0,0.62865275,0.45329335,-0.057833195,0.1208579,0.67637897,-0.25504225,0.114816606,-0.23871826,0.027938072,0.029261552,-0.0022686475,0.002186978,0.000578492,-0.48849002,2.9684803,2.1250782,-2.9902678,0.0,0.122452356,-0.027938072,0.0051350296,0.0035149432,0.02650009,0.01718748,inf,inf,inf,inf,1,1,1,1,2,1,2,3,0,0,0
43086522,0,0.0,0.0,0.6432345,0.44195336,-0.05545595,0.1208579,0.67637897,-0.25504225,0.08884922,-0.061134037,-0.004692057,-0.0028004423,-0.0022686475,0.002186978,0.000578492,-0.8167972,-1.9474405,-0.33724698,-2.9764805,0.0,0.12007511,0.004692057,0.005244247,0.0035671543,0.027003836,0.017305167,inf,inf,inf,inf,1,1,1,1,2,1,2,3,0,0,0
43190469,0,0.0,0.0,0.6559898,0.46202978,-0.05583176,0.1208579,0.67637897,-0.25504225,0.093664706,0.08666338,0.00065921294,0.0008992202,-0.0022686475,0.002186978,0.000578492,-0.48294744,0.25112996,-0.53329885,-2.9672112,0.0,0.12045092,-0.00065921294,0.005401735,0.00365337,0.027608607,0.01748608,inf,inf,inf,inf,1,1,1,1,2,1,2,3,0,0,0
43294479,0,0.0,0.0,0.6657639,0.51132524,-0.057133704,0.1208579,0.67637897,-0.25504225,0.10041843,0.2493103,0.0006667094,-0.0018548918,-0.0022686475,0.002186978,0.000578492,-0.9253544,-2.2178552,-0.8204656,-2.9736748,0.0,0.121752866,-0.0006667094,0.0054654963,0.003682268,0.027754439,0.017477237,inf,inf,inf,inf,1,1,1,1,2,1,2,3,0,0,0
43390482,0,0.0,0.0,0.6719691,0.57627237,-0.058990236,0.1208579,0.67637897,-0.25504225,0.090519086,0.35430294,-0.010344082,-0.015365632,-0.0022686475,0.002186978,0.000578492,-0.32405236,-2.099448,-1.9152714,-2.9894834,0.0,0.123609394,0.010344082,0.005153744,0.0034735133,0.0270934,0.017023725,inf,inf,inf,inf,1,1,1,1,2,1,2,3,0,0,0
43494470,0,0.0,0.0,0.6755418,0.65409875,-0.061667074,0.1208579,0.67637897,-0.25504225,0.08154251,0.39594463,0.0032326288,-0.0035482764,-0.0022686475,0.002186978,0.000578492,2.170669,-0.94550157,1.7246135,-3.0177867,0.0,0.12628624,-0.0032326288,0.0052849944,0.0035471052,0.027253177,0.01716562,inf,inf,inf,inf,1,1,1,1,2,1,2,3,0,0,0
43598489,0,0.0,0.0,0.6772627,0.72548974,-0.064666234,0.1208579,0.67637897,-0.25504225,0.054989174,0.374921,0.0024168186,-0.005345142,-0.0022686475,0.002186978,0.000578492,-1.3536761,6.361296,4.222748,-3.0475328,0.0,0.1292854,-0.0024168186,0.0053852,0.0036106468,0.027306113,0.017366875,inf,inf,inf,inf,1,1,1,1,2,1,2,3,0,0,0
43694470,0,0.0,0.0,0.67718023,0.78219414,-0.067117214,0.1208579,0.67637897,-0.25504225,0.03335712,0.3956623,0.0058149663,-0.0024570248,-0.0022686475,0.002186978,0.000578492,0.25459635,2.6711698,3.4073524,-3.0686727,0.0,0.13173637,-0.0058149663,0.0053071785,0.003575689,0.026783112,0.0173253,inf,inf,inf,inf,1,1,1,1,2,1,2,3,0,0,0
43798470,0,0.0,0.0,0.67618954,0.82948756,-0.067907766,0.1208579,0.67637897,-0.25504225,0.040761173,0.261373,0.020749444,0.012246619,-0.0022686475,0.002186978,0.000578492,0.73295057,-5.476484,-1.7969496,-3.0936294,0.0,0.13252693,-0.020749444,0.005358278,0.003627031,0.026605392,0.017392142,inf,inf,inf,inf,1,1,1,1,2,1,2,3,0,0,0
43902512,0,0.0,0.0,0.6763509,0.85482377,-0.066553496,0.1208579,0.67637897,-0.25504225,0.03342988,0.1843173,0.044460867,0.036238894,-0.0022686475,0.002186978,0.000578492,-1.7696471,-0.96887404,4.5495214,-3.1184845,0.0,0.13117266,-0.044460867,0.00539509,0.0036694072,0.026495779,0.017515173,inf,inf,inf,inf,1,1,1,1,2,1,2,3,0,0,0
44005674,0,0.0,0.0,0.68000096,0.85749954,-0.06303554,0.1208579,0.67637897,-0.25504225,0.05983996,0.08968352,0.023455264,0.016550604,-0.0022686475,0.002186978,0.000578492,-2.270265,-1.450699,-0.37936947,-3.1379733,0.0,0.1276547,-0.023455264,0.005426545,0.0037059858,0.026425868,0.01749304,inf,inf,inf,inf,1,1,1,1,2,1,2,3,0,0,0
44109687,0,0.0,0.0,0.689597,0.8398445,-0.059479427,0.1208579,0.67637897,-0.25504225,0.0852953,0.031927813,0.01405843,0.0087835565,-0.0022686475,0.002186978,0.000578492,3.2611346,2.803214,-3.877647,3.1280837,0.0,0.124098584,-0.01405843,0.0054734093,0.0037452693,0.026558274,0.017585127,inf,inf,inf,inf,1,1,1,1,2,1,2,3,0,0,0
44205693,0,0.0,0.0,0.7049266,0.8120157,-0.058853075,0.1208579,0.67637897,-0.25504225,0.101619005,-0.040779993,-0.018753096,-0.023230128,-0.0022686475,0.002186978,0.000578492,-2.0338602,-2.347234,-0.97955847,3.1174438,0.0,0.123472236,0.018753096,0.005374954,0.0036849116,0.02640383,0.017455207,inf,inf,inf,inf,1,1,1,1,2,1,2,3,0,0,0
44309684,0,0.0,0.0,0.72854096,0.775059,-0.06013927,0.1208579,0.67637897,-0.25504225,0.12813747,-0.072559774,-0.0074021774,-0.012415461,-0.0022686475,0.002186978,0.000578492,1.4478843,7.1942983,1.6244892,3.1134079,0.0,0.12475843,0.0074021774,0.005087283,0.0034979507,0.025778951,0.017031677,inf,inf,inf,inf,1,1,1,1,2,1,2,3,0,0,0
44413680,0,0.0,0.0,0.75804275,0.7381964,-0.06514378,0.1208579,0.67637897,-0.25504225,0.14336038,-0.09884519,-0.06722966,-0.073902436,-0.0022686475,0.002186978,0.000578492,-1.7055788,1.0055476,-0.8740568,3.109311,0.0,0.12976295,0.06722966,0.0051495493,0.0035340479,0.026025126,0.017100353,inf,inf,inf,inf,1,1,1,1,2,1,2,3,0,0,0
44509677,0,0.0,0.0,0.7872687,0.71027905,-0.07548836,0.1208579,0.67637897,-0.25504225,0.13737288,-0.06644555,-0.09547178,-0.10413794,-0.0022686475,0.002186978,0.000578492,-4.639075,4.9148555,4.293629,3.1014767,0.0,0.14010751,0.09547178,0.005469543,0.0037326727,0.026957422,0.017600773,inf,inf,inf,inf,1,1,1,1,2,1,2,3,0,0,0
44613669,0,0.0,0.0,0.81942743,0.68953097,-0.09217665,0.1208579,0.67637897,-0.25504225,0.1597165,-0.04474262,-0.13512596,-0.14665595,-0.0022686475,0.002186978,0.000578492,-8.116438,-0.24357596,1.321865,3.1006703,0.0,0.15679581,0.13512596,0.0051749535,0.0035384162,0.026288358,0.017154556,inf,inf,inf,inf,1,1,1,1,2,1,2,3,0,0,0
44717670,0,0.0,0.0,0.8498488,0.6823022,-0.11272867,0.1208579,0.67637897,-0.25504225,0.18112695,0.02592589,-0.15968415,-0.17443624,-0.0022686475,0.002186978,0.000578492,0.40817383,-0.0705283,-1.4874321,3.101005,0.0,0.17734784,0.15968415,0.0052770767,0.0035975354,0.026649086,0.01729405,inf,inf,inf,inf,1,1,1,1,2,1,2,3,0,0,0
44821670,0,0.0,0.0,0.8765518,0.68854856,-0.1344564,0.1208579,0.67637897,-0.25504225,0.1420361,0.07825475,-0.13346106,-0.15075937,-0.0022686475,0.002186978,0.000578492,1.586505,3.959481,1.6255306,3.0989957,0.0,0.19907555,0.13346106,0.0053326134,0.0036312556,0.026639393,0.017315168,inf,inf,inf,inf,1,1,1,1,2,1,2,3,0,0,0
44924116,0,0.0,0.0,0.8980439,0.70492953,-0.15213718,0.1208579,0.67637897,-0.25504225,0.1157512,0.13332766,-0.100531995,-0.11864872,-0.0022686475,0.002186978,0.000578492,-0.7130345,-2.2909076,1.0277433,3.0962603,0.0,0.21675634,0.100531995,0.0051222555,0.0034935223,0.026178405,0.01709988,inf,inf,inf,inf,1,1,1,1,2,1,2,3,0,0,0
45020876,0,0.0,0.0,0.9128911,0.7277672,-0.16265246,0.1208579,0.67637897,-0.25504225,0.09497327,0.16282204,-0.06486271,-0.081683286,-0.0022686475,0.002186978,0.000578492,1.565231,-4.6550345,-0.5892947,3.0935476,0.0,0.22727162,0.06486271,0.0051887417,0.0035345498,0.026325785,0.01721883,inf,inf,inf,inf,1,1,1,1,2,1,2,3,0,0,0
45124870,0,0.0,0.0,0.9234749,0.75890076,-0.16711546,0.1208579,0.67637897,-0.25504225,0.050747793,0.19967072,-0.027228285,-0.040435847,-0.0022686475,0.002186978,0.000578492,0.2705859,-6.500805,-1.7337538,3.0870914,0.0,0.23173463,0.027228285,0.005337371,0.0036339236,0.02657883,0.017395632,inf,inf,inf,inf,1,1,1,1,2,1,2,3,0,0,0
45228870,0,0.0,0.0,0.92876613,0.79372275,-0.16559239,0.1208579,0.67637897,-0.25504225,0.02242928,0.24119425,0.000944835,-0.0071593532,-0.0022686475,0.002186978,0.000578492,0.5519604,-2.7327507,0.40344232,3.0801454,0.0,0.23021156,-0.000944835,0.0054611065,0.0037171724,0.026815576,0.017548818,inf,inf,inf,inf,1,1,1,1,2,1,2,3,0,0,0
45324876,0,0.0,0.0,0.92936265,0.8261745,-0.16124001,0.1208579,0.67637897,-0.25504225,-0.020909106,0.2367883,0.01032279,0.006884967,-0.0022686475,0.002186978,0.000578492,-1.0148455,0.32975963,-1.1836982,3.0762553,0.0,0.22585917,-0.01032279,0.0053726803,0.003664517,0.026511848,0.017373767,inf,inf,inf,inf,1,1,1,1,2,1,2,3,0,0,0
45428883,0,0.0,0.0,0.9258087,0.86045235,-0.15529868,0.1208579,0.67637897,-0.25504225,-0.0532372,0.2670658,0.023466581,0.023723897,-0.0022686475,0.002186978,0.000578492,-6.3328137,-0.7303258,2.158602,3.0759914,0.0,0.21991783,-0.023466581,0.005202485,0.0035530913,0.026262522,0.017236188,inf,inf,inf,inf,1,1,1,1,2,1,2,3,0,0,0
45532882,0,0.0,0.0,0.91892725,0.8903099,-0.14926079,0.1208579,0.67637897,-0.25504225,-0.07761328,0.2417262,0.034401357,0.036289684,-0.0022686475,0.002186978,0.000578492,-6.709451,3.9154696,1.9009478,3.0793996,0.0,0.21387994,-0.034401357,0.0050942386,0.0034823532,0.02603226,0.017095778,inf,inf,inf,inf,1,1,1,1,2,1,2,3,0,0,0
45636875,0,0.0,0.0,0.90946335,0.9145954,-0.1441284,0.1208579,0.67637897,-0.25504225,-0.08847536,0.22370332,0.03231134,0.03405812,-0.0022686475,0.002186978,0.000578492,-5.3233385,6.154284,0.7617639,3.0846512,0.0,0.20874757,-0.03231134,0.0052239397,0.0035674078,0.026235498,0.017203517,inf,inf,inf,inf,1,1,1,1,2,1,2,3,0,0,0
45740902,0,0.0,0.0,0.89872456,0.932161,-0.14057933,0.1208579,0.67637897,-0.25504225,-0.09265011,0.16538087,0.017450817,0.017830294,-0.0022686475,0.002186978,0.000578492,-5.064087,4.7355647,-1.3790948,3.0925992,0.0,0.2051985,-0.017450817,0.005320491,0.003630967,0.026410459,0.01730827,inf,inf,inf,inf,1,1,1,1,2,1,2,3,0,0,0
45836870,0,0.0,0.0,0.88877565,0.9422972,-0.13945375,0.1208579,0.67637897,-0.25504225,-0.106016785,0.1275216,0.021035135,0.01952871,-0.0022686475,0.002186978,0.000578492,1.9803276,-3.996056,-0.70803434,3.1019893,0.0,0.20407292,-0.021035135,0.005221428,0.003570255,0.026058972,0.017156586,inf,inf,inf,inf,1,1,1,1,2,1,2,3,0,0,0
45940110,0,0.0,0.0,0.87964,0.9473239,-0.14117534,0.1208579,0.67637897,-0.25504225,-0.10291812,0.087609075,0.006699075,0.0027015666,-0.0022686475,0.002186978,0.000578492,2.9163165,-0.34116587,0.8468804,3.1124108,0.0,0.20579451,-0.006699075,0.0050292728,0.003445844,0.025696915,0.016952178,inf,inf,inf,inf,1,1,1,1,2,1,2,3,0,0,0
46044070,0,0.0,0.0,0.87254333,0.94623387,-0.14495566,0.1208579,0.67637897,-0.25504225,-0.095132545,0.052626513,-0.0054087644,-0.011949969,-0.0022686475,0.002186978,0.000578492,-1.9284102,2.5096376,3.631716,3.1217964,0.0,0.20957482,0.0054087644,0.0051219664,0.0035074651,0.02585163,0.017059127,inf,inf,inf,inf,1,1,1,1,2,1,2,3,0,0,0
46148135,0,0.0,0.0,0.86791605,0.9417187,-0.14916357,0.1208579,0.67637897,-0.25504225,-0.079951316,0.035241187,-0.00045598217,-0.009324156,-0.0022686475,0.002186978,0.000578492,-1.859415,-1.47286,-1.1577247,3.1294222,0.0,0.21378273,0.00045598217,0.0052210693,0.003572887,0.02608591,0.017209813,inf,inf,inf,inf,1,1,1,1,2,1,2,3,0,0,0
46244070,0,0.0,0.0,0.8645301,0.9335013,-0.15169108,0.1208579,0.67637897,-0.25504225,-0.07998799,-0.01600976,0.017619168,0.0072681075,-0.0022686475,0.002186978,0.000578492,0.9846975,-6.7519975,-0.739689,3.1324773,0.0,0.21631023,-0.017619168,0.005141572,0.0035251337,0.025766863,0.017058428,inf,inf,inf,inf,1,1,1,1,2,1,2,3,0,0,0
46348070,0,0.0,0.0,0.8616772,0.9217047,-0.15215005,0.1208579,0.67637897,-0.25504225,-0.07910867,-0.024333742,0.0400552,0.029226761,-0.0022686475,0.002186978,0.000578492,-0.5615951,3.872832,1.0353699,3.1298552,0.0,0.21676922,-0.0400552,0.005211953,0.0035739166,0.025897317,0.017171495,inf,inf,inf,inf,1,1,1,1,2,1,2,3,0,0,0
46452079,0,0.0,0.0,0.8591944,0.909485,-0.15099806,0.1208579,0.67637897,-0.25504225,-0.0903157,-0.052687194,0.039589882,0.029349612,-0.0022686475,0.002186978,0.000578492,-7.3068194,1.9007592,4.4414635,3.1228814,0.0,0.21561721,-0.039589882,0.005017707,0.003448813,0.025507968,0.016961725,inf,inf,inf,inf,1,1,1,1,2,1,2,3,0,0,0
46556070,0,0.0,0.0,0.8566462,0.8974106,-0.14934286,0.1208579,0.67637897,-0.25504225,-0.07893196,-0.06477254,0.029370736,0.02009001,-0.0022686475,0.002186978,0.000578492,-7.7963347,2.1953356,3.2753608,3.1137033,0.0,0.21396202,-0.029370736,0.004939615,0.0033967167,0.025467055,0.016929274,inf,inf,inf,inf,1,1,1,1,2,1,2,3,0,0,0
46652121,0,0.0,0.0,0.8542587,0.8877652,-0.14816205,0.1208579,0.67637897,-0.25504225,-0.062284067,-0.08278588,0.020595334,0.011889701,-0.0022686475,0.002186978,0.000578492,4.3201632,-5.577077,0.37268898,3.1034985,0.0,0.21278122,-0.020595334,0.0050087394,0.0034426309,0.025562003,0.016997827,inf,inf,inf,inf,1,1,1,1,2,1,2,3,0,0,0
46755288,0,0.0,0.0,0.8518058,0.87977636,-0.1480678,0.1208579,0.67637897,-0.25504225,-0.07985118,-0.050685756,0.024280362,0.015522921,-0.0022686475,0.002186978,0.000578492,-3.8370101,3.3656392,4.0017896,3.093164,0.0,0.21268696,-0.024280362,0.005142843,0.003531194,0.025789464,0.017110027,inf,inf,inf,inf,1,1,1,1,2,1,2,3,0,0,0
46859270,0,0.0,0.0,0.84881145,0.8740628,-0.14855368,0.1208579,0.67637897,-0.25504225,-0.06378815,-0.054992024,0.010787209,0.0013181416,-0.0022686475,0.002186978,0.000578492,1.0196823,2.4342232,-1.2874899,3.0883188,0.0,0.21317285,-0.010787209,0.005251724,0.0036022465,0.026044851,0.0172329,inf,inf,inf,inf,1,1,1,1,2,1,2,3,0,0,0
46963291,0,0.0,0.0,0.8449234,0.87125725,-0.15056463,0.1208579,0.67637897,-0.25504225,-0.0640796,-0.032280095,-0.0007550292,-0.0111751035,-0.0022686475,0.002186978,0.000578492,1.80835,-1.7679921,1.683875,3.0860708,0.0,0.2151838,0.0007550292,0.005061179,0.0034772612,0.025624665,0.016972978,inf,inf,inf,inf,1,1,1,1,2,1,2,3,0,0,0
47067270,0,0.0,0.0,0.839713,0.8709309,-0.15409584,0.1208579,0.67637897,-0.25504225,-0.060579147,-0.04648632,-0.01909569,-0.030465579,-0.0022686475,0.002186978,0.000578492,-0.005532112,0.028667906,-1.963487,3.084243,0.0,0.21871501,0.01909569,0.0048822383,0.003359697,0.025190765,0.016719023,inf,inf,inf,inf,1,1,1,1,2,1,2,3,0,0,0
47163310,0,0.0,0.0,0.83350086,0.87101334,-0.15765098,0.1208579,0.67637897,-0.25504225,-0.07421502,-0.045301344,-0.008029092,-0.020241218,-0.0022686475,0.002186978,0.000578492,-0.8961065,0.084336,-0.62779105,3.0858316,0.0,0.22227013,0.008029092,0.005279208,0.0036133833,0.026323853,0.01736137,inf,inf,inf,inf,1,1,1,1,2,1,2,3,0,0,0
47267275,0,0.0,0.0,0.8254261,0.87049776,-0.16034381,0.1208579,0.67637897,-0.25504225,-0.08381533,-0.05247378,0.01474266,0.0020555633,-0.0022686475,0.002186978,0.000578492,1.6830027,0.35918108,1.687284,3.0920777,0.0,0.22496298,-0.01474266,0.0053806817,0.0036792548,0.026492944,0.01744322,inf,inf,inf,inf,1,1,1,1,2,1,2,3,0,0,0
47371276,0,0.0,0.0,0.8159693,0.8679974,-0.16180205,0.1208579,0.67637897,-0.25504225,-0.08900003,-0.071046434,0.0010407999,-0.011430988,-0.0022686475,0.002186978,0.000578492,0.7175676,0.73062384,-2.2078726,3.09697,0.0,0.2264212,-0.0010407999,0.005150512,0.0035304932,0.025907634,0.017118078,inf,inf,inf,inf,1,1,1,1,2,1,2,3,0,0,0
47467270,0,0.0,0.0,0.80643165,0.86424375,-0.16184911,0.1208579,0.67637897,-0.25504225,-0.11917409,-0.077160634,0.025626734,0.013876286,-0.0022686475,0.002186978,0.000578492,-3.8813903,0.56763643,1.3614459,3.1021605,0.0,0.22646827,-0.025626734,0.0052179745,0.0035718663,0.026185976,0.01729691,inf,inf,inf,inf,1,1,1,1,2,1,2,3,0,0,0
47574478,0,0.0,0.0,0.7938061,0.8551192,-0.15948619,0.1208579,0.67637897,-0.25504225,-0.1320894,-0.10382591,0.047171373,0.036480542,-0.0022686475,0.002186978,0.000578492,-3.8720496,4.22091,3.6707723,3.1129627,0.0,0.22410536,-0.047171373,0.0050615994,0.0034726714,0.025698153,0.017022125,inf,inf,inf,inf,1,1,1,1,2,1,2,3,0,0,0
47670483,0,0.0,0.0,0.7815187,0.84479725,-0.15555929,0.1208579,0.67637897,-0.25504225,-0.12379654,-0.13048583,0.053034756,0.043537837,-0.0022686475,0.002186978,0.000578492,1.7651719,-3.188137,2.629025,3.1217957,0.0,0.22017846,-0.053034756,0.0054377913,0.0037164656,0.026595736,0.017569128,inf,inf,inf,inf,1,1,1,1,2,1,2,3,0,0,0
47774476,0,0.0,0.0,0.7666546,0.82920265,-0.1517104,0.1208579,0.67637897,-0.25504225,-0.14780025,-0.14146729,0.051037747,0.042795267,-0.0022686475,0.002186978,0.000578492,2.0862565,-0.8967395,1.4465257,3.1377518,0.0,0.21632957,-0.051037747,0.005198852,0.0035671475,0.026018923,0.017288987,inf,inf,inf,inf,1,1,1,1,2,1,2,3,0,0,0
47878469,0,0.0,0.0,0.74984884,0.81191564,-0.1477984,0.1208579,0.67637897,-0.25504225,-0.15655452,-0.15528354,0.03687797,0.02923974,-0.0022686475,0.002186978,0.000578492,0.41292724,-1.2435728,-0.22262496,-3.1319892,0.0,0.21241757,-0.03687797,0.005066603,0.0034808195,0.025791084,0.017131167,inf,inf,inf,inf,1,1,1,1,2,1,2,3,0,0,0
47974493,0,0.0,0.0,0.7334081,0.7952486,-0.14528097,0.1208579,0.67637897,-0.25504225,-0.15020278,-0.1475391,0.029067934,0.0213763,-0.0022686475,0.002186978,0.000578492,-1.333298,-0.81863296,-0.72277457,-3.1201987,0.0,0.20990014,-0.029067934,0.005161309,0.0035416526,0.02602516,0.017264996,inf,inf,inf,inf,1,1,1,1,2,1,2,3,0,0,0
48078488,0,0.0,0.0,0.7149688,0.7794699,-0.14512706,0.1208579,0.67637897,-0.25504225,-0.16027245,-0.12267501,-7.212974e-05,-0.008375999,-0.0022686475,0.002186978,0.000578492,-3.9749784,3.3888607,1.935949,-3.1090138,0.0,0.20974621,7.212974e-05,0.005359502,0.003670496,0.026452556,0.01749626,inf,inf,inf,inf,1,1,1,1,2,1,2,3,0,0,0
48182503,0,0.0,0.0,0.6980683,0.76563895,-0.15073717,0.1208579,0.67637897,-0.25504225,-0.15691169,-0.11168377,-0.06008963,-0.069688305,-0.0022686475,0.002186978,0.000578492,-4.7534394,-0.22682187,-0.8568132,-3.1028275,0.0,0.21535632,0.06008963,0.0051230625,0.0035189367,0.025751168,0.017055215,inf,inf,inf,inf,1,1,1,1,2,1,2,3,0,0,0
48286470,0,0.0,0.0,0.6833494,0.75730276,-0.16468777,0.1208579,0.67637897,-0.25504225,-0.1251127,-0.044970244,-0.12576087,-0.13779844,-0.0022686475,0.002186978,0.000578492,0.1390733,5.3301086,-0.45792434,-3.1035917,0.0,0.22930694,0.12576087,0.0052884324,0.0036217696,0.026374402,0.017346367,inf,inf,inf,inf,1,1,1,1,2,1,2,3,0,0,0
48388889,0,0.0,0.0,0.67076284,0.75452536,-0.18496118,0.1208579,0.67637897,-0.25504225,-0.1144735,-0.02301841,-0.15804961,-0.17379421,-0.0022686475,0.002186978,0.000578492,-5.9375415,1.9293772,1.3374077,-3.1047893,0.0,0.24958035,0.15804961,0.0051461835,0.0035232778,0.026207253,0.017176546,inf,inf,inf,inf,1,1,1,1,2,1,2,3,0,0,0
48485670,0,0.0,0.0,0.6614891,0.75684625,-0.20818612,0.1208579,0.67637897,-0.25504225,-0.06515679,0.0024652567,-0.1727526,-0.1921473,-0.0022686475,0.002186978,0.000578492,3.4496632,-0.7977202,1.8411462,-3.109849,0.0,0.27280527,0.1727526,0.00493388,0.003380762,0.025699055,0.016874023,inf,inf,inf,inf,1,1,1,1,2,1,2,3,0,0,0
48589670,0,0.0,0.0,0.6542305,0.7634984,-0.23554651,0.1208579,0.67637897,-0.25504225,-0.06718614,0.024944741,-0.19596846,-0.21831077,-0.0022686475,0.002186978,0.000578492,-2.9299104,-0.99932367,1.0647599,-3.1180441,0.0,0.30016568,0.19596846,0.0052106488,0.003553658,0.026394986,0.017280955,inf,inf,inf,inf,1,1,1,1,2,1,2,3,0,0,0
48693672,0,0.0,0.0,0.6498958,0.7724191,-0.26358435,0.1208579,0.67637897,-0.25504225,-0.059315167,0.027162269,-0.21248253,-0.23576091,-0.0022686475,0.002186978,0.000578492,-2.4424868,-2.6054163,1.1171243,-3.126608,0.0,0.3282035,0.21248253,0.005348515,0.0036461249,0.026479617,0.017370615,inf,inf,inf,inf,1,1,1,1,2,1,2,3,0,0,0
48797670,0,0.0,0.0,0.6479832,0.7824212,-0.29012272,0.1208579,0.67637897,-0.25504225,-0.04308953,0.02140352,-0.19744521,-0.21975295,-0.0022686475,0.002186978,0.000578492,-2.1294336,-6.8137784,2.6477354,-3.1341805,0.0,0.35474187,0.19744521,0.005145374,0.0035193013,0.025906514,0.017083287,inf,inf,inf,inf,1,1,1,1,2,1,2,3,0,0,0
48893670,0,0.0,0.0,0.6471957,0.79072404,-0.31066614,0.1208579,0.67637897,-0.25504225,-0.018657397,0.019213183,-0.18174225,-0.20174561,-0.0022686475,0.002186978,0.000578492,3.4870553,-0.04054901,-0.6422724,-3.1396916,0.0,0.3752853,0.18174225,0.005145602,0.003522842,0.025833825,0.017080333,inf,inf,inf,inf,1,1,1,1,2,1,2,3,0,0,0
48997670,0,0.0,0.0,0.64672923,0.7967688,-0.32821125,0.1208579,0.67637897,-0.25504225,-0.0091838725,0.017538099,-0.16220865,-0.17815425,-0.0022686475,0.002186978,0.000578492,3.4842591,3.5770245,-2.603616,3.1393137,0.0,0.3928304,0.16220865,0.0050292457,0.0034496335,0.025594398,0.0169764,inf,inf,inf,inf,1,1,1,1,2,1,2,3,0,0,0
49101670,0,0.0,0.0,0.64590216,0.7993323,-0.34145433,0.1208579,0.67637897,-0.25504225,-0.0050719352,-0.008831817,-0.14498499,-0.155892,-0.0022686475,0.002186978,0.000578492,5.694366,-2.5503716,-1.5826534,3.1381705,0.0,0.40607348,0.14498499,0.0049762987,0.003416771,0.025530087,0.016956251,inf,inf,inf,inf,1,1,1,1,2,1,2,3,0,0,0
49205672,0,0.0,0.0,0.6438167,0.79688966,-0.35012195,0.1208579,0.67637897,-0.25504225,-0.011515024,-0.035180815,-0.094948046,-0.10095345,-0.0022686475,0.002186978,0.000578492,5.186491,-2.9680696,0.99137914,-3.1414995,0.0,0.4147411,0.094948046,0.0049494617,0.0034002108,0.025488257,0.016941102,inf,inf,inf,inf,1,1,1,1,2,1,2,3,0,0,0
49304879,0,0.0,0.0,0.6402629,0.7918754,-0.35408735,0.1208579,0.67637897,-0.25504225,-0.034134302,-0.034986142,-0.06315549,-0.06527509,-0.0022686475,0.002186978,0.000578492,-7.7667947,-0.8538136,2.5083864,-3.1387148,0.0,0.4187065,0.06315549,0.005110676,0.0035054318,0.025884338,0.01717379,inf,inf,inf,inf,1,1,1,1,2,1,2,3,0,0,0
49408869,0,0.0,0.0,0.63513225,0.7836271,-0.3550781,0.1208579,0.67637897,-0.25504225,-0.037512165,-0.049534526,-0.045124754,-0.04380557,-0.0022686475,0.002186978,0.000578492,-5.804855,0.95281523,-1.4510114,-3.1380734,0.0,0.41969725,0.045124754,0.0050890176,0.0034923316,0.025795955,0.01712931,inf,inf,inf,inf,1,1,1,1,2,1,2,3,0,0,0
49512870,0,0.0,0.0,0.62944645,0.77352244,-0.3545504,0.1208579,0.67637897,-0.25504225,-0.022571757,-0.0593272,-0.035116468,-0.031351045,-0.0022686475,0.002186978,0.000578492,1.329776,-2.0807984,0.8229897,-3.138137,0.0,0.41916955,0.035116468,0.005135244,0.003523267,0.026051994,0.01731483,inf,inf,inf,inf,1,1,1,1,2,1,2,3,0,0,0
49608870,0,0.0,0.0,0.62457705,0.7635729,-0.35396096,0.1208579,0.67637897,-0.25504225,-0.02896996,-0.079650484,-0.016678233,-0.011896109,-0.0022686475,0.002186978,0.000578492,-3.4770317,-5.438548,2.1223059,-3.1399398,0.0,0.4185801,0.016678233,0.0051686126,0.003549107,0.025929555,0.01724135,inf,inf,inf,inf,1,1,1,1,2,1,2,3,0,0,0
49712878,0,0.0,0.0,0.6205704,0.7527489,-0.35460588,0.1208579,0.67637897,-0.25504225,-0.01214084,-0.059831478,-0.032792136,-0.02837778,-0.0022686475,0.002186978,0.000578492,2.7624147,-2.1855125,-2.7094798,3.1388845,0.0,0.41922504,0.032792136,0.0053026406,0.003638553,0.026139675,0.017346712,inf,inf,inf,inf,1,1,1,1,2,1,2,3,0,0,0
49816915,0,0.0,0.0,0.6180518,0.74313587,-0.3580297,0.1208579,0.67637897,-0.25504225,-5.4972887e-05,-0.07010422,-0.04519292,-0.04243522,-0.0022686475,0.002186978,0.000578492,3.995887,3.171788,-0.63577473,3.1348438,0.0,0.42264885,0.04519292,0.0053855604,0.003693287,0.026288543,0.017412223,inf,inf,inf,inf,1,1,1,1,2,1,2,3,0,0,0
49920882,0,0.0,0.0,0.61740524,0.7346984,-0.36534214,0.1208579,0.67637897,-0.25504225,0.017227992,-0.06872297,-0.0650966,-0.06512415,-0.0022686475,0.002186978,0.000578492,5.1202188,-1.4741825,-1.464009,3.1267977,0.0,0.4299613,0.0650966,0.0051038265,0.0035095862,0.02560611,0.016999146,inf,inf,inf,inf,1,1,1,1,2,1,2,3,0,0,0
50024904,0,0.0,0.0,0.6179012,0.7277735,-0.37634894,0.1208579,0.67637897,-0.25504225,0.025827756,-0.059852958,-0.08707797,-0.09055051,-0.0022686475,0.002186978,0.000578492,4.874001,-2.3448558,-2.0091414,3.1186535,0.0,0.4409681,0.08707797,0.005184832,0.0035598513,0.025893582,0.017148916,inf,inf,inf,inf,1,1,1,1,2,1,2,3,0,0,0
50127305,0,0.0,0.0,0.61899763,0.72260815,-0.38904494,0.1208579,0.67637897,-0.25504225,0.009114174,-0.04916895,-0.08492322,-0.0918984,-0.0022686475,0.002186978,0.000578492,-2.4752116,2.2560368,-0.8788274,3.1113663,0.0,0.4536641,0.08492322,0.0053189243,0.0036435907,0.026316416,0.01738262,inf,inf,inf,inf,1,1,1,1,2,1,2,3,0,0,0
50224870,0,0.0,0.0,0.62114036,0.7178557,-0.40197253,0.1208579,0.67637897,-0.25504225,0.043631162,-0.05963695,-0.09108208,-0.100754656,-0.0022686475,0.002186978,0.000578492,4.819675,-1.7781466,-2.8984118,3.1066046,0.0,0.4665917,0.09108208,0.0052813077,0.0036183912,0.026187068,0.01730323,inf,inf,inf,inf,1,1,1,1,2,1,2,3,0,0,0
50328081,0,0.0,0.0,0.62339056,0.71423453,-0.41492784,0.1208579,0.67637897,-0.25504225,0.018839559,-0.048034508,-0.07268563,-0.0842397,-0.0022686475,0.002186978,0.000578492,3.1223295,-2.8053339,-0.10441643,3.1037068,0.0,0.479547,0.07268563,0.0050758445,0.003483579,0.025717882,0.017020887,inf,inf,inf,inf,1,1,1,1,2,1,2,3,0,0,0
50432119,0,0.0,0.0,0.62459075,0.710734,-0.4257637,0.1208579,0.67637897,-0.25504225,0.0054825083,-0.041210096,-0.064326584,-0.0764547,-0.0022686475,0.002186978,0.000578492,-0.35512036,-1.2585994,0.5940673,3.10305,0.0,0.49038285,0.064326584,0.0052550444,0.0035989066,0.026205791,0.01732166,inf,inf,inf,inf,1,1,1,1,2,1,2,3,0,0,0
50528076,0,0.0,0.0,0.62488794,0.7078567,-0.43398726,0.1208579,0.67637897,-0.25504225,0.01902351,-0.04753823,-0.062285554,-0.073863596,-0.0022686475,0.002186978,0.000578492,3.1536584,0.24839045,-1.6695668,3.102376,0.0,0.4986064,0.062285554,0.0052054604,0.0035693008,0.02593869,0.017176189,inf,inf,inf,inf,1,1,1,1,2,1,2,3,0,0,0
50632070,0,0.0,0.0,0.6239061,0.7053344,-0.44171277,0.1208579,0.67637897,-0.25504225,0.0023561646,-0.0472641,-0.061596837,-0.07184539,-0.0022686475,0.002186978,0.000578492,2.9967785,-4.108948,-1.2330755,3.1008763,0.0,0.5063319,0.061596837,0.004978304,0.0034223825,0.025392788,0.016848346,inf,inf,inf,inf,1,1,1,1,2,1,2,3,0,0,0
50736071,0,0.0,0.0,0.6214672,0.7018046,-0.44894508,0.1208579,0.67637897,-0.25504225,-0.01416872,-0.043884415,-0.05715538,-0.06608397,-0.0022686475,0.002186978,0.000578492,2.0804598,-2.4078753,0.61507785,3.1010394,0.0,0.5135642,0.05715538,0.0051304684,0.0035198843,0.02582859,0.017097302,inf,inf,inf,inf,1,1,1,1,2,1,2,3,0,0,0
50840076,0,0.0,0.0,0.6181525,0.6983093,-0.45742637,0.1208579,0.67637897,-0.25504225,-0.0141854575,-0.031925265,-0.07719989,-0.08540766,-0.0022686475,0.002186978,0.000578492,-1.7426078,0.41542593,3.1491497,3.1007714,0.0,0.52204555,0.07719989,0.0049966597,0.0034313998,0.025559053,0.016934285,inf,inf,inf,inf,1,1,1,1,2,1,2,3,0,0,0
50936119,0,0.0,0.0,0.6145016,0.6939146,-0.46652633,0.1208579,0.67637897,-0.25504225,-0.019925328,-0.06642079,-0.07739158,-0.08563589,-0.0022686475,0.002186978,0.000578492,0.009553783,-5.196137,2.1093445,3.1009586,0.0,0.5311455,0.07739158,0.0053706532,0.003672117,0.026504965,0.017475119,inf,inf,inf,inf,1,1,1,1,2,1,2,3,0,0,0
51039270,0,0.0,0.0,0.6095829,0.68767405,-0.4784995,0.1208579,0.67637897,-0.25504225,-0.034415144,-0.046669696,-0.10636563,-0.115342185,-0.0022686475,0.002186978,0.000578492,-3.4212408,2.9922614,2.5792737,3.1038532,0.0,0.54311866,0.10636563,0.005084821,0.0034901728,0.025627943,0.016959583,inf,inf,inf,inf,1,1,1,1,2,1,2,3,0,0,0
51855289,0,0.0,0.0,0.58479446,0.6218035,-0.551818,0.1208579,0.67637897,-0.25504225,0.0008488096,-0.050160922,-0.015135421,-0.020298824,-0.0022686475,0.002186978,0.000578492,0.98908925,1.9944496,-0.71812797,-3.139167,0.0,0.6164372,0.015135421,0.0051102485,0.0035111909,0.02569107,0.017052568,inf,inf,inf,inf,1,1,1,1,2,1,2,3,0,0,0
51958470,0,0.0,0.0,0.58535486,0.6165002,-0.5522915,0.1208579,0.67637897,-0.25504225,0.014891118,-0.026459163,-0.020691946,-0.02455387,-0.0022686475,0.002186978,0.000578492,1.8959237,4.7378917,-1.2639128,-3.1353977,0.0,0.6169107,0.020691946,0.0052150628,0.0035798966,0.025924627,0.01719016,inf,inf,inf,inf,1,1,1,1,2,1,2,3,0,0,0
52062469,0,0.0,0.0,0.5870113,0.6132955,-0.55363977,0.1208579,0.67637897,-0.25504225,0.01870148,-0.012098754,-0.015821807,-0.019252721,-0.0022686475,0.002186978,0.000578492,-0.47143346,3.3209393,1.0260282,-3.1344056,0.0,0.61825895,0.015821807,0.004991597,0.0034342217,0.025405494,0.016878562,inf,inf,inf,inf,1,1,1,1,2,1,2,3,0,0,0
52166470,0,0.0,0.0,0.58921295,0.6117685,-0.55723387,0.1208579,0.67637897,-0.25504225,0.019221079,-0.008547048,-0.038895268,-0.0429224,-0.0022686475,0.002186978,0.000578492,-1.3287327,2.7578745,-0.6201361,-3.1361504,0.0,0.62185305,0.038895268,0.005196642,0.0035633345,0.026097339,0.017269434,inf,inf,inf,inf,1,1,1,1,2,1,2,3,0,0,0
52262470,0,0.0,0.0,0.5911741,0.61163694,-0.5623399,0.1208579,0.67637897,-0.25504225,0.01953427,-0.011766772,-0.038897444,-0.044214126,-0.0022686475,0.002186978,0.000578492,1.4547981,-3.215527,2.1896164,-3.1382844,0.0,0.6269591,0.038897444,0.0052346312,0.0035876206,0.026142813,0.01728058,inf,inf,inf,inf,1,1,1,1,2,1,2,3,0,0,0
52366484,0,0.0,0.0,0.59369856,0.61365116,-0.57001907,0.1208579,0.67637897,-0.25504225,0.012961099,0.0100487955,-0.044012655,-0.051363148,-0.0022686475,0.002186978,0.000578492,-3.0566185,-1.8108903,3.7208202,-3.140869,0.0,0.63463825,0.044012655,0.0051104533,0.0035058076,0.025836503,0.017102927,inf,inf,inf,inf,1,1,1,1,2,1,2,3,0,0,0
52470470,0,0.0,0.0,0.59630847,0.6172972,-0.5800404,0.1208579,0.67637897,-0.25504225,0.011898481,0.010625102,-0.06579528,-0.075209826,-0.0022686475,0.002186978,0.000578492,-2.8794742,-0.7256201,1.9996264,3.1387854,0.0,0.6446596,0.06579528,0.0052671735,0.0036071576,0.026186593,0.017295452,inf,inf,inf,inf,1,1,1,1,2,1,2,3,0,0,0
52566470,0,0.0,0.0,0.598547,0.6211797,-0.5903174,0.1208579,0.67637897,-0.25504225,0.049252734,0.030569859,-0.07520093,-0.086302415,-0.0022686475,0.002186978,0.000578492,4.8020353,0.5410074,-0.17388354,3.1358845,0.0,0.6549366,0.07520093,0.005266336,0.003606748,0.02615792,0.017284516,inf,inf,inf,inf,1,1,1,1,2,1,2,3,0,0,0
52670481,0,0.0,0.0,0.60106087,0.625542,-0.6011131,0.1208579,0.67637897,-0.25504225,0.032302447,0.048481964,-0.06114085,-0.0736315,-0.0022686475,0.002186978,0.000578492,0.32553124,2.610367,0.64308715,3.133508,0.0,0.66573226,0.06114085,0.0051374836,0.0035218885,0.025914676,0.017151175,inf,inf,inf,inf,1,1,1,1,2,1,2,3,0,0,0
52773694,0,0.0,0.0,0.60333025,0.62992007,-0.6106333,0.1208579,0.67637897,-0.25504225,0.032749373,0.048726495,-0.063867606,-0.07685873,-0.0022686475,0.002186978,0.000578492,2.114989,4.6941795,-1.8464128,3.1281786,0.0,0.6752525,0.063867606,0.0050041517,0.0034361216,0.02553853,0.016940188,inf,inf,inf,inf,1,1,1,1,2,1,2,3,0,0,0
52877682,0,0.0,0.0,0.6057347,0.6345482,-0.6184907,0.1208579,0.67637897,-0.25504225,0.047363676,0.04867044,-0.049567606,-0.062131356,-0.0022686475,0.002186978,0.000578492,6.0929804,1.484456,-4.007764,3.12188,0.0,0.6831099,0.049567606,0.0051849117,0.0035542715,0.02595365,0.017196361,inf,inf,inf,inf,1,1,1,1,2,1,2,3,0,0,0
52973671,0,0.0,0.0,0.60777164,0.6391689,-0.622977,0.1208579,0.67637897,-0.25504225,0.028194567,0.062139448,-0.030720055,-0.04235924,-0.0022686475,0.002186978,0.000578492,-1.800843,3.6695433,-1.0864749,3.1209311,0.0,0.6875962,0.030720055,0.0049860855,0.0034238459,0.0255764,0.016966028,inf,inf,inf,inf,1,1,1,1,2,1,2,3,0,0,0
53077681,0,0.0,0.0,0.60955006,0.6441777,-0.6257101,0.1208579,0.67637897,-0.25504225,0.050857555,0.052707206,-0.027118513,-0.03732239,-0.0022686475,0.002186978,0.000578492,4.9269686,2.2097476,-4.6923957,3.1213467,0.0,0.6903293,0.027118513,0.0050176177,0.003443168,0.025691716,0.017046187,inf,inf,inf,inf,1,1,1,1,2,1,2,3,0,0,0
53181675,0,0.0,0.0,0.6107886,0.64908683,-0.62750167,0.1208579,0.67637897,-0.25504225,0.0396087,0.04362861,-0.01672132,-0.025431968,-0.0022686475,0.002186978,0.000578492,3.7474957,-4.349001,-0.43534583,3.1219738,0.0,0.69212085,0.01672132,0.0052341195,0.0035864473,0.026075877,0.017278485,inf,inf,inf,inf,1,1,1,1,2,1,2,3,0,0,0
53277685,0,0.0,0.0,0.6125003,0.6527374,-0.6288541,0.1208579,0.67637897,-0.25504225,0.043735746,0.052798938,-0.020397337,-0.028224958,-0.0022686475,0.002186978,0.000578492,-2.4789689,1.7689779,-0.49658588,3.123347,0.0,0.6934733,0.020397337,0.005214832,0.0035776135,0.025883181,0.017155688,inf,inf,inf,inf,1,1,1,1,2,1,2,3,0,0,0
53381687,0,0.0,0.0,0.6155268,0.65522945,-0.6309894,0.1208579,0.67637897,-0.25504225,0.06098403,0.03681517,-0.016819065,-0.024469493,-0.0022686475,0.002186978,0.000578492,1.0928824,-0.29412982,-1.8678192,3.12323,0.0,0.69560856,0.016819065,0.005315516,0.0036436454,0.026133878,0.017295515,inf,inf,inf,inf,1,1,1,1,2,1,2,3,0,0,0
53485676,0,0.0,0.0,0.61965096,0.656378,-0.63291615,0.1208579,0.67637897,-0.25504225,0.06598582,0.024182165,0.0016910764,-0.0064437287,-0.0022686475,0.002186978,0.000578492,6.510996,-1.2980438,-0.19720235,3.1243896,0.0,0.69753534,-0.0016910764,0.005094046,0.0034997298,0.025630124,0.017002204,inf,inf,inf,inf,1,1,1,1,2,1,2,3,0,0,0
53589670,0,0.0,0.0,0.62484896,0.65562737,-0.63468647,0.1208579,0.67637897,-0.25504225,0.054518204,0.019558253,0.016678872,0.007807415,-0.0022686475,0.002186978,0.000578492,4.1201367,-2.5688336,1.7560155,3.126967,0.0,0.69930565,-0.016678872,0.004975912,0.0034202891,0.025457384,0.016911147,inf,inf,inf,inf,1,1,1,1,2,1,2,3,0,0,0
53692901,0,0.0,0.0,0.6303422,0.6543338,-0.6357671,0.1208579,0.67637897,-0.25504225,0.058155466,0.009695145,0.0009961339,-0.008378039,-0.0022686475,0.002186978,0.000578492,1.9241439,-1.5710016,1.8759433,3.1321404,0.0,0.7003863,-0.0009961339,0.005154746,0.0035362537,0.025909176,0.017180339,inf,inf,inf,inf,1,1,1,1,2,1,2,3,0,0,0
53788876,0,0.0,0.0,0.6360359,0.6527702,-0.6372007,0.1208579,0.67637897,-0.25504225,0.0607298,0.018156372,0.0015485235,-0.007999207,-0.0022686475,0.002186978,0.000578492,-2.1854417,-2.3656409,0.5368779,3.1376512,0.0,0.7018199,-0.0015485235,0.00487052,0.003352362,0.02516539,0.016746048,inf,inf,inf,inf,1,1,1,1,2,1,2,3,0,0,0
53892870,0,0.0,0.0,0.64327073,0.6509961,-0.64001584,0.1208579,0.67637897,-0.25504225,0.051412627,-0.003361293,0.001177045,-0.008596062,-0.0022686475,0.002186978,0.000578492,-1.2306967,-4.24575,1.3276123,3.1402721,0.0,0.704635,-0.001177045,0.005136125,0.003522724,0.025949493,0.017190289,inf,inf,inf,inf,1,1,1,1,2,1,2,3,0,0,0
53996870,0,0.0,0.0,0.64987326,0.64865017,-0.642147,0.1208579,0.67637897,-0.25504225,0.040793765,0.0020331047,0.0043031126,-0.005980229,-0.0022686475,0.002186978,0.000578492,-2.52271,-0.8695333,0.5716718,3.138064,0.0,0.7067662,-0.0043031126,0.005050359,0.0034672928,0.025710111,0.017038433,inf,inf,inf,inf,1,1,1,1,2,1,2,3,0,0,0
54092876,0,0.0,0.0,0.655078,0.6466761,-0.6435052,0.1208579,0.67637897,-0.25504225,0.053037535,0.0037192605,0.011124761,0.00045027316,-0.0022686475,0.002186978,0.000578492,0.8104989,1.4786805,0.17193764,3.1359432,0.0,0.7081244,-0.011124761,0.005079418,0.0034877523,0.025657877,0.01703682,inf,inf,inf,inf,1,1,1,1,2,1,2,3,0,0,0
54196878,0,0.0,0.0,0.6587889,0.64453036,-0.6454737,0.1208579,0.67637897,-0.25504225,0.054207172,0.004398816,-0.023167154,-0.0339283,-0.0022686475,0.002186978,0.000578492,3.3363805,3.3738756,-2.7258246,3.1332538,0.0,0.7100929,0.023167154,0.0052924724,0.0036256823,0.026206248,0.01735859,inf,inf,inf,inf,1,1,1,1,2,1,2,3,0,0,0
54300870,0,0.0,0.0,0.6606366,0.6436693,-0.6491084,0.1208579,0.67637897,-0.25504225,0.039844606,0.0131646255,-0.025424946,-0.036172222,-0.0022686475,0.002186978,0.000578492,1.1684747,1.5519651,-0.77169466,3.130159,0.0,0.7137276,0.025424946,0.005386114,0.003689412,0.026307797,0.01741477,inf,inf,inf,inf,1,1,1,1,2,1,2,3,0,0,0
54396876,0,0.0,0.0,0.6609336,0.64458776,-0.6530945,0.1208579,0.67637897,-0.25504225,0.005573084,0.025124539,-0.0099153835,-0.021098632,-0.0022686475,0.002186978,0.000578492,-0.6694454,0.12730032,-0.59487677,3.127959,0.0,0.71771365,0.0099153835,0.005254185,0.0036061313,0.025932958,0.017166074,inf,inf,inf,inf,1,1,1,1,2,1,2,3,0,0,0
54500095,0,0.0,0.0,0.6588206,0.64714015,-0.65631294,0.1208579,0.67637897,-0.25504225,-0.005104778,0.043335512,-0.008062845,-0.019979808,-0.0022686475,0.002186978,0.000578492,0.15420492,-2.8472776,-0.27820918,3.127684,0.0,0.7209321,0.008062845,0.005053059,0.0034725135,0.025594173,0.016960608,inf,inf,inf,inf,1,1,1,1,2,1,2,3,0,0,0
54603308,0,0.0,0.0,0.6553411,0.65306073,-0.65983856,0.1208579,0.67637897,-0.25504225,-0.025799507,0.07423989,0.0012614536,-0.010834711,-0.0022686475,0.002186978,0.000578492,-3.0699797,-5.2414155,3.9270847,3.130212,0.0,0.72445774,-0.0012614536,0.0049211574,0.0033846379,0.025338704,0.016836703,inf,inf,inf,inf,1,1,1,1,2,1,2,3,0,0,0
54708070,0,0.0,0.0,0.6504337,0.66393334,-0.66336364,0.1208579,0.67637897,-0.25504225,-0.026579617,0.11228818,-0.0053468174,-0.017222416,-0.0022686475,0.002186978,0.000578492,-0.13154453,0.52471834,2.609445,3.1358178,0.0,0.7279828,0.0053468174,0.004929457,0.0033860824,0.02556509,0.016956927,inf,inf,inf,inf,1,1,1,1,2,1,2,3,0,0,0
54804069,0,0.0,0.0,0.6449993,0.678046,-0.6657375,0.1208579,0.67637897,-0.25504225,-0.02418295,0.13396977,-0.012102365,-0.02366735,-0.0022686475,0.002186978,0.000578492,-0.80050564,-3.8020144,-0.31727394,-3.1399252,0.0,0.7303567,0.012102365,0.005029826,0.0034524756,0.025682364,0.01703015,inf,inf,inf,inf,1,1,1,1,2,1,2,3,0,0,0
54908070,0,0.0,0.0,0.63970524,0.6968365,-0.6691958,0.1208579,0.67637897,-0.25504225,-0.021354644,0.15374394,-0.016880684,-0.028019303,-0.0022686475,0.002186978,0.000578492,1.4078685,-3.6088657,-0.73060274,-3.1329474,0.0,0.73381495,0.016880684,0.0051840656,0.0035552352,0.025895657,0.017157692,inf,inf,inf,inf,1,1,1,1,2,1,2,3,0,0,0
55012080,0,0.0,0.0,0.63504964,0.7180702,-0.6735341,0.1208579,0.67637897,-0.25504225,-0.013895386,0.17191876,-0.039623253,-0.050430894,-0.0022686475,0.002186978,0.000578492,2.644448,0.37354174,-1.2860671,-3.1271172,0.0,0.7381533,0.039623253,0.005328355,0.0036494276,0.026264783,0.017366065,inf,inf,inf,inf,1,1,1,1,2,1,2,3,0,0,0
55108119,0,0.0,0.0,0.631225,0.7379313,-0.6791601,0.1208579,0.67637897,-0.25504225,-0.030696597,0.16513859,-0.05291047,-0.06369595,-0.0022686475,0.002186978,0.000578492,-2.385644,-1.995679,0.24081537,-3.1226296,0.0,0.7437793,0.05291047,0.005030965,0.0034557595,0.025606453,0.016973255,inf,inf,inf,inf,1,1,1,1,2,1,2,3,0,0,0
55212069,0,0.0,0.0,0.6281641,0.7576106,-0.6879775,0.1208579,0.67637897,-0.25504225,-0.028699307,0.12975463,-0.06614306,-0.077387,-0.0022686475,0.002186978,0.000578492,-2.7784379,-4.200117,0.053223968,-3.1182764,0.0,0.7525967,0.06614306,0.0050290897,0.0034506351,0.0257702,0.017049072,inf,inf,inf,inf,1,1,1,1,2,1,2,3,0,0,0
55316076,0,0.0,0.0,0.6254322,0.7730828,-0.69839454,0.1208579,0.67637897,-0.25504225,-0.021008817,0.10603444,-0.09230624,-0.10431312,-0.0022686475,0.002186978,0.000578492,1.6356044,2.068853,-1.1588342,-3.1111228,0.0,0.7630137,0.09230624,0.0051571797,0.0035362402,0.025898531,0.017104661,inf,inf,inf,inf,1,1,1,1,2,1,2,3,0,0,0
55419279,0,0.0,0.0,0.62310594,0.7832301,-0.7101584,0.1208579,0.67637897,-0.25504225,-0.020015841,0.09341708,-0.090020806,-0.10285378,-0.0022686475,0.002186978,0.000578492,1.818275,3.165243,-0.09355339,-3.1002471,0.0,0.7747776,0.090020806,0.0052258815,0.0035827374,0.02590693,0.017133165,inf,inf,inf,inf,1,1,1,1,2,1,2,3,0,0,0
55523282,0,0.0,0.0,0.6213743,0.7883171,-0.7222826,0.1208579,0.67637897,-0.25504225,-0.034168847,0.047344502,-0.06912736,-0.082465164,-0.0022686475,0.002186978,0.000578492,-1.2238072,1.0330127,0.9460895,-3.092263,0.0,0.7869018,0.06912736,0.005216666,0.0035785723,0.025820136,0.01707948,inf,inf,inf,inf,1,1,1,1,2,1,2,3,0,0,0
55619272,0,0.0,0.0,0.62005824,0.78740406,-0.73231244,0.1208579,0.67637897,-0.25504225,-0.021039277,0.029527754,-0.087968275,-0.10114807,-0.0022686475,0.002186978,0.000578492,-0.650937,-0.76423115,0.61700106,-3.0894022,0.0,0.7969316,0.087968275,0.0051050703,0.0035053378,0.02564747,0.016956802,inf,inf,inf,inf,1,1,1,1,2,1,2,3,0,0,0
55723311,0,0.0,0.0,0.6181311,0.78208786,-0.74233216,0.1208579,0.67637897,-0.25504225,-0.01865799,-0.012854858,-0.09882518,-0.111062825,-0.0022686475,0.002186978,0.000578492,2.0832403,-1.0695606,-2.0911198,-3.0916834,0.0,0.80695134,0.09882518,0.005164131,0.003542681,0.025860434,0.01710137,inf,inf,inf,inf,1,1,1,1,2,1,2,3,0,0,0
55827299,0,0.0,0.0,0.6166768,0.7706117,-0.7536486,0.1208579,0.67637897,-0.25504225,-0.014970644,-0.057035863,-0.10131336,-0.11219913,-0.0022686475,0.002186978,0.000578492,1.752158,0.061310913,0.5516858,-3.096605,0.0,0.81826776,0.10131336,0.005229716,0.0035842173,0.026078643,0.017214425,inf,inf,inf,inf,1,1,1,1,2,1,2,3,0,0,0
55923302,0,0.0,0.0,0.615319,0.7563677,-0.7645191,0.1208579,0.67637897,-0.25504225,-0.026047617,-0.12057947,-0.11569082,-0.12561983,-0.0022686475,0.002186978,0.000578492,-1.2496791,-4.6882706,0.63117415,-3.107649,0.0,0.8291383,0.11569082,0.0051623303,0.0035399576,0.025942566,0.017124048,inf,inf,inf,inf,1,1,1,1,2,1,2,3,0,0,0
56027288,0,0.0,0.0,0.61431694,0.7378914,-0.7770531,0.1208579,0.67637897,-0.25504225,-0.040095385,-0.12863705,-0.10550462,-0.1148714,-0.0022686475,0.002186978,0.000578492,-1.7528695,-1.5992701,-0.27870962,-3.1160922,0.0,0.8416723,0.10550462,0.0055324784,0.0037790376,0.026772505,0.017606454,inf,inf,inf,inf,1,1,1,1,2,1,2,3,0,0,0
56131276,0,0.0,0.0,0.614234,0.71778244,-0.78981227,0.1208579,0.67637897,-0.25504225,-0.031653337,-0.16715185,-0.10444068,-0.11364979,-0.0022686475,0.002186978,0.000578492,-0.5235775,-3.173991,0.9145798,-3.1196234,0.0,0.85443145,0.10444068,0.005158044,0.0035388463,0.025800984,0.017059688,inf,inf,inf,inf,1,1,1,1,2,1,2,3,0,0,0
56229709,0,0.0,0.0,0.6135657,0.6982466,-0.80017835,0.1208579,0.67637897,-0.25504225,-0.03130628,-0.15737301,-0.097900935,-0.10682086,-0.0022686475,0.002186978,0.000578492,-5.4316797,-1.2580097,0.031635586,-3.120266,0.0,0.86479753,0.097900935,0.0054380153,0.003718443,0.026552781,0.017523475,inf,inf,inf,inf,1,1,1,1,2,1,2,3,0,0,0
56334473,0,0.0,0.0,0.61228555,0.67729425,-0.81054085,0.1208579,0.67637897,-0.25504225,-0.03646117,-0.18476138,-0.09424829,-0.102308534,-0.0022686475,0.002186978,0.000578492,-2.4558861,-3.4518228,0.3690264,-3.1191237,0.0,0.87516004,0.09424829,0.0051591382,0.0035401168,0.025857145,0.017154522,inf,inf,inf,inf,1,1,1,1,2,1,2,3,0,0,0
56430470,0,0.0,0.0,0.61061615,0.65868604,-0.82071054,0.1208579,0.67637897,-0.25504225,-0.0075079445,-0.17031531,-0.11671266,-0.1236496,-0.0022686475,0.002186978,0.000578492,1.9194092,0.5302573,0.78279924,-3.121141,0.0,0.8853297,0.11671266,0.005153332,0.0035390423,0.025932143,0.017248135,inf,inf,inf,inf,1,1,1,1,2,1,2,3,0,0,0
56534470,0,0.0,0.0,0.6093042,0.6408716,-0.83266956,0.1208579,0.67637897,-0.25504225,-0.0128765,-0.1614252,-0.12347183,-0.12939896,-0.0022686475,0.002186978,0.000578492,-5.3132653,2.0852394,0.6937812,-3.125921,0.0,0.89728874,0.12347183,0.0051917136,0.0035668528,0.025961958,0.01724467,inf,inf,inf,inf,1,1,1,1,2,1,2,3,0,0,0
56638469,0,0.0,0.0,0.6095384,0.62647676,-0.84691966,0.1208579,0.67637897,-0.25504225,-0.005663214,-0.1519394,-0.1480324,-0.15374318,-0.0022686475,0.002186978,0.000578492,-4.1920094,2.6379592,-0.936207,-3.132151,0.0,0.91153884,0.1480324,0.005272049,0.0036183733,0.026162263,0.01734002,inf,inf,inf,inf,1,1,1,1,2,1,2,3,0,0,0
56742469,0,0.0,0.0,0.610954,0.61458534,-0.864725,0.1208579,0.67637897,-0.25504225,0.011602157,-0.12977046,-0.17901082,-0.18535241,-0.0022686475,0.002186978,0.000578492,-5.7425485,1.9625105,0.4245805,-3.1359184,0.0,0.9293442,0.17901082,0.0053424947,0.0036630777,0.02633404,0.017410276,inf,inf,inf,inf,1,1,1,1,2,1,2,3,0,0,0
56846476,0,0.0,0.0,0.6131781,0.6065089,-0.8863885,0.1208579,0.67637897,-0.25504225,0.018123869,-0.11087898,-0.19483878,-0.20256926,-0.0022686475,0.002186978,0.000578492,-4.3573494,1.6785673,1.6107268,-3.1410153,0.0,0.95100766,0.19483878,0.0054034037,0.003701842,0.026468644,0.017487686,inf,inf,inf,inf,1,1,1,1,2,1,2,3,0,0,0
56942478,0,0.0,0.0,0.61673373,0.6015811,-0.90794706,0.1208579,0.67637897,-0.25504225,0.031953894,-0.09606381,-0.18108733,-0.1905633,-0.0022686475,0.002186978,0.000578492,1.4176435,-6.101364,2.464367,3.1376238,0.0,0.97256625,0.18108733,0.0053321277,0.0036540949,0.026319845,0.017387243,inf,inf,inf,inf,1,1,1,1,2,1,2,3,0,0,0
57046470,0,0.0,0.0,0.6216788,0.5995166,-0.9304073,0.1208579,0.67637897,-0.25504225,0.024813375,-0.04045381,-0.16609642,-0.17711706,-0.0022686475,0.002186978,0.000578492,-5.6729712,3.7698228,3.5109043,3.13723,0.0,0.99502647,0.16609642,0.005399779,0.0036969807,0.02645303,0.017481776,inf,inf,inf,inf,1,1,1,1,2,1,2,3,0,0,0
57149677,0,0.0,0.0,0.627334,0.603329,-0.94746685,0.1208579,0.67637897,-0.25504225,0.04949734,-0.0110872,-0.11815313,-0.12919721,-0.0022686475,0.002186978,0.000578492,0.20885578,-2.0818777,-0.7966022,3.134272,0.0,1.012086,0.11815313,0.0054635284,0.003738833,0.02658712,0.017566212,inf,inf,inf,inf,1,1,1,1,2,1,2,3,0,0,0
57253670,0,0.0,0.0,0.6333841,0.6123193,-0.958283,0.1208579,0.67637897,-0.25504225,0.061059393,0.02768643,-0.07809826,-0.0869655,-0.0022686475,0.002186978,0.000578492,2.3244085,-4.4182687,2.4662566,3.1321654,0.0,1.0229021,0.07809826,0.0051804506,0.0035569791,0.025854165,0.017159922,inf,inf,inf,inf,1,1,1,1,2,1,2,3,0,0,0
57357670,0,0.0,0.0,0.63948184,0.6260132,-0.9630786,0.1208579,0.67637897,-0.25504225,0.051421285,0.08832811,-0.044309095,-0.049338564,-0.0022686475,0.002186978,0.000578492,-2.7602856,-0.6697944,2.3051689,3.1344297,0.0,1.0276978,0.044309095,0.0052260947,0.0035878592,0.02594132,0.017202485,inf,inf,inf,inf,1,1,1,1,2,1,2,3,0,0,0
57453676,0,0.0,0.0,0.6446297,0.6438091,-0.9626205,0.1208579,0.67637897,-0.25504225,0.06290996,0.14264444,-0.005835953,-0.006837174,-0.0022686475,0.002186978,0.000578492,3.411632,0.5743897,0.07762343,3.1400661,0.0,1.0272397,0.005835953,0.0051533505,0.0035411445,0.025769282,0.017104503,inf,inf,inf,inf,1,1,1,1,2,1,2,3,0,0,0
57557676,0,0.0,0.0,0.6494629,0.66741365,-0.9574546,0.1208579,0.67637897,-0.25504225,0.05333343,0.16351648,0.026769266,0.029631732,-0.0022686475,0.002186978,0.000578492,-0.34617025,-1.8040276,2.6203105,-3.1322312,0.0,1.0220737,-0.026769266,0.0052334834,0.0035924339,0.025986582,0.017222296,inf,inf,inf,inf,1,1,1,1,2,1,2,3,0,0,0
57661670,0,0.0,0.0,0.6537778,0.6946247,-0.94878644,0.1208579,0.67637897,-0.25504225,0.06947554,0.2088249,0.041451886,0.0471207,-0.0022686475,0.002186978,0.000578492,4.1034455,-0.4929322,-1.6180239,-3.123607,0.0,1.0134056,-0.041451886,0.0053028506,0.0036369674,0.026135761,0.017317168,inf,inf,inf,inf,1,1,1,1,2,1,2,3,0,0,0
57757708,0,0.0,0.0,0.65836596,0.7225633,-0.93931407,0.1208579,0.67637897,-0.25504225,0.068013445,0.23689377,0.078341216,0.085414514,-0.0022686475,0.002186978,0.000578492,-1.1132234,-4.460263,1.559065,-3.1180105,0.0,1.0039332,-0.078341216,0.005232987,0.003591731,0.025963653,0.017217789,inf,inf,inf,inf,1,1,1,1,2,1,2,3,0,0,0
57861670,0,0.0,0.0,0.66420776,0.75318426,-0.9272741,0.1208579,0.67637897,-0.25504225,0.0815733,0.2608311,0.09145674,0.098765194,-0.0022686475,0.002186978,0.000578492,3.237724,2.2921746,-1.574575,-3.112595,0.0,0.9918933,-0.09145674,0.0053192647,0.003647531,0.026195224,0.017351951,inf,inf,inf,inf,1,1,1,1,2,1,2,3,0,0,0
57957670,0,0.0,0.0,0.67012,0.78166556,-0.91414094,0.1208579,0.67637897,-0.25504225,0.057003275,0.2799896,0.13676181,0.14339928,-0.0022686475,0.002186978,0.000578492,-4.989611,-2.4313097,1.8165125,-3.1069753,0.0,0.9787601,-0.13676181,0.0052411803,0.00359748,0.02598108,0.017224686,inf,inf,inf,inf,1,1,1,1,2,1,2,3,0,0,0
58064870,0,0.0,0.0,0.6767885,0.81052357,-0.8959309,0.1208579,0.67637897,-0.25504225,0.0656712,0.230776,0.18206179,0.18759793,-0.0022686475,0.002186978,0.000578492,3.0673773,-3.7721775,0.16683134,-3.1028657,0.0,0.96055007,-0.18206179,0.005339774,0.003660693,0.026257537,0.017389698,inf,inf,inf,inf,1,1,1,1,2,1,2,3,0,0,0
58168893,0,0.0,0.0,0.6829623,0.8349912,-0.87517875,0.1208579,0.67637897,-0.25504225,0.07157238,0.23392124,0.2059506,0.21050844,-0.0022686475,0.002186978,0.000578492,3.22244,3.7711892,-1.7876455,-3.1017532,0.0,0.93979794,-0.2059506,0.0051123695,0.0035147713,0.025785988,0.017158175,inf,inf,inf,inf,1,1,1,1,2,1,2,3,0,0,0
58264870,0,0.0,0.0,0.6887917,0.8536386,-0.85391843,0.1208579,0.67637897,-0.25504225,0.052223057,0.183625,0.23105279,0.23477608,-0.0022686475,0.002186978,0.000578492,-0.5960318,-3.4670587,-1.8210081,-3.1014712,0.0,0.9185376,-0.23105279,0.0054044942,0.003704422,0.02650086,0.017569669,inf,inf,inf,inf,1,1,1,1,2,1,2,3,0,0,0
58368870,0,0.0,0.0,0.6952973,0.86833316,-0.8291379,0.1208579,0.67637897,-0.25504225,0.05205215,0.1572768,0.2619755,0.26455337,-0.0022686475,0.002186978,0.000578492,0.472561,-1.0119009,-0.6229674,-3.1022477,0.0,0.8937571,-0.2619755,0.0051180855,0.003519403,0.025721796,0.017086212,inf,inf,inf,inf,1,1,1,1,2,1,2,3,0,0,0
58472876,0,0.0,0.0,0.70108676,0.87682456,-0.8023925,0.1208579,0.67637897,-0.25504225,0.043054227,0.10475159,0.2758701,0.2768216,-0.0022686475,0.002186978,0.000578492,-2.0732732,0.9455858,1.4677149,-3.105625,0.0,0.86701167,-0.2758701,0.0051387274,0.0035339014,0.025676971,0.0170501,inf,inf,inf,inf,1,1,1,1,2,1,2,3,0,0,0
58568870,0,0.0,0.0,0.7051003,0.8784158,-0.77822006,0.1208579,0.67637897,-0.25504225,0.05827598,0.052404616,0.26811844,0.26712406,-0.0022686475,0.002186978,0.000578492,5.0119653,0.0239102,-3.0164106,-3.1101055,0.0,0.84283924,-0.26811844,0.005406498,0.0037062566,0.026388753,0.017474314,inf,inf,inf,inf,1,1,1,1,2,1,2,3,0,0,0
58672872,0,0.0,0.0,0.7083799,0.8737518,-0.7533897,0.1208579,0.67637897,-0.25504225,0.04048111,-0.015529323,0.27059087,0.26705417,-0.0022686475,0.002186978,0.000578492,0.9382987,-7.116508,2.143139,-3.113722,0.0,0.8180089,-0.27059087,0.0051103462,0.0035135876,0.025679061,0.017054753,inf,inf,inf,inf,1,1,1,1,2,1,2,3,0,0,0
58776870,0,0.0,0.0,0.7124064,0.86332965,-0.73035514,0.1208579,0.67637897,-0.25504225,0.031031527,-0.064003415,0.26261693,0.2560803,-0.0022686475,0.002186978,0.000578492,-5.405215,2.2327957,3.824346,-3.12317,0.0,0.7949743,-0.26261693,0.0052195233,0.003582489,0.026043935,0.01726104,inf,inf,inf,inf,1,1,1,1,2,1,2,3,0,0,0
58880091,0,0.0,0.0,0.7178395,0.8442443,-0.7098457,0.1208579,0.67637897,-0.25504225,0.05915314,-0.17345755,0.23953898,0.22968566,-0.0022686475,0.002186978,0.000578492,2.0080428,-2.8609061,-1.9633055,-3.1365018,0.0,0.7744649,-0.23953898,0.0052741887,0.0036179253,0.026134348,0.017289879,inf,inf,inf,inf,1,1,1,1,2,1,2,3,0,0,0
58976107,0,0.0,0.0,0.7246595,0.8218172,-0.69233674,0.1208579,0.67637897,-0.25504225,0.061028566,-0.16690803,0.23866242,0.22568056,-0.0022686475,0.002186978,0.000578492,-0.64698637,3.2326784,3.8129187,3.1335986,0.0,0.7569559,-0.23866242,0.0051915427,0.003564111,0.025900241,0.017165828,inf,inf,inf,inf,1,1,1,1,2,1,2,3,0,0,0
59080084,0,0.0,0.0,0.73350286,0.79327714,-0.6746447,0.1208579,0.67637897,-0.25504225,0.0632559,-0.24346988,0.2395869,0.22360647,-0.0022686475,0.002186978,0.000578492,-3.092198,3.1462326,4.9472923,3.1184268,0.0,0.7392639,-0.2395869,0.005277468,0.0036191277,0.026196837,0.017357407,inf,inf,inf,inf,1,1,1,1,2,1,2,3,0,0,0
59184088,0,0.0,0.0,0.7429011,0.7599044,-0.6563887,0.1208579,0.67637897,-0.25504225,0.06986807,-0.2602555,0.2357838,0.21763925,-0.0022686475,0.002186978,0.000578492,0.76988614,1.0779085,2.0451365,3.105216,0.0,0.7210079,-0.2357838,0.0053325477,0.0036543547,0.026301494,0.017387602,inf,inf,inf,inf,1,1,1,1,2,1,2,3,0,0,0
59280068,0,0.0,0.0,0.75147855,0.7283924,-0.6394014,0.1208579,0.67637897,-0.25504225,0.060574222,-0.28814718,0.21780914,0.19874896,-0.0022686475,0.002186978,0.000578492,0.53057474,3.6367261,-0.59098935,3.0991287,0.0,0.70402056,-0.21780914,0.00518161,0.0035595843,0.025810292,0.017112844,inf,inf,inf,inf,1,1,1,1,2,1,2,3,0,0,0
59384070,0,0.0,0.0,0.7601575,0.6953183,-0.6212625,0.1208579,0.67637897,-0.25504225,0.038726926,-0.28721043,0.20999274,0.19089797,-0.0022686475,0.002186978,0.000578492,0.4987327,-3.558295,-1.7916765,3.0949414,0.0,0.6858817,-0.20999274,0.005177365,0.0035570927,0.025814526,0.01708698,inf,inf,inf,inf,1,1,1,1,2,1,2,3,0,0,0
59488070,0,0.0,0.0,0.76807797,0.66548944,-0.6049071,0.1208579,0.67637897,-0.25504225,0.017904142,-0.24967271,0.1781199,0.15936512,-0.0022686475,0.002186978,0.000578492,-5.431259,5.2505026,0.80482584,3.094809,0.0,0.6695263,-0.1781199,0.00525943,0.0036062035,0.02618973,0.017275734,inf,inf,inf,inf,1,1,1,1,2,1,2,3,0,0,0
59584083,0,0.0,0.0,0.77324265,0.6427654,-0.59182084,0.1208579,0.67637897,-0.25504225,0.0022253243,-0.2311592,0.15113598,0.13244702,-0.0022686475,0.002186978,0.000578492,-1.8466038,6.9265337,-1.8293064,3.095801,0.0,0.65644,-0.15113598,0.005157337,0.0035378116,0.025937421,0.017090296,inf,inf,inf,inf,1,1,1,1,2,1,2,3,0,0,0
59688080,0,0.0,0.0,0.7747232,0.624206,-0.57962257,0.1208579,0.67637897,-0.25504225,-0.035988063,-0.19814315,0.16622049,0.14712606,-0.0022686475,0.002186978,0.000578492,-4.1536627,-2.3194284,4.651915,3.0990362,0.0,0.64424175,-0.16622049,0.0052134525,0.003570131,0.026143983,0.017160008,inf,inf,inf,inf,1,1,1,1,2,1,2,3,0,0,0
59788070,0,0.0,0.0,0.7699546,0.6139061,-0.56790704,0.1208579,0.67637897,-0.25504225,-0.07466738,-0.14928111,0.16305971,0.14361703,-0.0022686475,0.002186978,0.000578492,0.45493358,-1.3777579,0.12900302,3.1053023,0.0,0.6325262,-0.16305971,0.0051929415,0.0035520014,0.026194826,0.017185647,inf,inf,inf,inf,1,1,1,1,2,1,2,3,0,0,0
59891280,0,0.0,0.0,0.75772566,0.6108742,-0.55395746,0.1208579,0.67637897,-0.25504225,-0.1202815,-0.102459386,0.17073874,0.15173401,-0.0022686475,0.002186978,0.000578492,-1.7570367,1.6830788,1.8740454,3.1162841,0.0,0.61857665,-0.17073874,0.005287703,0.0036118974,0.026327707,0.01729615,inf,inf,inf,inf,1,1,1,1,2,1,2,3,0,0,0
59995269,0,0.0,0.0,0.7385997,0.61383694,-0.5380518,0.1208579,0.67637897,-0.25504225,-0.15103516,-0.044458184,0.17416443,0.15672494,-0.0022686475,0.002186978,0.000578492,-0.06057874,4.1580524,-1.8077615,3.1294,0.0,0.60267097,-0.17416443,0.005423697,0.003701638,0.026762709,0.017616201,inf,inf,inf,inf,1,1,1,1,2,1,2,3,0,0,0
60099305,0,0.0,0.0,0.71572196,0.6240212,-0.520847,0.1208579,0.67637897,-0.25504225,-0.16811892,-0.0029524826,0.16125172,0.14618674,-0.0022686475,0.002186978,0.000578492,1.5372392,1.48269,-2.2427514,3.1382961,0.0,0.5854662,-0.16125172,0.005475943,0.003740177,0.02672965,0.017649012,inf,inf,inf,inf,1,1,1,1,2,1,2,3,0,0,0
60195304,0,0.0,0.0,0.6934172,0.63777363,-0.5047862,0.1208579,0.67637897,-0.25504225,-0.19869466,0.07226072,0.16254294,0.14972179,-0.0022686475,0.002186978,0.000578492,-3.6720037,3.6879225,1.5201122,-3.1405005,0.0,0.5694054,-0.16254294,0.005382897,0.0036844974,0.026410393,0.017457984,inf,inf,inf,inf,1,1,1,1,2,1,2,3,0,0,0
60299270,0,0.0,0.0,0.669156,0.6581212,-0.48740926,0.1208579,0.67637897,-0.25504225,-0.20218152,0.11355642,0.16109096,0.15007398,-0.0022686475,0.002186978,0.000578492,-2.475022,2.5338168,-1.7937634,-3.1355634,0.0,0.5520284,-0.16109096,0.0050912034,0.0034979081,0.025645752,0.017009621,inf,inf,inf,inf,1,1,1,1,2,1,2,3,0,0,0
60403309,0,0.0,0.0,0.6448134,0.68153286,-0.47006607,0.1208579,0.67637897,-0.25504225,-0.19379237,0.14002845,0.15988189,0.1499527,-0.0022686475,0.002186978,0.000578492,-0.5637769,1.3701949,-1.5933281,-3.1286163,0.0,0.53468525,-0.15988189,0.0051583974,0.0035420894,0.02580642,0.017090274,inf,inf,inf,inf,1,1,1,1,2,1,2,3,0,0,0
60507270,0,0.0,0.0,0.62171656,0.70774436,-0.4530948,0.1208579,0.67637897,-0.25504225,-0.19041045,0.19111015,0.15503184,0.14563774,-0.0022686475,0.002186978,0.000578492,-0.60303545,3.8962932,-1.7173502,-3.1212711,0.0,0.51771396,-0.15503184,0.005204828,0.0035731874,0.02588784,0.017164752,inf,inf,inf,inf,1,1,1,1,2,1,2,3,0,0,0
60603302,0,0.0,0.0,0.60299975,0.7340206,-0.43964875,0.1208579,0.67637897,-0.25504225,-0.18051808,0.21250255,0.13401158,0.12478316,-0.0022686475,0.002186978,0.000578492,0.27361178,-2.2950428,-1.1013527,-3.1147273,0.0,0.50426793,-0.13401158,0.005157337,0.0035416705,0.02583222,0.01712482,inf,inf,inf,inf,1,1,1,1,2,1,2,3,0,0,0
60706486,0,0.0,0.0,0.5871064,0.7623702,-0.42898077,0.1208579,0.67637897,-0.25504225,-0.1566391,0.23125264,0.098327756,0.08873255,-0.0022686475,0.002186978,0.000578492,-0.017140351,-3.644861,-1.0998565,-3.1091626,0.0,0.49359992,-0.098327756,0.0052268547,0.0035863619,0.026035273,0.017217798,inf,inf,inf,inf,1,1,1,1,2,1,2,3,0,0,0
60810469,0,0.0,0.0,0.5756882,0.79164135,-0.42173767,0.1208579,0.67637897,-0.25504225,-0.13331543,0.25497454,0.08556131,0.07470688,-0.0022686475,0.002186978,0.000578492,0.45509002,-3.326064,-2.224102,-3.1046624,0.0,0.48635682,-0.08556131,0.0052777384,0.0036180625,0.026155183,0.017262954,inf,inf,inf,inf,1,1,1,1,2,1,2,3,0,0,0
60914470,0,0.0,0.0,0.56795233,0.81993824,-0.41711885,0.1208579,0.67637897,-0.25504225,-0.11118576,0.24935018,0.064790115,0.052092828,-0.0022686475,0.002186978,0.000578492,1.9776601,-0.09911136,-2.8677132,-3.0991163,0.0,0.481738,-0.064790115,0.0053468314,0.003660256,0.026373986,0.017372593,inf,inf,inf,inf,1,1,1,1,2,1,2,3,0,0,0
61010470,0,0.0,0.0,0.56250244,0.84350085,-0.41573203,0.1208579,0.67637897,-0.25504225,-0.09801512,0.2503984,0.027283216,0.01309965,-0.0022686475,0.002186978,0.000578492,-1.2759446,-0.37456223,0.4266099,-3.091276,0.0,0.48035118,-0.027283216,0.005262294,0.0036045762,0.02615123,0.017257944,inf,inf,inf,inf,1,1,1,1,2,1,2,3,0,0,0
61114470,0,0.0,0.0,0.55739874,0.86635536,-0.41898423,0.1208579,0.67637897,-0.25504225,-0.09539714,0.21546441,-0.016077906,-0.031377904,-0.0022686475,0.002186978,0.000578492,-1.2248789,-3.140933,0.49196532,-3.081704,0.0,0.4836034,0.016077906,0.0053539085,0.003662758,0.026413212,0.01740644,inf,inf,inf,inf,1,1,1,1,2,1,2,3,0,0,0
61218470,0,0.0,0.0,0.55281216,0.88603973,-0.42726856,0.1208579,0.67637897,-0.25504225,-0.07868,0.18984091,-0.055262942,-0.071705654,-0.0022686475,0.002186978,0.000578492,0.87824154,-5.200757,0.08570228,-3.0732803,0.0,0.49188772,0.055262942,0.0054356963,0.0037140185,0.026673775,0.01752042,inf,inf,inf,inf,1,1,1,1,2,1,2,3,0,0,0
61314470,0,0.0,0.0,0.5479153,0.9008319,-0.4378887,0.1208579,0.67637897,-0.25504225,-0.096305236,0.16950375,-0.07361978,-0.09130874,-0.0022686475,0.002186978,0.000578492,-4.9869647,-0.292022,1.7906419,-3.0656505,0.0,0.50250787,0.07361978,0.0053542037,0.0036602183,0.02649861,0.017387033,inf,inf,inf,inf,1,1,1,1,2,1,2,3,0,0,0
61418482,0,0.0,0.0,0.54040337,0.91124314,-0.4500324,0.1208579,0.67637897,-0.25504225,-0.10844556,0.111782946,-0.06767794,-0.08641087,-0.0022686475,0.002186978,0.000578492,-0.85600203,-3.9735608,-1.0117996,-3.0637164,0.0,0.5146516,0.06767794,0.0054395357,0.0037118215,0.026723836,0.01751315,inf,inf,inf,inf,1,1,1,1,2,1,2,3,0,0,0
61517670,0,0.0,0.0,0.5310609,0.91501296,-0.45971268,0.1208579,0.67637897,-0.25504225,-0.093884535,0.09317184,-0.065684035,-0.084264375,-0.0022686475,0.002186978,0.000578492,-0.022028854,3.7631671,-1.6668924,-3.0642016,0.0,0.52433187,0.065684035,0.0053785774,0.0036714973,0.026568035,0.017453691,inf,inf,inf,inf,1,1,1,1,2,1,2,3,0,0,0
61619308,0,0.0,0.0,0.5178892,0.9125905,-0.4660447,0.1208579,0.67637897,-0.25504225,-0.1185231,0.013232639,-0.033776786,-0.05037143,-0.0022686475,0.002186978,0.000578492,1.6792461,4.0423713,-0.45712337,-3.064553,0.0,0.53066385,0.033776786,0.0051147905,0.0035044488,0.025823316,0.017064832,inf,inf,inf,inf,1,1,1,1,2,1,2,3,0,0,0
61721677,0,0.0,0.0,0.5032141,0.90176004,-0.4687418,0.1208579,0.67637897,-0.25504225,-0.11421468,-0.058247894,-0.021210905,-0.034189414,-0.0022686475,0.002186978,0.000578492,2.136646,5.1770196,-1.8539166,-3.0688565,0.0,0.53336096,0.021210905,0.005213313,0.0035711254,0.026115496,0.017262287,inf,inf,inf,inf,1,1,1,1,2,1,2,3,0,0,0
61825671,0,0.0,0.0,0.4882913,0.88460964,-0.46769616,0.1208579,0.67637897,-0.25504225,-0.1047368,-0.13737395,-0.015317031,-0.023778062,-0.0022686475,0.002186978,0.000578492,6.2699075,-1.3218603,-1.088834,-3.0787647,0.0,0.5323153,0.015317031,0.0052019535,0.0035663038,0.02594514,0.017151698,inf,inf,inf,inf,1,1,1,1,2,1,2,3,0,0,0
61929723,0,0.0,0.0,0.47506785,0.85954815,-0.46506593,0.1208579,0.67637897,-0.25504225,-0.10482129,-0.18092307,0.0079936925,0.003807762,-0.0022686475,0.002186978,0.000578492,-2.6707747,2.276262,4.955289,-3.088096,0.0,0.5296851,-0.0079936925,0.005251472,0.0035986349,0.026058244,0.017222552,inf,inf,inf,inf,1,1,1,1,2,1,2,3,0,0,0
62025669,0,0.0,0.0,0.46442598,0.8315563,-0.46020657,0.1208579,0.67637897,-0.25504225,-0.09452777,-0.2231871,0.030449923,0.02917883,-0.0022686475,0.002186978,0.000578492,-1.5537063,4.5919666,1.6498685,-3.0950801,0.0,0.52482575,-0.030449923,0.005179822,0.0035527542,0.025881706,0.01712046,inf,inf,inf,inf,1,1,1,1,2,1,2,3,0,0,0
62129670,0,0.0,0.0,0.45493883,0.79755634,-0.45232204,0.1208579,0.67637897,-0.25504225,-0.06793203,-0.27340257,0.036268216,0.037068903,-0.0022686475,0.002186978,0.000578492,-1.7424891,0.8281546,-1.9018604,-3.1025388,0.0,0.5169412,-0.036268216,0.0052657877,0.003608508,0.026105901,0.017275183,inf,inf,inf,inf,1,1,1,1,2,1,2,3,0,0,0
62233676,0,0.0,0.0,0.44951865,0.7621334,-0.44611296,0.1208579,0.67637897,-0.25504225,-0.02540369,-0.28506833,0.014968561,0.017131584,-0.0022686475,0.002186978,0.000578492,6.1780047,3.8819928,-4.3540597,-3.1045918,0.0,0.5107321,-0.014968561,0.0053380486,0.0036572206,0.026257869,0.017380018,inf,inf,inf,inf,1,1,1,1,2,1,2,3,0,0,0
62329670,0,0.0,0.0,0.4474739,0.7306685,-0.44261715,0.1208579,0.67637897,-0.25504225,-0.027904574,-0.27954414,0.0030511045,0.005410647,-0.0022686475,0.002186978,0.000578492,-3.9431856,-0.6699032,0.74086607,-3.1013832,0.0,0.5072363,-0.0030511045,0.005266902,0.0036129735,0.026086515,0.017280208,inf,inf,inf,inf,1,1,1,1,2,1,2,3,0,0,0
62433707,0,0.0,0.0,0.44746795,0.6999051,-0.44315565,0.1208579,0.67637897,-0.25504225,-0.0074397065,-0.2576126,-0.022224318,-0.021146992,-0.0022686475,0.002186978,0.000578492,-0.6891547,0.029447027,0.1436607,-3.0952609,0.0,0.50777483,0.022224318,0.0053384267,0.0036596693,0.026281625,0.017388351,inf,inf,inf,inf,1,1,1,1,2,1,2,3,0,0,0
62536876,0,0.0,0.0,0.44914654,0.6774502,-0.44912216,0.1208579,0.67637897,-0.25504225,0.010245044,-0.20736802,-0.060846906,-0.062305532,-0.0022686475,0.002186978,0.000578492,-1.5552409,-5.5004106,0.5753896,-3.0926108,0.0,0.5137413,0.060846906,0.0053411443,0.0036636768,0.026193498,0.017331732,inf,inf,inf,inf,1,1,1,1,2,1,2,3,0,0,0
62632870,0,0.0,0.0,0.45185965,0.665405,-0.45875078,0.1208579,0.67637897,-0.25504225,0.013366713,-0.14638145,-0.0786666,-0.0833167,-0.0022686475,0.002186978,0.000578492,-1.9046628,1.6272247,1.4142791,-3.08609,0.0,0.52336997,0.0786666,0.0055716094,0.0038114982,0.026781896,0.017655734,inf,inf,inf,inf,1,1,1,1,2,1,2,3,0,0,0
62736920,0,0.0,0.0,0.45509228,0.6627741,-0.47175676,0.1208579,0.67637897,-0.25504225,0.0029855731,-0.06498625,-0.075488955,-0.08371435,-0.0022686475,0.002186978,0.000578492,-2.8409266,-1.8627601,-0.5283598,-3.0771806,0.0,0.53637594,0.075488955,0.005220617,0.0035816994,0.026009882,0.017185943,inf,inf,inf,inf,1,1,1,1,2,1,2,3,0,0,0
62840876,0,0.0,0.0,0.45751604,0.6720674,-0.48447388,0.1208579,0.67637897,-0.25504225,0.028472543,0.023827108,-0.07088473,-0.081707865,-0.0022686475,0.002186978,0.000578492,-0.2798677,3.3085747,2.0000637,-3.0696776,0.0,0.54909307,0.07088473,0.0052984506,0.0036297454,0.026249256,0.01732885,inf,inf,inf,inf,1,1,1,1,2,1,2,3,0,0,0
62936870,0,0.0,0.0,0.4589582,0.6900407,-0.49408206,0.1208579,0.67637897,-0.25504225,0.038118172,0.0887764,-0.06399847,-0.07557079,-0.0022686475,0.002186978,0.000578492,3.430752,1.6296523,0.677782,-3.0627885,0.0,0.5587012,0.06399847,0.0052031497,0.0035698067,0.02593859,0.017191902,inf,inf,inf,inf,1,1,1,1,2,1,2,3,0,0,0
63040870,0,0.0,0.0,0.46009624,0.71736723,-0.50312495,0.1208579,0.67637897,-0.25504225,0.018729515,0.16758049,-0.05522513,-0.06583335,-0.0022686475,0.002186978,0.000578492,-3.2041264,2.0549693,0.07530616,-3.0573578,0.0,0.56774414,0.05522513,0.0052897846,0.0036264411,0.026166016,0.017334683,inf,inf,inf,inf,1,1,1,1,2,1,2,3,0,0,0
63144876,0,0.0,0.0,0.46072716,0.75288486,-0.5092468,0.1208579,0.67637897,-0.25504225,0.043819115,0.22813487,-0.056043282,-0.064662196,-0.0022686475,0.002186978,0.000578492,2.2805989,1.2659947,-0.89422464,-3.0580535,0.0,0.573866,0.056043282,0.005365183,0.0036763574,0.026362438,0.017438153,inf,inf,inf,inf,1,1,1,1,2,1,2,3,0,0,0
63248091,0,0.0,0.0,0.46141708,0.79227304,-0.5128528,0.1208579,0.67637897,-0.25504225,0.03797442,0.25673997,-0.03133784,-0.03759059,-0.0022686475,0.002186978,0.000578492,-1.0250045,-1.7343577,-0.08996552,-3.0617173,0.0,0.577472,0.03133784,0.0054192194,0.0037115684,0.02647867,0.017507235,inf,inf,inf,inf,1,1,1,1,2,1,2,3,0,0,0
63344870,0,0.0,0.0,0.46271676,0.83087444,-0.5146134,0.1208579,0.67637897,-0.25504225,0.04079046,0.27100918,-0.015842658,-0.020022979,-0.0022686475,0.002186978,0.000578492,-0.9518298,-2.121898,2.0590293,-3.0670831,0.0,0.5792326,0.015842658,0.005357811,0.0036705562,0.026371801,0.017435389,inf,inf,inf,inf,1,1,1,1,2,1,2,3,0,0,0
63448085,0,0.0,0.0,0.46473065,0.87016314,-0.51513565,0.1208579,0.67637897,-0.25504225,0.06608569,0.27954912,-0.027174043,-0.029571367,-0.0022686475,0.002186978,0.000578492,3.3354332,-0.56786525,-1.518258,-3.0740926,0.0,0.5797548,0.027174043,0.0053780554,0.0036845081,0.02632862,0.017388502,inf,inf,inf,inf,1,1,1,1,2,1,2,3,0,0,0
63552096,0,0.0,0.0,0.4682395,0.9044233,-0.51584446,0.1208579,0.67637897,-0.25504225,0.06438207,0.2750086,-0.022074165,-0.023333734,-0.0022686475,0.002186978,0.000578492,-4.116301,2.8619144,-1.0456564,-3.080321,0.0,0.58046365,0.022074165,0.0050836676,0.00349338,0.02560992,0.016984677,inf,inf,inf,inf,1,1,1,1,2,1,2,3,0,0,0
63648083,0,0.0,0.0,0.4723182,0.9307392,-0.5167483,0.1208579,0.67637897,-0.25504225,0.0808339,0.2628798,-0.017768467,-0.018726176,-0.0022686475,0.002186978,0.000578492,3.0503325,5.728323,-0.62330824,-3.0864952,0.0,0.5813675,0.017768467,0.0054028137,0.0036980547,0.026494239,0.01750735,inf,inf,inf,inf,1,1,1,1,2,1,2,3,0,0,0
63752076,0,0.0,0.0,0.4782179,0.95233506,-0.5181631,0.1208579,0.67637897,-0.25504225,0.085065335,0.19473079,-0.0045978,-0.0059714257,-0.0022686475,0.002186978,0.000578492,-0.3342453,-3.2788427,3.1812363,-3.0991976,0.0,0.58278227,0.0045978,0.0051169605,0.0035142305,0.025731346,0.017067268,inf,inf,inf,inf,1,1,1,1,2,1,2,3,0,0,0
63856070,0,0.0,0.0,0.4856041,0.966052,-0.520768,0.1208579,0.67637897,-0.25504225,0.09881749,0.15788175,-0.028021198,-0.030180838,-0.0022686475,0.002186978,0.000578492,3.3862479,-6.413433,-0.5919412,-3.1109126,0.0,0.5853872,0.028021198,0.005190116,0.0035623866,0.025889339,0.017161949,inf,inf,inf,inf,1,1,1,1,2,1,2,3,0,0,0
63952070,0,0.0,0.0,0.49413562,0.972113,-0.5244624,0.1208579,0.67637897,-0.25504225,0.098496385,0.13573371,-0.026298815,-0.0293604,-0.0022686475,0.002186978,0.000578492,-4.4875393,1.8248334,2.2334135,-3.12128,0.0,0.5890816,0.026298815,0.005122448,0.0035193851,0.025710337,0.017055038,inf,inf,inf,inf,1,1,1,1,2,1,2,3,0,0,0
64056083,0,0.0,0.0,0.5052684,0.97124064,-0.5300484,0.1208579,0.67637897,-0.25504225,0.10375356,0.085051164,-0.039150424,-0.043409154,-0.0022686475,0.002186978,0.000578492,-3.8712764,2.1822765,1.14041,-3.1333354,0.0,0.59466755,0.039150424,0.0051895073,0.0035631666,0.02588153,0.017142832,inf,inf,inf,inf,1,1,1,1,2,1,2,3,0,0,0
64159271,0,0.0,0.0,0.51821935,0.9652646,-0.53803223,0.1208579,0.67637897,-0.25504225,0.124620475,0.039310295,-0.073701374,-0.079281524,-0.0022686475,0.002186978,0.000578492,-2.9721875,2.9663982,0.07177379,-3.1402261,0.0,0.6026514,0.073701374,0.005251216,0.003602855,0.026055701,0.017235702,inf,inf,inf,inf,1,1,1,1,2,1,2,3,0,0,0
64263301,0,0.0,0.0,0.5328013,0.95414335,-0.5489821,0.1208579,0.67637897,-0.25504225,0.14478946,-0.017748024,-0.09672755,-0.103788406,-0.0022686475,0.002186978,0.000578492,-1.1950585,3.1602054,-2.8609204,-3.1374905,0.0,0.61360127,0.09672755,0.0053307028,0.0036527785,0.026315125,0.017362552,inf,inf,inf,inf,1,1,1,1,2,1,2,3,0,0,0
64359296,0,0.0,0.0,0.54696375,0.9407931,-0.5612378,0.1208579,0.67637897,-0.25504225,0.13052453,-0.041862104,-0.0947246,-0.10331966,-0.0022686475,0.002186978,0.000578492,-2.5875616,4.061738,0.87799543,-3.1327102,0.0,0.625857,0.0947246,0.0052601644,0.003604855,0.02616618,0.01725915,inf,inf,inf,inf,1,1,1,1,2,1,2,3,0,0,0
64463291,0,0.0,0.0,0.56185484,0.9230005,-0.57383204,0.1208579,0.67637897,-0.25504225,0.14463533,-0.10007387,-0.09513392,-0.10513244,-0.0022686475,0.002186978,0.000578492,-1.8004404,6.4181657,-2.275907,-3.1303878,0.0,0.6384512,0.09513392,0.0052642697,0.0036080973,0.026083488,0.017181091,inf,inf,inf,inf,1,1,1,1,2,1,2,3,0,0,0
64567286,0,0.0,0.0,0.57607484,0.9010583,-0.58480436,0.1208579,0.67637897,-0.25504225,0.14963388,-0.1655893,-0.07811104,-0.08857087,-0.0022686475,0.002186978,0.000578492,2.5961769,0.16613145,-4.2252684,-3.1333451,0.0,0.64942354,0.07811104,0.005282997,0.003619356,0.026125008,0.017242284,inf,inf,inf,inf,1,1,1,1,2,1,2,3,0,0,0
64663281,0,0.0,0.0,0.5885659,0.87704587,-0.592475,0.1208579,0.67637897,-0.25504225,0.14582354,-0.21324551,-0.055716813,-0.0654918,-0.0022686475,0.002186978,0.000578492,0.22246635,-1.7845474,-1.1369635,-3.1390023,0.0,0.6570942,0.055716813,0.0051585846,0.003539944,0.025797188,0.01707294,inf,inf,inf,inf,1,1,1,1,2,1,2,3,0,0,0
64767270,0,0.0,0.0,0.6008442,0.84800756,-0.59636235,0.1208579,0.67637897,-0.25504225,0.12200553,-0.2509895,-0.012466358,-0.020447453,-0.0022686475,0.002186978,0.000578492,0.94668084,-1.7790866,2.0525389,3.1380336,0.0,0.66098154,0.012466358,0.0052022166,0.003569055,0.025923554,0.017171044,inf,inf,inf,inf,1,1,1,1,2,1,2,3,0,0,0
64871270,0,0.0,0.0,0.6117648,0.8160411,-0.59607476,0.1208579,0.67637897,-0.25504225,0.10134366,-0.26123938,0.00915632,0.0037575285,-0.0022686475,0.002186978,0.000578492,-1.1546955,4.446737,2.690783,3.1348417,0.0,0.66069394,-0.00915632,0.005273412,0.0036155675,0.026117982,0.01730892,inf,inf,inf,inf,1,1,1,1,2,1,2,3,0,0,0
64967285,0,0.0,0.0,0.62135345,0.7844406,-0.5927076,0.1208579,0.67637897,-0.25504225,0.10331996,-0.28130773,0.034053072,0.031307355,-0.0022686475,0.002186978,0.000578492,-1.0916021,-0.4814846,3.3994112,3.134019,0.0,0.65732676,-0.034053072,0.0052032284,0.003571521,0.02592958,0.017198283,inf,inf,inf,inf,1,1,1,1,2,1,2,3,0,0,0
65071282,0,0.0,0.0,0.63037324,0.751292,-0.5854729,0.1208579,0.67637897,-0.25504225,0.087828055,-0.2721585,0.047842283,0.04764518,-0.0022686475,0.002186978,0.000578492,-1.293332,6.0449467,0.15910523,3.1323905,0.0,0.65009207,-0.047842283,0.005276699,0.0036197978,0.026125291,0.017316854,inf,inf,inf,inf,1,1,1,1,2,1,2,3,0,0,0
65174470,0,0.0,0.0,0.6375999,0.7187531,-0.5768207,0.1208579,0.67637897,-0.25504225,0.07860221,-0.28987956,0.0529562,0.05462268,-0.0022686475,0.002186978,0.000578492,-0.7787963,3.497617,-4.000005,3.1312275,0.0,0.64143986,-0.0529562,0.0053420966,0.0036619392,0.026288483,0.01739346,inf,inf,inf,inf,1,1,1,1,2,1,2,3,0,0,0
65278470,0,0.0,0.0,0.6435179,0.68924934,-0.5684118,0.1208579,0.67637897,-0.25504225,0.08561785,-0.26903322,0.053585216,0.0561636,-0.0022686475,0.002186978,0.000578492,0.16533373,0.2479558,-2.1224673,3.1301496,0.0,0.633031,-0.053585216,0.00541104,0.0037058431,0.02647686,0.017507024,inf,inf,inf,inf,1,1,1,1,2,1,2,3,0,0,0
65374473,0,0.0,0.0,0.6483906,0.6664069,-0.56091607,0.1208579,0.67637897,-0.25504225,0.054336216,-0.21585616,0.06675609,0.069029614,-0.0022686475,0.002186978,0.000578492,-4.6034493,2.0501783,0.8817498,3.136936,0.0,0.62553525,-0.06675609,0.00533611,0.0036578556,0.02630787,0.017409945,inf,inf,inf,inf,1,1,1,1,2,1,2,3,0,0,0
65478469,0,0.0,0.0,0.652814,0.64793247,-0.55348563,0.1208579,0.67637897,-0.25504225,0.040351387,-0.19263293,0.077842414,0.078765556,-0.0022686475,0.002186978,0.000578492,-5.630498,-0.27563316,2.041954,-3.1372848,0.0,0.6181048,-0.077842414,0.0054221842,0.0037118236,0.026554415,0.017514272,inf,inf,inf,inf,1,1,1,1,2,1,2,3,0,0,0
65582469,0,0.0,0.0,0.65577155,0.63617265,-0.54787433,0.1208579,0.67637897,-0.25504225,0.025711834,-0.1500523,0.055007,0.05410607,-0.0022686475,0.002186978,0.000578492,-2.6324697,0.5764228,0.36612117,-3.1297412,0.0,0.6124935,-0.055007,0.0051231175,0.0035182484,0.025750706,0.017049002,inf,inf,inf,inf,1,1,1,1,2,1,2,3,0,0,0
65686469,0,0.0,0.0,0.65816313,0.6301653,-0.54528487,0.1208579,0.67637897,-0.25504225,0.03107087,-0.119735286,0.047425803,0.044380683,-0.0022686475,0.002186978,0.000578492,2.7576642,-2.9005806,-0.20064823,-3.1278813,0.0,0.60990405,-0.047425803,0.0051918593,0.0035627375,0.0259134,0.017156245,inf,inf,inf,inf,1,1,1,1,2,1,2,3,0,0,0
65782469,0,0.0,0.0,0.65940624,0.6282298,-0.54337746,0.1208579,0.67637897,-0.25504225,0.013994364,-0.09029612,0.045140613,0.039751533,-0.0022686475,0.002186978,0.000578492,-3.6488657,0.23228763,-0.74981624,-3.126966,0.0,0.60799664,-0.045140613,0.0051235245,0.0035184112,0.025758253,0.01705262,inf,inf,inf,inf,1,1,1,1,2,1,2,3,0,0,0
65886486,0,0.0,0.0,0.66013956,0.6292475,-0.54340845,0.1208579,0.67637897,-0.25504225,0.013912525,-0.04998189,0.015842145,0.008164114,-0.0022686475,0.002186978,0.000578492,-0.01670564,3.3537943,-2.2059193,-3.128425,0.0,0.60802764,-0.015842145,0.005191863,0.003562536,0.025896734,0.01715276,inf,inf,inf,inf,1,1,1,1,2,1,2,3,0,0,0
65989670,0,0.0,0.0,0.6609528,0.63220596,-0.5467579,0.1208579,0.67637897,-0.25504225,0.010985062,-0.025068955,-0.012617221,-0.022122333,-0.0022686475,0.002186978,0.000578492,-1.3209037,5.0916266,-2.3453202,-3.1316843,0.0,0.61137706,0.012617221,0.005270404,0.0036137651,0.026114399,0.017283414,inf,inf,inf,inf,1,1,1,1,2,1,2,3,0,0,0
66093676,0,0.0,0.0,0.66164553,0.6358401,-0.55120254,0.1208579,0.67637897,-0.25504225,0.015572282,0.0030469955,-0.007831011,-0.019138137,-0.0022686475,0.002186978,0.000578492,1.2577116,5.2489634,-4.6998124,-3.130646,0.0,0.6158217,0.007831011,0.0053259167,0.0036495626,0.026277637,0.017351402,inf,inf,inf,inf,1,1,1,1,2,1,2,3,0,0,0
66189689,0,0.0,0.0,0.6625871,0.6406991,-0.55494726,0.1208579,0.67637897,-0.25504225,0.0022913965,0.024322279,0.008142425,-0.0045416495,-0.0022686475,0.002186978,0.000578492,-3.8594894,-4.692217,2.539553,-3.131434,0.0,0.61956644,-0.008142425,0.0052560093,0.0036030172,0.026098728,0.01725921,inf,inf,inf,inf,1,1,1,1,2,1,2,3,0,0,0
66293670,0,0.0,0.0,0.6639655,0.64600694,-0.55686474,0.1208579,0.67637897,-0.25504225,0.014431712,0.04268165,0.013105082,-5.060347e-05,-0.0022686475,0.002186978,0.000578492,1.202868,-4.492614,-1.1712515,-3.1326246,0.0,0.6214839,-0.013105082,0.005333968,0.0036540553,0.026266135,0.017373174,inf,inf,inf,inf,1,1,1,1,2,1,2,3,0,0,0
66397683,0,0.0,0.0,0.6660088,0.65455395,-0.5566548,0.1208579,0.67637897,-0.25504225,0.019645236,0.08779027,0.03295588,0.020572413,-0.0022686475,0.002186978,0.000578492,2.704165,-3.9892056,-1.8088827,-3.1342118,0.0,0.621274,-0.03295588,0.0053978437,0.0036967304,0.026366094,0.01746291,inf,inf,inf,inf,1,1,1,1,2,1,2,3,0,0,0
66493676,0,0.0,0.0,0.66847926,0.663718,-0.55433273,0.1208579,0.67637897,-0.25504225,0.0141260885,0.12163491,0.035977177,0.025135517,-0.0022686475,0.002186978,0.000578492,-2.85782,0.20110238,1.8636491,-3.1325655,0.0,0.6189519,-0.035977177,0.005309635,0.0036410235,0.026166886,0.017337812,inf,inf,inf,inf,1,1,1,1,2,1,2,3,0,0,0
66597670,0,0.0,0.0,0.6715574,0.67632353,-0.5508083,0.1208579,0.67637897,-0.25504225,0.005083768,0.1538062,0.034195296,0.025354177,-0.0022686475,0.002186978,0.000578492,-3.0209863,-2.1978145,1.2481297,-3.1295662,0.0,0.6154275,-0.034195296,0.0054051243,0.0037029197,0.026440596,0.017507087,inf,inf,inf,inf,1,1,1,1,2,1,2,3,0,0,0
66701669,0,0.0,0.0,0.6752854,0.69237757,-0.54861575,0.1208579,0.67637897,-0.25504225,0.011489905,0.17614183,0.018069528,0.010788967,-0.0022686475,0.002186978,0.000578492,-0.09415633,-1.9569645,1.1443952,-3.1243021,0.0,0.61323494,-0.018069528,0.0051145125,0.0035155958,0.02567794,0.01705329,inf,inf,inf,inf,1,1,1,1,2,1,2,3,0,0,0
66797676,0,0.0,0.0,0.67864126,0.7104107,-0.5479606,0.1208579,0.67637897,-0.25504225,0.015330499,0.2202495,0.0024290718,-0.004286288,-0.0022686475,0.002186978,0.000578492,-1.6113288,2.452037,-0.41281396,-3.1169257,0.0,0.61257976,-0.0024290718,0.005417608,0.0037108427,0.02649573,0.01751021,inf,inf,inf,inf,1,1,1,1,2,1,2,3,0,0,0
66900870,0,0.0,0.0,0.6817613,0.73212737,-0.54919106,0.1208579,0.67637897,-0.25504225,0.022737568,0.21722098,-0.003896711,-0.011007068,-0.0022686475,0.002186978,0.000578492,2.875446,-2.5108755,-0.85456514,-3.108357,0.0,0.61381024,0.003896711,0.005476577,0.0037481457,0.026639903,0.017580722,inf,inf,inf,inf,1,1,1,1,2,1,2,3,0,0,0
67004870,0,0.0,0.0,0.68389624,0.7555225,-0.55212456,0.1208579,0.67637897,-0.25504225,0.03140537,0.25659496,-0.019055247,-0.02714101,-0.0022686475,0.002186978,0.000578492,4.1430454,3.4903123,-0.9475034,-3.102213,0.0,0.61674374,0.019055247,0.005128391,0.0035233079,0.025678879,0.017027028,inf,inf,inf,inf,1,1,1,1,2,1,2,3,0,0,0
67108869,0,0.0,0.0,0.6851156,0.77887297,-0.55583996,0.1208579,0.67637897,-0.25504225,0.011929161,0.2372738,-0.013236251,-0.022274217,-0.0022686475,0.002186978,0.000578492,0.64301085,0.8094882,1.5935704,-3.0982695,0.0,0.62045914,0.013236251,0.005202885,0.0035708025,0.025915153,0.017169759,inf,inf,inf,inf,1,1,1,1,2,1,2,3,0,0,0
67204910,0,0.0,0.0,0.68562436,0.79950863,-0.56013346,0.1208579,0.67637897,-0.25504225,-0.011473256,0.2391784,-0.019728763,-0.02927159,-0.0022686475,0.002186978,0.000578492,-6.657631,-0.6355255,-0.5713723,-3.0944016,0.0,0.62475264,0.019728763,0.0051412396,0.003530468,0.025769161,0.017076967,inf,inf,inf,inf,1,1,1,1,2,1,2,3,0,0,0
67308877,0,0.0,0.0,0.68489224,0.8201907,-0.56482655,0.1208579,0.67637897,-0.25504225,-0.00039210392,0.22235821,-0.032003827,-0.041630197,-0.0022686475,0.002186978,0.000578492,0.926762,0.84850395,0.35071656,-3.0897927,0.0,0.62944573,0.032003827,0.005227598,0.003586018,0.026017433,0.017201,inf,inf,inf,inf,1,1,1,1,2,1,2,3,0,0,0
67412909,0,0.0,0.0,0.68262774,0.83866155,-0.56927216,0.1208579,0.67637897,-0.25504225,-0.020049334,0.21073613,-0.033021864,-0.042339884,-0.0022686475,0.002186978,0.000578492,-1.2237312,-3.8079083,-2.0274632,-3.0870368,0.0,0.63389134,0.033021864,0.0053019365,0.0036341154,0.02617567,0.017319886,inf,inf,inf,inf,1,1,1,1,2,1,2,3,0,0,0
67508870,0,0.0,0.0,0.6796912,0.8527703,-0.5731134,0.1208579,0.67637897,-0.25504225,-0.023981486,0.19697526,-0.025627546,-0.03440623,-0.0022686475,0.002186978,0.000578492,-0.30548573,-4.0145044,0.91881573,-3.0872536,0.0,0.63773257,0.025627546,0.005239029,0.0035929186,0.026049508,0.017244378,inf,inf,inf,inf,1,1,1,1,2,1,2,3,0,0,0
67612870,0,0.0,0.0,0.675931,0.86399895,-0.57663727,0.1208579,0.67637897,-0.25504225,-0.014608233,0.1606214,-0.037391044,-0.045386344,-0.0022686475,0.002186978,0.000578492,3.1788638,2.7094584,-1.8801109,-3.0913234,0.0,0.64125645,0.037391044,0.0053084143,0.0036381672,0.026196098,0.01732457,inf,inf,inf,inf,1,1,1,1,2,1,2,3,0,0,0
67708119,0,0.0,0.0,0.67256343,0.8708321,-0.58103585,0.1208579,0.67637897,-0.25504225,-0.03159039,0.15975796,-0.04693944,-0.054205384,-0.0022686475,0.002186978,0.000578492,-3.546987,3.0484397,-2.3165693,-3.0930347,0.0,0.64565504,0.04693944,0.0052253706,0.0035844792,0.025985368,0.017203255,inf,inf,inf,inf,1,1,1,1,2,1,2,3,0,0,0
67816079,0,0.0,0.0,0.668708,0.876165,-0.5880584,0.1208579,0.67637897,-0.25504225,-0.021401659,0.08604979,-0.058463305,-0.065395296,-0.0022686475,0.002186978,0.000578492,1.0842278,0.7212501,0.560143,-3.093491,0.0,0.6526776,0.058463305,0.0053411475,0.0036574085,0.026387105,0.01741179,inf,inf,inf,inf,1,1,1,1,2,1,2,3,0,0,0
67920085,0,0.0,0.0,0.6646166,0.8758614,-0.59589523,0.1208579,0.67637897,-0.25504225,-0.013459979,0.045509122,-0.079113334,-0.086292386,-0.0022686475,0.002186978,0.000578492,2.7358646,-1.197148,-0.4131626,-3.0950434,0.0,0.6605144,0.079113334,0.005443674,0.0037242689,0.026770322,0.01767171,inf,inf,inf,inf,1,1,1,1,2,1,2,3,0,0,0
68016119,0,0.0,0.0,0.6603794,0.8726895,-0.60366035,0.1208579,0.67637897,-0.25504225,-0.0366588,0.023865758,-0.05909565,-0.0667536,-0.0022686475,0.002186978,0.000578492,-3.3611884,-4.9667706,2.0186064,-3.0969267,0.0,0.6682795,0.05909565,0.00537648,0.0036807875,0.02657544,0.017553877,inf,inf,inf,inf,1,1,1,1,2,1,2,3,0,0,0
68120082,0,0.0,0.0,0.65616214,0.8659386,-0.6122322,0.1208579,0.67637897,-0.25504225,-0.029439893,-0.03005722,-0.077033885,-0.084961355,-0.0022686475,0.002186978,0.000578492,1.1982466,-2.1432471,-0.8885761,-3.1002975,0.0,0.6768514,0.077033885,0.00508241,0.0034923789,0.025682408,0.01704573,inf,inf,inf,inf,1,1,1,1,2,1,2,3,0,0,0
68224070,0,0.0,0.0,0.65232015,0.8567131,-0.6208701,0.1208579,0.67637897,-0.25504225,-0.02511262,-0.030148236,-0.08113304,-0.08889952,-0.0022686475,0.002186978,0.000578492,3.7924972,0.9950995,-2.2277365,-3.1037493,0.0,0.6854893,0.08113304,0.0051606535,0.0035439502,0.025831534,0.017140705,inf,inf,inf,inf,1,1,1,1,2,1,2,3,0,0,0
68320069,0,0.0,0.0,0.64919317,0.84583306,-0.6271144,0.1208579,0.67637897,-0.25504225,-0.04275489,-0.07574821,-0.04651758,-0.05380624,-0.0022686475,0.002186978,0.000578492,2.437947,-4.1744914,0.6558927,-3.104885,0.0,0.6917336,0.04651758,0.0054646973,0.0037401645,0.026609732,0.01758543,inf,inf,inf,inf,1,1,1,1,2,1,2,3,0,0,0
68424096,0,0.0,0.0,0.64663446,0.83286524,-0.63213784,0.1208579,0.67637897,-0.25504225,-0.025059335,-0.07048054,-0.039696213,-0.045944456,-0.0022686475,0.002186978,0.000578492,3.7512643,-2.3147745,-2.0086691,-3.1074684,0.0,0.696757,0.039696213,0.005167847,0.0035489504,0.025817968,0.01713091,inf,inf,inf,inf,1,1,1,1,2,1,2,3,0,0,0
