timestamp,x,y,z,yaw,yawspeed,vx,vy,vz,acc_x,acc_y,acc_z,jerk_x,jerk_y,jerk_z,thrust[0],thrust[1],thrust[2]
42361333,nan,nan,nan,-3.1217344,0.0,0.061774038,-0.3774309,-0.14859445,0.0,0.0,0.0,0.0,0.0,0.0,-0.008792728,0.0064327754,-0.5305635
42381207,nan,nan,nan,-3.1217344,0.0,0.0440937,-0.26940644,-0.14859445,0.0,0.0,0.0,0.0,0.0,0.0,-0.010078293,0.018493399,-0.5305331
42481152,0.5276628,0.8091041,nan,-3.1217344,0.0,-0.0044778585,0.024104843,-0.14859445,0.0,0.0,0.0,0.0,0.0,0.0,-0.019615548,0.050606776,-0.5351095
42581284,0.5276628,0.8091041,nan,-3.1217344,0.0,-0.017123561,0.08658014,-0.14859445,0.0,0.0,0.0,0.0,0.0,0.0,-0.019836983,0.056249492,-0.5394106
42681325,0.5276628,0.8091041,nan,-3.1217344,0.0,-0.03453976,0.15939364,-0.14859445,0.0,0.0,0.0,0.0,0.0,0.0,-0.017498545,0.05537903,-0.53504837
42781431,0.5276628,0.8091041,nan,-3.1217344,0.0,-0.053189237,0.2260981,-0.14859445,0.0,0.0,0.0,0.0,0.0,0.0,-0.02527225,0.04903434,-0.5409077
42881627,0.5276628,0.8091041,nan,-3.1217344,0.0,-0.07464564,0.29111528,-0.14859445,0.0,0.0,0.0,0.0,0.0,0.0,-0.023039553,0.047978338,-0.54538083
42981792,0.5276628,0.8091041,nan,-3.1217344,0.0,-0.09317689,0.3335339,-0.14859445,0.0,0.0,0.0,0.0,0.0,0.0,-0.020913973,0.025340911,-0.5394241
43081752,0.5276628,0.8091041,nan,-3.1217344,0.0,-0.10875675,0.34902552,-0.14859445,0.0,0.0,0.0,0.0,0.0,0.0,-0.01948729,0.014536572,-0.5361929
43181817,0.5276628,0.8091041,nan,-3.1217344,0.0,-0.12021453,0.33457658,-0.14859445,0.0,0.0,0.0,0.0,0.0,0.0,-0.024677085,-2.8938055e-05,-0.53429276
43281912,0.5276628,0.8091041,nan,-3.1217344,0.0,-0.12996536,0.2917603,-0.14859445,0.0,0.0,0.0,0.0,0.0,0.0,-0.026551787,-0.01877276,-0.53793484
43382072,nan,nan,nan,-3.1217344,0.0,0.0019894694,-0.10017024,-0.14859445,0.0,0.0,0.0,0.0,0.0,0.0,-0.014199192,-0.055868626,-0.5331642
43482060,nan,nan,nan,-3.1217344,0.0,0.011922024,-0.6002766,-0.14859445,0.0,0.0,0.0,0.0,0.0,0.0,-0.010226106,-0.10640729,-0.53571767
43582198,nan,nan,nan,-3.1217344,0.0,0.007631026,-0.38422394,-0.14859445,0.0,0.0,0.0,0.0,0.0,0.0,-0.012327123,-0.07226018,-0.5337011
43682229,0.67743605,0.7592622,nan,-3.1217344,0.0,0.00011641979,-0.013205492,-0.14859445,0.0,0.0,0.0,0.0,0.0,0.0,-0.003330337,-0.050460223,-0.5370402
43803032,0.67743605,0.7592622,nan,-3.1217344,0.0,0.0011841863,-0.066714086,-0.14859445,0.0,0.0,0.0,0.0,0.0,0.0,-0.009338193,-0.027971558,-0.54083526
43903438,0.67743605,0.7592622,nan,-3.1217344,0.0,0.0010967582,-0.08960134,-0.14859445,0.0,0.0,0.0,0.0,0.0,0.0,-0.014753642,-0.033016093,-0.54067314
44002737,0.67743605,0.7592622,nan,-3.1217344,0.0,-0.0019143015,-0.09380598,-0.14859445,0.0,0.0,0.0,0.0,0.0,0.0,-0.012140519,-0.0150972055,-0.54528433
44102902,0.67743605,0.7592622,nan,-3.1217344,0.0,-0.010651675,-0.07827691,-0.14859445,0.0,0.0,0.0,0.0,0.0,0.0,-0.012169074,-0.011475221,-0.5441468
44202818,0.67743605,0.7592622,nan,-3.1217344,0.0,-0.024628619,-0.052577294,-0.14859445,0.0,0.0,0.0,0.0,0.0,0.0,-0.020123905,-0.0070965714,-0.5350434
44302889,0.67743605,0.7592622,nan,-3.1217344,0.0,-0.046569444,-0.017840143,-0.44214696,0.0,0.0,0.0,0.0,0.0,0.0,-0.02514187,-0.00092417747,-0.594539
44403079,0.67743605,0.7592622,nan,-3.1217344,0.0,-0.0720647,0.014925515,-0.46101817,0.0,0.0,0.0,0.0,0.0,0.0,-0.028070245,0.0035150023,-0.59007084
44503354,0.67743605,0.7592622,nan,-3.1217344,0.0,-0.10198079,0.044522926,-0.46182764,0.0,0.0,0.0,0.0,0.0,0.0,-0.03946648,0.00048762094,-0.5813477
44603385,0.67743605,0.7592622,nan,-3.1217344,0.0,-0.13024849,0.06399051,-0.4618475,0.0,0.0,0.0,0.0,0.0,0.0,-0.03791893,-0.0041921027,-0.57609105
44703512,0.67743605,0.7592622,nan,-3.1217344,0.0,-0.15955842,0.072945885,-0.46184713,0.0,0.0,0.0,0.0,0.0,0.0,-0.04578737,-0.016839413,-0.5706886
44824151,0.67743605,0.7592622,nan,-3.1217344,0.0,-0.18915996,0.06717796,-0.4618475,0.0,0.0,0.0,0.0,0.0,0.0,-0.036573272,-0.01963786,-0.5761359
44923577,0.67743605,0.7592622,nan,-3.1217344,0.0,-0.20819613,0.053157467,-0.4618475,0.0,0.0,0.0,0.0,0.0,0.0,-0.037802473,-0.018104473,-0.5815871
45023712,0.67743605,0.7592622,nan,-3.1217344,0.0,-0.22368228,0.029920226,-0.4618475,0.0,0.0,0.0,0.0,0.0,0.0,-0.03938156,-0.025166426,-0.5912926
45123690,0.67743605,0.7592622,nan,-3.1217344,0.0,-0.23317078,0.0027926026,-0.4618475,0.0,0.0,0.0,0.0,0.0,0.0,-0.034208935,-0.03791806,-0.5998181
45223858,0.67743605,0.7592622,nan,-3.1217344,0.0,-0.23853588,-0.030083757,-0.4618475,0.0,0.0,0.0,0.0,0.0,0.0,-0.033014312,-0.038326044,-0.607199
45324007,0.67743605,0.7592622,nan,-3.1217344,0.0,-0.23946373,-0.061077412,-0.46184713,0.0,0.0,0.0,0.0,0.0,0.0,-0.03432451,-0.04704921,-0.6099001
45424104,0.67743605,0.7592622,nan,-3.1217344,0.0,-0.23630352,-0.093671106,-0.46184713,0.0,0.0,0.0,0.0,0.0,0.0,-0.038528815,-0.048125084,-0.61108625
45524245,0.67743605,0.7592622,nan,-3.1217344,0.0,-0.23067981,-0.12051006,-0.4618475,0.0,0.0,0.0,0.0,0.0,0.0,-0.02367619,-0.045851436,-0.6184497
45624346,0.67743605,0.7592622,nan,-3.1217344,0.0,-0.22194238,-0.14432079,-0.4618475,0.0,0.0,0.0,0.0,0.0,0.0,-0.024635311,-0.047246072,-0.61794233
45724337,0.67743605,0.7592622,nan,-3.1217344,0.0,-0.21253735,-0.16112567,-0.4618475,0.0,0.0,0.0,0.0,0.0,0.0,-0.021578768,-0.041158162,-0.6192838
45824518,0.67743605,0.7592622,nan,-3.1217344,0.0,-0.20243776,-0.17244008,-0.4618475,0.0,0.0,0.0,0.0,0.0,0.0,-0.018267892,-0.044314016,-0.6199367
45944603,0.67743605,0.7592622,nan,-3.1217344,0.0,-0.19209373,-0.17865862,-0.46184713,0.0,0.0,0.0,0.0,0.0,0.0,-0.020403776,-0.037471287,-0.6159108
46044649,0.67743605,0.7592622,nan,-3.1217344,0.0,-0.18576097,-0.1778939,-0.46184713,0.0,0.0,0.0,0.0,0.0,0.0,-0.027763182,-0.03956844,-0.6149596
46144799,0.67743605,0.7592622,nan,-3.1217344,0.0,-0.18122609,-0.17378756,-0.4618475,0.0,0.0,0.0,0.0,0.0,0.0,-0.023156567,-0.032726496,-0.6193638
46246120,0.67743605,0.7592622,nan,-3.1217344,0.0,-0.17773932,-0.16552714,-0.4618475,0.0,0.0,0.0,0.0,0.0,0.0,-0.024354529,-0.028053157,-0.62001085
46345041,0.67743605,0.7592622,nan,-3.1217344,0.0,-0.17525606,-0.15522133,-0.4618475,0.0,0.0,0.0,0.0,0.0,0.0,-0.030804094,-0.026795179,-0.6204356
46445290,0.67743605,0.7592622,nan,-3.1217344,0.0,-0.17285621,-0.14362647,-0.4618475,0.0,0.0,0.0,0.0,0.0,0.0,-0.03260957,-0.025501613,-0.62239385
46545228,0.67743605,0.7592622,nan,-3.1217344,0.0,-0.17059922,-0.1329086,-0.4618475,0.0,0.0,0.0,0.0,0.0,0.0,-0.02454019,-0.024434647,-0.6245054
46645416,0.67743605,0.7592622,nan,-3.1217344,0.0,-0.16821289,-0.12275578,-0.4618475,0.0,0.0,0.0,0.0,0.0,0.0,-0.025489531,-0.028409736,-0.6230408
46745364,0.67743605,0.7592622,nan,-3.1217344,0.0,-0.1660508,-0.115467705,-0.46184713,0.0,0.0,0.0,0.0,0.0,0.0,-0.021031007,-0.027025739,-0.6267166
46845575,0.67743605,0.7592622,nan,-3.1217344,0.0,-0.16328911,-0.10971716,-0.46184713,0.0,0.0,0.0,0.0,0.0,0.0,-0.025600739,-0.02554147,-0.6248033
46965613,0.67743605,0.7592622,nan,-3.1217344,0.0,-0.15911296,-0.10639529,-0.4618475,0.0,0.0,0.0,0.0,0.0,0.0,-0.02614523,-0.03135408,-0.6231827
47065861,0.67743605,0.7592622,nan,-3.1217344,0.0,-0.15457003,-0.106097385,-0.4618475,0.0,0.0,0.0,0.0,0.0,0.0,-0.022496583,-0.02712364,-0.62282616
47165940,0.67743605,0.7592622,nan,-3.1217344,0.0,-0.14826156,-0.10616358,-0.4618475,0.0,0.0,0.0,0.0,0.0,0.0,-0.02399142,-0.0261521,-0.6232878
47265929,0.67743605,0.7592622,nan,-3.1217344,0.0,-0.14124432,-0.10572242,-0.4618475,0.0,0.0,0.0,0.0,0.0,0.0,-0.022220008,-0.025962299,-0.62518084
47365992,0.67743605,0.7592622,nan,-3.1217344,0.0,-0.13231681,-0.103538245,-0.46184713,0.0,0.0,0.0,0.0,0.0,0.0,-0.016982816,-0.01847592,-0.6314267
47466075,0.67743605,0.7592622,nan,-3.1217344,0.0,-0.12335339,-0.100101426,-0.46184713,0.0,0.0,0.0,0.0,0.0,0.0,-0.01924011,-0.017871602,-0.63325226
47566143,0.67743605,0.7592622,nan,-3.1217344,0.0,-0.112392716,-0.09257344,-0.46184713,0.0,0.0,0.0,0.0,0.0,0.0,-0.013968658,-0.017173734,-0.6383537
47666224,0.67743605,0.7592622,nan,-3.1217344,0.0,-0.09990036,-0.08220426,-0.4618475,0.0,0.0,0.0,0.0,0.0,0.0,-0.015405092,-0.018461376,-0.6368099
47766396,0.67743605,0.7592622,nan,-3.1217344,0.0,-0.08706343,-0.06886678,-0.4618475,0.0,0.0,0.0,0.0,0.0,0.0,-0.008356424,-0.012261348,-0.6406608
47866814,0.67743605,0.7592622,nan,-3.1217344,0.0,-0.07131675,-0.052705493,-0.46350652,0.0,0.0,0.0,0.0,0.0,0.0,-0.0040223375,-0.010054725,-0.6405045
47966939,0.67743605,0.7592622,nan,-3.1217344,0.0,-0.05582482,-0.03671034,-0.47335398,0.0,0.0,0.0,0.0,0.0,0.0,-0.011301543,-0.009555562,-0.64259005
48066966,0.67743605,0.7592622,nan,-3.1217344,0.0,-0.038283143,-0.021392928,-0.75404024,0.0,0.0,0.0,0.0,0.0,0.0,-0.00603061,-0.010103523,-0.69291496
48166941,0.67743605,0.7592622,nan,-3.1217344,0.0,-0.023136394,-0.0087501705,-0.7302051,0.0,0.0,0.0,0.0,0.0,0.0,-0.01002991,-0.012332754,-0.6797074
48287015,0.67743605,0.7592622,nan,-3.1217344,0.0,-0.0066296426,0.0014181584,-0.7110279,0.0,0.0,0.0,0.0,0.0,0.0,-0.010454293,-0.016737655,-0.6623757
48387070,0.67743605,0.7592622,nan,-3.1217344,0.0,0.0056011737,0.0044976203,-0.71084315,0.0,0.0,0.0,0.0,0.0,0.0,-0.014745866,-0.019413523,-0.6543653
48488377,0.67743605,0.7592622,nan,-3.1217344,0.0,0.015149578,0.0022951572,-0.71084315,0.0,0.0,0.0,0.0,0.0,0.0,-0.015530879,-0.02288095,-0.651997
48587381,0.67743605,0.7592622,nan,-3.1217344,0.0,0.021622485,-0.0034309297,-0.7108435,0.0,0.0,0.0,0.0,0.0,0.0,-0.010042876,-0.023596361,-0.6447811
48688320,0.67743605,0.7592622,nan,-3.1217344,0.0,0.025929904,-0.011817175,-0.7108435,0.0,0.0,0.0,0.0,0.0,0.0,-0.016290981,-0.02121296,-0.6438213
48787544,0.67743605,0.7592622,nan,-3.1217344,0.0,0.027802642,-0.020523574,-0.7108435,0.0,0.0,0.0,0.0,0.0,0.0,-0.00952455,-0.025812773,-0.64658636
48887647,0.67743605,0.7592622,nan,-3.1217344,0.0,0.028655576,-0.029333541,-0.7108435,0.0,0.0,0.0,0.0,0.0,0.0,-0.0067165913,-0.024737246,-0.6551034
48987645,0.67743605,0.7592622,nan,-3.1217344,0.0,0.02910642,-0.034904532,-0.7108435,0.0,0.0,0.0,0.0,0.0,0.0,-0.013368461,-0.023925692,-0.6598332
49087738,0.67743605,0.7592622,nan,-3.1217344,0.0,0.029809581,-0.038006306,-0.7108435,0.0,0.0,0.0,0.0,0.0,0.0,-0.013585606,-0.020543875,-0.6649821
49208244,0.67743605,0.7592622,nan,-3.1217344,0.0,0.031938378,-0.035746086,-0.7108435,0.0,0.0,0.0,0.0,0.0,0.0,-0.012858838,-0.01593142,-0.6776228
49308093,0.67743605,0.7592622,nan,-3.1217344,0.0,0.035314493,-0.030982556,-0.7108435,0.0,0.0,0.0,0.0,0.0,0.0,-0.006801093,-0.018504072,-0.6860061
49408186,0.67743605,0.7592622,nan,-3.1217344,0.0,0.03982191,-0.02383548,-0.7108435,0.0,0.0,0.0,0.0,0.0,0.0,-0.013360587,-0.016532373,-0.69075835
49508198,0.67743605,0.7592622,nan,-3.1217344,0.0,0.045170937,-0.014266181,-0.7108435,0.0,0.0,0.0,0.0,0.0,0.0,-0.009831715,-0.02149601,-0.6957172
49608341,0.67743605,0.7592622,nan,-3.1217344,0.0,0.04986691,-0.004911658,-0.7108435,0.0,0.0,0.0,0.0,0.0,0.0,-0.007861052,-0.014562215,-0.69853127
49708396,0.67743605,0.7592622,nan,-3.1217344,0.0,0.05376086,0.005497268,-0.7108435,0.0,0.0,0.0,0.0,0.0,0.0,-0.01167185,-0.014392352,-0.69964266
49808488,0.67743605,0.7592622,nan,-3.1217344,0.0,0.056160998,0.0139041245,-0.7108435,0.0,0.0,0.0,0.0,0.0,0.0,-0.009614423,-0.00934884,-0.6990128
49908486,0.67743605,0.7592622,nan,-3.1217344,0.0,0.056994338,0.022215173,-0.7108435,0.0,0.0,0.0,0.0,0.0,0.0,-0.009948604,-0.0106603475,-0.6961149
50008750,0.67743605,0.7592622,nan,-3.1217344,0.0,0.056752212,0.028522396,-0.7108435,0.0,0.0,0.0,0.0,0.0,0.0,-0.014357632,-0.012242617,-0.68972784
50128916,0.67743605,0.7592622,nan,-3.1217344,0.0,0.0555165,0.03482135,-0.7108435,0.0,0.0,0.0,0.0,0.0,0.0,-0.008233537,-0.011824679,-0.69156456
50229183,0.67743605,0.7592622,nan,-3.1217344,0.0,0.05348091,0.039336186,-0.7108435,0.0,0.0,0.0,0.0,0.0,0.0,-0.01767919,-0.0088588735,-0.69102573
50330174,0.67743605,0.7592622,nan,-3.1217344,0.0,0.05134322,0.04277629,-0.7108435,0.0,0.0,0.0,0.0,0.0,0.0,-0.009677563,-0.010849074,-0.69555914
50429188,0.67743605,0.7592622,nan,-3.1217344,0.0,0.05025128,0.04589765,-0.7108435,0.0,0.0,0.0,0.0,0.0,0.0,-0.013208144,-0.01019378,-0.69701326
50530110,0.67743605,0.7592622,nan,-3.1217344,0.0,0.049920704,0.048835214,-0.7108435,0.0,0.0,0.0,0.0,0.0,0.0,-0.013977581,-0.0089627635,-0.70017517
50629275,0.67743605,0.7592622,nan,-3.1217344,0.0,0.050690457,0.051029354,-0.7108435,0.0,0.0,0.0,0.0,0.0,0.0,-0.008002457,-0.013193648,-0.70106804
50729438,0.67743605,0.7592622,nan,-3.1217344,0.0,0.052903283,0.05435128,-0.7108435,0.0,0.0,0.0,0.0,0.0,0.0,-0.010916719,-0.011819963,-0.7005453
50829404,0.67743605,0.7592622,nan,-3.1217344,0.0,0.055806868,0.057344902,-0.7108435,0.0,0.0,0.0,0.0,0.0,0.0,-0.0056799166,-0.0130706765,-0.7020692
50929490,0.67743605,0.7592622,nan,-3.1217344,0.0,0.05944272,0.061697677,-0.7108435,0.0,0.0,0.0,0.0,0.0,0.0,-0.007653774,-0.0051884092,-0.6988015
51029755,0.67743605,0.7592622,nan,-3.1217344,0.0,0.06367364,0.06717586,-0.7108435,0.0,0.0,0.0,0.0,0.0,0.0,-0.0023225555,-0.006790798,-0.6976647
51850507,0.67743605,0.7592622,nan,-3.1217344,0.0,0.087992355,0.13008241,-0.7028112,0.0,0.0,0.0,0.0,0.0,0.0,-0.0048981328,0.00061470363,-0.72559595
51950949,0.67743605,0.7592622,nan,-3.1217344,0.0,0.08763058,0.13503042,-0.7028112,0.0,0.0,0.0,0.0,0.0,0.0,-0.0079618655,-0.0012232568,-0.72626805
52050930,0.67743605,0.7592622,nan,-3.1217344,0.0,0.086197756,0.13833643,-0.7028112,0.0,0.0,0.0,0.0,0.0,0.0,-0.00928114,-0.00072527584,-0.7281004
52150924,0.67743605,0.7592622,nan,-3.1217344,0.0,0.084315106,0.13986246,-0.7028112,0.0,0.0,0.0,0.0,0.0,0.0,-0.0057833865,0.00023498014,-0.72673523
52250942,0.67743605,0.7592622,nan,-3.1217344,0.0,0.08229481,0.14030714,-0.7028112,0.0,0.0,0.0,0.0,0.0,0.0,-0.0022895932,-0.0019818246,-0.72545385
52370977,0.67743605,0.7592622,nan,-3.1217344,0.0,0.07955062,0.13833049,-0.7028112,0.0,0.0,0.0,0.0,0.0,0.0,-0.001474564,-0.0032087415,-0.72646785
52471024,0.67743605,0.7592622,nan,-3.1217344,0.0,0.07724328,0.1351396,-0.7028112,0.0,0.0,0.0,0.0,0.0,0.0,-0.009953369,-0.0012794835,-0.7208695
52571406,0.67743605,0.7592622,nan,-3.1217344,0.0,0.074944615,0.13117838,-0.7028112,0.0,0.0,0.0,0.0,0.0,0.0,-0.0144902095,-0.004712384,-0.7220022
52671415,0.67743605,0.7592622,nan,-3.1217344,0.0,0.07274578,0.12735856,-0.7028112,0.0,0.0,0.0,0.0,0.0,0.0,-0.005063204,-0.0059160176,-0.7261687
52771442,0.67743605,0.7592622,nan,-3.1217344,0.0,0.07056698,0.123158604,-0.7028112,0.0,0.0,0.0,0.0,0.0,0.0,-0.0043636025,-0.004496119,-0.7282995
52871787,0.67743605,0.7592622,nan,-3.1217344,0.0,0.06829006,0.11879989,-0.7028112,0.0,0.0,0.0,0.0,0.0,0.0,-0.0029073078,-0.006723217,-0.7328334
52971672,0.67743605,0.7592622,nan,-3.1217344,0.0,0.06634716,0.114442125,-0.7028112,0.0,0.0,0.0,0.0,0.0,0.0,-0.0067699314,-0.006796948,-0.7393023
53071617,0.67743605,0.7592622,nan,-3.1217344,0.0,0.0646195,0.10964072,-0.7028112,0.0,0.0,0.0,0.0,0.0,0.0,-0.001151517,-0.0060118623,-0.7418949
53171736,0.67743605,0.7592622,nan,-3.1217344,0.0,0.06356911,0.10534049,-0.7028112,0.0,0.0,0.0,0.0,0.0,0.0,-0.011099706,-0.0053908965,-0.74192786
53271825,0.67743605,0.7592622,nan,-3.1217344,0.0,0.061915454,0.10142927,-0.7028112,0.0,0.0,0.0,0.0,0.0,0.0,-0.0046955105,-0.0019044951,-0.7473902
53371981,0.67743605,0.7592622,nan,-3.1217344,0.0,0.059356425,0.09914776,-0.7028112,0.0,0.0,0.0,0.0,0.0,0.0,-0.016265191,-0.0046788095,-0.7432028
53472189,0.67743605,0.7592622,nan,-3.1217344,0.0,0.055579636,0.097793415,-0.7028112,0.0,0.0,0.0,0.0,0.0,0.0,-0.013208019,-0.0015093843,-0.749313
53592237,0.67743605,0.7592622,nan,-3.1217344,0.0,0.049957737,0.09845309,-0.7028112,0.0,0.0,0.0,0.0,0.0,0.0,-0.008721753,-0.0025979914,-0.75437844
53692429,0.67743605,0.7592622,nan,-3.1217344,0.0,0.045082204,0.09953745,-0.7028112,0.0,0.0,0.0,0.0,0.0,0.0,-0.013804926,-0.0046697627,-0.7530029
53792460,0.67743605,0.7592622,nan,-3.1217344,0.0,0.03933013,0.10116738,-0.7028112,0.0,0.0,0.0,0.0,0.0,0.0,-0.012292421,-0.0038252515,-0.7540233
53892505,0.67743605,0.7592622,nan,-3.1217344,0.0,0.0329434,0.10268424,-0.7028112,0.0,0.0,0.0,0.0,0.0,0.0,-0.013041184,-0.0024132617,-0.75306815
53992612,0.67743605,0.7592622,nan,-3.1217344,0.0,0.026647221,0.104921125,-0.7028112,0.0,0.0,0.0,0.0,0.0,0.0,-0.019981503,-0.004313601,-0.7539267
54092660,0.67743605,0.7592622,nan,-3.1217344,0.0,0.021585396,0.10678877,-0.7028112,0.0,0.0,0.0,0.0,0.0,0.0,-0.009785273,-2.6831403e-06,-0.7611346
54193461,0.67743605,0.7592622,nan,-3.1217344,0.0,0.017945806,0.108838856,-0.7028112,0.0,0.0,0.0,0.0,0.0,0.0,-0.005972282,0.0030240696,-0.7585019
54293388,0.67743605,0.7592622,nan,-3.1217344,0.0,0.016155114,0.1098175,-0.7028112,0.0,0.0,0.0,0.0,0.0,0.0,-0.015280414,-0.0038358006,-0.75565326
54393784,0.67743605,0.7592622,nan,-3.1217344,0.0,0.015614805,0.109056525,-0.7028112,0.0,0.0,0.0,0.0,0.0,0.0,-0.014380587,-0.00372749,-0.7583198
54493402,0.67743605,0.7592622,nan,-3.1217344,0.0,0.01746427,0.106809385,-0.7028112,0.0,0.0,0.0,0.0,0.0,0.0,-0.010921044,-0.006262892,-0.7602596
54593796,0.67743605,0.7592622,nan,-3.1217344,0.0,0.020342546,0.10198419,-0.7028112,0.0,0.0,0.0,0.0,0.0,0.0,-0.004458595,-0.011200818,-0.7625154
54693426,0.67743605,0.7592622,nan,-3.1217344,0.0,0.024870517,0.09243726,-0.7028112,0.0,0.0,0.0,0.0,0.0,0.0,-0.0014709039,-0.009743051,-0.7628413
54793594,0.67743605,0.7592622,nan,-3.1217344,0.0,0.029963033,0.07963181,-0.7028112,0.0,0.0,0.0,0.0,0.0,0.0,-0.0062906076,-0.019068856,-0.765331
54913605,0.67743605,0.7592622,nan,-3.1217344,0.0,0.03584427,0.059304446,-0.7028112,0.0,0.0,0.0,0.0,0.0,0.0,-0.004321828,-0.017537769,-0.76534885
55013743,0.67743605,0.7592622,nan,-3.1217344,0.0,0.04026709,0.039132394,-0.7028112,0.0,0.0,0.0,0.0,0.0,0.0,-0.0072189746,-0.021706969,-0.7622018
55113831,0.67743605,0.7592622,nan,-3.1217344,0.0,0.04390051,0.020264348,-0.7028112,0.0,0.0,0.0,0.0,0.0,0.0,-0.0030866428,-0.022175692,-0.76085734
55214882,0.67743605,0.7592622,nan,-3.1217344,0.0,0.046808343,0.0015690058,-0.7028112,0.0,0.0,0.0,0.0,0.0,0.0,-0.0002093967,-0.017375115,-0.75937223
55314125,0.67743605,0.7592622,nan,-3.1217344,0.0,0.049239796,-0.012219095,-0.7028112,0.0,0.0,0.0,0.0,0.0,0.0,-0.0066296724,-0.020224605,-0.75506985
55414054,0.67743605,0.7592622,nan,-3.1217344,0.0,0.05146406,-0.022202374,-0.7028112,0.0,0.0,0.0,0.0,0.0,0.0,0.000980041,-0.016812876,-0.7574755
55514260,0.67743605,0.7592622,nan,-3.1217344,0.0,0.052990768,-0.027274678,-0.7028112,0.0,0.0,0.0,0.0,0.0,0.0,-0.0014293967,-0.014974513,-0.7614255
55614243,0.67743605,0.7592622,nan,-3.1217344,0.0,0.05443186,-0.026953787,-0.6941737,0.0,0.0,0.0,0.0,0.0,0.0,-0.002979165,-0.009702837,-0.75876224
55714503,0.67743605,0.7592622,nan,-3.1217344,0.0,0.05608365,-0.022846194,-0.6864088,0.0,0.0,0.0,0.0,0.0,0.0,-0.0029403553,-0.011798934,-0.7576209
55814599,0.67743605,0.7592622,nan,-3.1217344,0.0,0.057490595,-0.012698081,-0.6867549,0.0,0.0,0.0,0.0,0.0,0.0,-0.0036425116,-0.0041456516,-0.7556931
55914688,0.67743605,0.7592622,nan,-3.1217344,0.0,0.058869343,0.00015316904,-0.68674695,0.0,0.0,0.0,0.0,0.0,0.0,-0.002046411,0.0035725143,-0.755277
56014701,0.67743605,0.7592622,nan,-3.1217344,0.0,0.05982669,0.017588448,-0.68115646,0.0,0.0,0.0,0.0,0.0,0.0,0.007431332,0.0050889915,-0.7586554
56114826,0.67743605,0.7592622,nan,-3.1217344,0.0,0.059987675,0.034856346,-0.6787762,0.0,0.0,0.0,0.0,0.0,0.0,-0.0037725698,0.008891164,-0.75629455
56235217,0.67743605,0.7592622,nan,-3.1217344,0.0,0.06067685,0.057964824,-0.678715,0.0,0.0,0.0,0.0,0.0,0.0,0.00087036006,0.008422652,-0.7607024
56335069,0.67743605,0.7592622,nan,-3.1217344,0.0,0.06176625,0.07633797,-0.678715,0.0,0.0,0.0,0.0,0.0,0.0,-0.0023339903,0.011863701,-0.7627811
56435721,0.67743605,0.7592622,nan,-3.1217344,0.0,0.06347891,0.095547356,-0.678715,0.0,0.0,0.0,0.0,0.0,0.0,-0.005445312,0.0139773255,-0.7596153
56535126,0.67743605,0.7592622,nan,-3.1217344,0.0,0.06473292,0.11131787,-0.678715,0.0,0.0,0.0,0.0,0.0,0.0,-0.0031568543,0.015883286,-0.75972474
56635362,0.67743605,0.7592622,nan,-3.1217344,0.0,0.06458569,0.12519239,-0.670337,0.0,0.0,0.0,0.0,0.0,0.0,-0.004517132,0.01844006,-0.7558199
56736804,0.67743605,0.7592622,nan,-3.1217344,0.0,0.06336215,0.13674189,-0.66741717,0.0,0.0,0.0,0.0,0.0,0.0,-0.0015233541,0.01530551,-0.7500981
56835548,0.67743605,0.7592622,nan,-3.1217344,0.0,0.06145102,0.1440593,-0.40549484,0.0,0.0,0.0,0.0,0.0,0.0,-0.0057371506,0.012317808,-0.69390833
56937010,0.67743605,0.7592622,nan,-3.1217344,0.0,0.057961542,0.14956348,-0.41354147,0.0,0.0,0.0,0.0,0.0,0.0,-0.011306139,0.01067658,-0.6944518
57035703,0.67743605,0.7592622,nan,-3.1217344,0.0,0.053717427,0.15175009,-0.4136563,0.0,0.0,0.0,0.0,0.0,0.0,-0.0053981775,0.008614479,-0.6987964
57136594,0.67743605,0.7592622,nan,-3.1217344,0.0,0.048413645,0.14902401,-0.41365474,0.0,0.0,0.0,0.0,0.0,0.0,-0.00947396,0.0076414444,-0.7099918
57235862,0.67743605,0.7592622,nan,-3.1217344,0.0,0.043209806,0.14201736,-0.4052767,0.0,0.0,0.0,0.0,0.0,0.0,-0.010757053,0.0007434101,-0.7155032
57356174,0.67743605,0.7592622,nan,-3.1217344,0.0,0.036482032,0.12778494,-0.40563,0.0,0.0,0.0,0.0,0.0,0.0,-0.013774566,-0.005372863,-0.72408783
57456232,0.67743605,0.7592622,nan,-3.1217344,0.0,0.031166019,0.10968047,-0.40562284,0.0,0.0,0.0,0.0,0.0,0.0,-0.009816912,-0.012165068,-0.7357874
57556323,0.67743605,0.7592622,nan,-3.1217344,0.0,0.02688476,0.0890954,-0.40562242,0.0,0.0,0.0,0.0,0.0,0.0,-0.015371526,-0.019017706,-0.74029076
57656442,0.67743605,0.7592622,nan,-3.1217344,0.0,0.022760918,0.063490294,-0.40562242,0.0,0.0,0.0,0.0,0.0,0.0,-0.012984761,-0.025846517,-0.74938464
57756459,0.67743605,0.7592622,nan,-3.1217344,0.0,0.018508935,0.037144993,-0.33566642,0.0,0.0,0.0,0.0,0.0,0.0,-0.01281491,-0.030172588,-0.7408322
57856482,0.67743605,0.7592622,nan,-3.1217344,0.0,0.013022822,0.007985344,-0.13850299,0.0,0.0,0.0,0.0,0.0,0.0,-0.012113515,-0.029556338,-0.70750195
57956615,0.67743605,0.7592622,nan,-3.1217344,0.0,0.0074491114,-0.018971216,-0.14050055,0.0,0.0,0.0,0.0,0.0,0.0,-0.013900307,-0.034061212,-0.717199
58056656,0.67743605,0.7592622,nan,-3.1217344,0.0,0.0014883727,-0.045088716,-0.14056094,0.0,0.0,0.0,0.0,0.0,0.0,-0.013826369,-0.03114666,-0.7231333
58157424,0.67743605,0.7592622,nan,-3.1217344,0.0,-0.004302606,-0.06853411,-0.14056213,0.0,0.0,0.0,0.0,0.0,0.0,-0.015023537,-0.03361781,-0.73057365
58257329,0.67743605,0.7592622,nan,-3.1217344,0.0,-0.009890303,-0.087084495,-0.14056213,0.0,0.0,0.0,0.0,0.0,0.0,-0.013120959,-0.029210301,-0.7361495
58357827,0.67743605,0.7592622,nan,-3.1217344,0.0,-0.01604515,-0.10174591,-0.14056213,0.0,0.0,0.0,0.0,0.0,0.0,-0.010313449,-0.030758614,-0.74288136
58457758,0.67743605,0.7592622,nan,-3.1217344,0.0,-0.02129882,-0.11050118,-0.14056213,0.0,0.0,0.0,0.0,0.0,0.0,-0.018701902,-0.026018253,-0.7447222
58557864,0.67743605,0.7592622,nan,-3.1217344,0.0,-0.02573602,-0.11326128,-0.14056213,0.0,0.0,0.0,0.0,0.0,0.0,-0.017389651,-0.019545548,-0.7477067
58677429,0.67743605,0.7592622,nan,-3.1217344,0.0,-0.029396677,-0.10876513,-0.14056213,0.0,0.0,0.0,0.0,0.0,0.0,-0.013358937,-0.011274034,-0.74706805
58778011,0.67743605,0.7592622,nan,-3.1217344,0.0,-0.032874208,-0.09987771,-0.14056213,0.0,0.0,0.0,0.0,0.0,0.0,-0.020298267,-0.0075753694,-0.74363166
58877713,0.67743605,0.7592622,nan,-3.1217344,0.0,-0.037953418,-0.08227957,-0.14056213,0.0,0.0,0.0,0.0,0.0,0.0,-0.016572034,-0.00039047562,-0.74404836
58980500,0.67743605,0.7592622,nan,-3.1217344,0.0,-0.044862274,-0.059427265,-0.14056213,0.0,0.0,0.0,0.0,0.0,0.0,-0.018956557,-0.0013511451,-0.74265575
59077868,0.67743605,0.7592622,nan,-3.1217344,0.0,-0.05258975,-0.03464446,-0.14056213,0.0,0.0,0.0,0.0,0.0,0.0,-0.020315144,0.021658273,-0.74142706
59179809,0.67743605,0.7592622,nan,-3.1217344,0.0,-0.061489638,-0.002976972,-0.14056213,0.0,0.0,0.0,0.0,0.0,0.0,-0.024527643,0.018359564,-0.74101126
59277994,0.67743605,0.7592622,nan,-3.1217344,0.0,-0.069674924,0.026754241,-0.14056213,0.0,0.0,0.0,0.0,0.0,0.0,-0.02018116,0.02464401,-0.74375963
59379390,0.67743605,0.7592622,nan,-3.1217344,0.0,-0.0779952,0.058479372,-0.14056213,0.0,0.0,0.0,0.0,0.0,0.0,-0.021218251,0.018859329,-0.73808795
59478269,0.67743605,0.7592622,nan,-3.1217344,0.0,-0.08504551,0.085034184,-0.14056213,0.0,0.0,0.0,0.0,0.0,0.0,-0.01893947,0.021252457,-0.7337668
59578415,0.67743605,0.7592622,nan,-3.1217344,0.0,-0.09069447,0.108981326,-0.14056213,0.0,0.0,0.0,0.0,0.0,0.0,-0.019148082,0.024638098,-0.7325171
59678528,0.67743605,0.7592622,nan,-3.1217344,0.0,-0.092545636,0.12606671,-0.14056213,0.0,0.0,0.0,0.0,0.0,0.0,-0.015755618,0.019118777,-0.73172545
59778634,0.67743605,0.7592622,nan,-3.1217344,0.0,-0.08908192,0.13707179,-0.14056213,0.0,0.0,0.0,0.0,0.0,0.0,-0.009477009,0.018962093,-0.7320646
59878655,0.67743605,0.7592622,nan,-3.1217344,0.0,-0.078475036,0.14095572,-0.14056213,0.0,0.0,0.0,0.0,0.0,0.0,-0.0025436338,0.0106250215,-0.73463964
59978673,0.67743605,0.7592622,nan,-3.1217344,0.0,-0.06273606,0.13946927,-0.14056213,0.0,0.0,0.0,0.0,0.0,0.0,0.0044933744,0.005375827,-0.737691
60098734,0.67743605,0.7592622,nan,-3.1217344,0.0,-0.038107608,0.12932432,-0.14056213,0.0,0.0,0.0,0.0,0.0,0.0,0.007544496,0.0013436992,-0.73686796
60198755,0.67743605,0.7592622,nan,-3.1217344,0.0,-0.015182081,0.11541414,-0.14056213,0.0,0.0,0.0,0.0,0.0,0.0,0.00972691,-0.009756408,-0.7354137
60298843,0.67743605,0.7592622,nan,-3.1217344,0.0,0.0060889362,0.097681075,-0.14056213,0.0,0.0,0.0,0.0,0.0,0.0,0.011144759,-0.0065064346,-0.739604
60398961,0.67743605,0.7592622,nan,-3.1217344,0.0,0.029265875,0.07562094,-0.14056213,0.0,0.0,0.0,0.0,0.0,0.0,0.014390255,-0.015174448,-0.7379632
60499038,0.67743605,0.7592622,nan,-3.1217344,0.0,0.0497121,0.052929047,-0.14056213,0.0,0.0,0.0,0.0,0.0,0.0,0.008630529,-0.018942777,-0.7365344
60599377,0.67743605,0.7592622,nan,-3.1217344,0.0,0.06934163,0.026121464,-0.14056213,0.0,0.0,0.0,0.0,0.0,0.0,0.008589868,-0.025253164,-0.7334031
60700932,0.67743605,0.7592622,nan,-3.1217344,0.0,0.08479602,-0.0008016884,-0.14056213,0.0,0.0,0.0,0.0,0.0,0.0,0.0077713253,-0.028554037,-0.7252794
60799511,0.67743605,0.7592622,nan,-3.1217344,0.0,0.09524736,-0.026472932,-0.14056213,0.0,0.0,0.0,0.0,0.0,0.0,0.0134571,-0.034574576,-0.72467005
60899764,0.67743605,0.7592622,nan,-3.1217344,0.0,0.10301815,-0.053654123,-0.14056213,0.0,0.0,0.0,0.0,0.0,0.0,0.012028053,-0.030621601,-0.7217788
60999627,0.67743605,0.7592622,nan,-3.1217344,0.0,0.10840789,-0.07641158,-0.14056213,0.0,0.0,0.0,0.0,0.0,0.0,0.008912127,-0.03783699,-0.7136292
61099733,0.67743605,0.7592622,nan,-3.1217344,0.0,0.11330199,-0.09873236,-0.14056213,0.0,0.0,0.0,0.0,0.0,0.0,0.013389641,-0.034708068,-0.7060151
61220124,0.67743605,0.7592622,nan,-3.1217344,0.0,0.1183927,-0.12043865,-0.14056213,0.0,0.0,0.0,0.0,0.0,0.0,0.010673906,-0.030523041,-0.69652754
61319866,0.67743605,0.7592622,nan,-3.1217344,0.0,0.12304474,-0.13449119,-0.14056213,0.0,0.0,0.0,0.0,0.0,0.0,0.016019003,-0.033507876,-0.6929537
61420111,0.67743605,0.7592622,nan,-3.1217344,0.0,0.13018104,-0.14438188,-0.14056213,0.0,0.0,0.0,0.0,0.0,0.0,0.019393373,-0.02724626,-0.69422275
61520277,0.67743605,0.7592622,nan,-3.1217344,0.0,0.13905641,-0.14796321,-0.14056213,0.0,0.0,0.0,0.0,0.0,0.0,0.01594796,-0.03058112,-0.69477636
61621280,0.67743605,0.7592622,nan,-3.1217344,0.0,0.1515695,-0.14566188,-0.14056213,0.0,0.0,0.0,0.0,0.0,0.0,0.020359794,-0.0170566,-0.70141095
61720343,0.67743605,0.7592622,nan,-3.1217344,0.0,0.16440943,-0.13643596,-0.14056213,0.0,0.0,0.0,0.0,0.0,0.0,0.02255181,-0.009965562,-0.7040858
61820424,0.67743605,0.7592622,nan,-3.1217344,0.0,0.17860566,-0.120653935,-0.14056213,0.0,0.0,0.0,0.0,0.0,0.0,0.023606267,-0.004669746,-0.7055574
61920462,0.67743605,0.7592622,nan,-3.1217344,0.0,0.1903927,-0.09927765,-0.14056213,0.0,0.0,0.0,0.0,0.0,0.0,0.024956852,-0.0022910582,-0.70896727
62020559,0.67743605,0.7592622,nan,-3.1217344,0.0,0.20157792,-0.07103566,-0.14056213,0.0,0.0,0.0,0.0,0.0,0.0,0.018738309,0.01359022,-0.7155919
62120662,0.67743605,0.7592622,nan,-3.1217344,0.0,0.21016046,-0.041514188,-0.14056213,0.0,0.0,0.0,0.0,0.0,0.0,0.019442763,0.014310912,-0.7175851
62220810,0.67743605,0.7592622,nan,-3.1217344,0.0,0.21600726,-0.007945538,-0.14056213,0.0,0.0,0.0,0.0,0.0,0.0,0.017673606,0.018877134,-0.7156191
62320960,0.67743605,0.7592622,nan,-3.1217344,0.0,0.21830328,0.022353958,-0.14056213,0.0,0.0,0.0,0.0,0.0,0.0,0.016481496,0.015942886,-0.71096355
62421093,0.67743605,0.7592622,nan,-3.1217344,0.0,0.2185177,0.05225799,-0.14056213,0.0,0.0,0.0,0.0,0.0,0.0,0.014034199,0.014883462,-0.70614034
62521360,0.67743605,0.7592622,nan,-3.1217344,0.0,0.21747634,0.073563375,-0.14056213,0.0,0.0,0.0,0.0,0.0,0.0,0.019939346,0.016505623,-0.70084214
62621326,0.67743605,0.7592622,nan,-3.1217344,0.0,0.21478559,0.08778953,-0.14056213,0.0,0.0,0.0,0.0,0.0,0.0,0.017104864,0.0093285255,-0.6959634
62741703,0.67743605,0.7592622,nan,-3.1217344,0.0,0.21122658,0.09166371,-0.14056213,0.0,0.0,0.0,0.0,0.0,0.0,0.023633307,-0.0021593156,-0.69623345
62841445,0.67743605,0.7592622,nan,-3.1217344,0.0,0.20911565,0.08385962,-0.14056213,0.0,0.0,0.0,0.0,0.0,0.0,0.018216336,-0.008803487,-0.6965963
62941716,0.67743605,0.7592622,nan,-3.1217344,0.0,0.20755395,0.06576042,-0.14056213,0.0,0.0,0.0,0.0,0.0,0.0,0.01490475,-0.013658365,-0.6986688
63042043,0.67743605,0.7592622,nan,-3.1217344,0.0,0.20647281,0.039800223,-0.14056213,0.0,0.0,0.0,0.0,0.0,0.0,0.021938844,-0.026822258,-0.7006026
63141882,0.67743605,0.7592622,nan,-3.1217344,0.0,0.20592979,0.008809569,-0.14056213,0.0,0.0,0.0,0.0,0.0,0.0,0.019253679,-0.030834507,-0.70265234
63242203,0.67743605,0.7592622,nan,-3.1217344,0.0,0.2052551,-0.02855303,-0.14056213,0.0,0.0,0.0,0.0,0.0,0.0,0.016784303,-0.039409656,-0.7050477
63342165,0.67743605,0.7592622,nan,-3.1217344,0.0,0.20414986,-0.06461066,-0.14056213,0.0,0.0,0.0,0.0,0.0,0.0,0.01707245,-0.042388838,-0.70691895
63442736,0.67743605,0.7592622,nan,-3.1217344,0.0,0.20225567,-0.10263894,-0.14056213,0.0,0.0,0.0,0.0,0.0,0.0,0.01711257,-0.039862335,-0.70888495
63542158,0.67743605,0.7592622,nan,-3.1217344,0.0,0.19932237,-0.13329856,-0.14056213,0.0,0.0,0.0,0.0,0.0,0.0,0.012927057,-0.044899367,-0.70973974
63642211,0.67743605,0.7592622,nan,-3.1217344,0.0,0.19519913,-0.16100936,-0.14056213,0.0,0.0,0.0,0.0,0.0,0.0,0.015632449,-0.046026386,-0.7095436
63742538,0.67743605,0.7592622,nan,-3.1217344,0.0,0.1901814,-0.18084274,-0.14056213,0.0,0.0,0.0,0.0,0.0,0.0,0.01393448,-0.041192338,-0.7106896
63842515,0.67743605,0.7592622,nan,-3.1217344,0.0,0.18341745,-0.19487846,-0.14056213,0.0,0.0,0.0,0.0,0.0,0.0,0.013214998,-0.040848613,-0.7085042
63942658,0.67743605,0.7592622,nan,-3.1217344,0.0,0.1756312,-0.20170714,-0.14056213,0.0,0.0,0.0,0.0,0.0,0.0,0.010981691,-0.03862998,-0.7082412
64042795,0.67743605,0.7592622,nan,-3.1217344,0.0,0.16525902,-0.20190091,-0.14056213,0.0,0.0,0.0,0.0,0.0,0.0,0.010501366,-0.034109432,-0.7074273
64162747,0.67743605,0.7592622,nan,-3.1217344,0.0,0.15125586,-0.19570228,-0.14056213,0.0,0.0,0.0,0.0,0.0,0.0,0.006871849,-0.030248519,-0.6995375
64262827,0.67743605,0.7592622,nan,-3.1217344,0.0,0.13855897,-0.18611686,-0.14056213,0.0,0.0,0.0,0.0,0.0,0.0,0.0055867056,-0.02461747,-0.6967531
64362899,0.67743605,0.7592622,nan,-3.1217344,0.0,0.123948686,-0.17245434,-0.14056213,0.0,0.0,0.0,0.0,0.0,0.0,0.008357417,-0.025418825,-0.6954084
64462997,0.67743605,0.7592622,nan,-3.1217344,0.0,0.110911936,-0.15706332,-0.14056213,0.0,0.0,0.0,0.0,0.0,0.0,0.0011611301,-0.012938583,-0.69717485
64563580,0.67743605,0.7592622,nan,-3.1217344,0.0,0.09729518,-0.13646953,-0.14056213,0.0,0.0,0.0,0.0,0.0,0.0,0.0027072967,-0.012122793,-0.700604
64663719,0.67743605,0.7592622,nan,-3.1217344,0.0,0.08540094,-0.11391223,-0.14056213,0.0,0.0,0.0,0.0,0.0,0.0,0.0034434097,-0.0046944125,-0.7055897
64763723,0.67743605,0.7592622,nan,-3.1217344,0.0,0.07360007,-0.08654475,-0.14056213,0.0,0.0,0.0,0.0,0.0,0.0,0.0005113324,0.0040047476,-0.7086687
64863743,0.67743605,0.7592622,nan,-3.1217344,0.0,0.06387494,-0.058758248,-0.14056213,0.0,0.0,0.0,0.0,0.0,0.0,0.0066935583,0.006224123,-0.71790564
64963739,0.67743605,0.7592622,nan,-3.1217344,0.0,0.05402116,-0.0263782,-0.14056213,0.0,0.0,0.0,0.0,0.0,0.0,-0.0032295194,0.012038128,-0.7178751
65063786,0.67743605,0.7592622,nan,-3.1217344,0.0,0.04587302,0.0028164983,-0.14056213,0.0,0.0,0.0,0.0,0.0,0.0,0.0041894433,0.011024842,-0.72593665
65163751,0.67743605,0.7592622,nan,-3.1217344,0.0,0.038762752,0.033800755,-0.14056213,0.0,0.0,0.0,0.0,0.0,0.0,0.0016647209,0.019561809,-0.72858953
65264580,0.67743605,0.7592622,nan,-3.1217344,0.0,0.033096004,0.062452536,-0.14056213,0.0,0.0,0.0,0.0,0.0,0.0,-0.0045536812,0.01776018,-0.72761625
65363971,0.67743605,0.7592622,nan,-3.1217344,0.0,0.028307619,0.0850049,-0.14056213,0.0,0.0,0.0,0.0,0.0,0.0,0.0024921326,0.012099437,-0.7310413
65464567,0.67743605,0.7592622,nan,-3.1217344,0.0,0.02393899,0.103442095,-0.14056213,0.0,0.0,0.0,0.0,0.0,0.0,0.0019959165,0.011570285,-0.73172456
65586192,0.67743605,0.7592622,nan,-3.1217344,0.0,0.020581275,0.116935074,-0.14056213,0.0,0.0,0.0,0.0,0.0,0.0,0.0064774044,0.00973156,-0.7292396
65684446,0.67743605,0.7592622,nan,-3.1217344,0.0,0.018444043,0.12238563,-0.14056213,0.0,0.0,0.0,0.0,0.0,0.0,0.002375058,0.011038469,-0.7265671
65785743,0.67743605,0.7592622,nan,-3.1217344,0.0,0.017128319,0.124480784,-0.14056213,0.0,0.0,0.0,0.0,0.0,0.0,0.004335696,0.008076277,-0.727841
65884618,0.67743605,0.7592622,nan,-3.1217344,0.0,0.016507829,0.12365866,-0.14056213,0.0,0.0,0.0,0.0,0.0,0.0,0.003619667,0.008078151,-0.7235383
65984992,0.67743605,0.7592622,nan,-3.1217344,0.0,0.015746456,0.12090835,-0.14056213,0.0,0.0,0.0,0.0,0.0,0.0,0.0052919267,0.0065914253,-0.71874166
66084644,0.67743605,0.7592622,nan,-3.1217344,0.0,0.015073588,0.11785635,-0.14056213,0.0,0.0,0.0,0.0,0.0,0.0,0.002069755,0.0014358019,-0.71932155
66185136,0.67743605,0.7592622,nan,-3.1217344,0.0,0.014218276,0.11310024,-0.14056213,0.0,0.0,0.0,0.0,0.0,0.0,-0.0017002025,-0.0035973235,-0.72007304
66285172,0.67743605,0.7592622,nan,-3.1217344,0.0,0.013033241,0.108479574,-0.14056213,0.0,0.0,0.0,0.0,0.0,0.0,0.0051338784,-0.004210664,-0.72379535
66385135,0.67743605,0.7592622,nan,-3.1217344,0.0,0.011142948,0.10081088,-0.14056213,0.0,0.0,0.0,0.0,0.0,0.0,0.00607178,-0.009034998,-0.72751796
66485216,0.67743605,0.7592622,nan,-3.1217344,0.0,0.008974516,0.09235085,-0.14056213,0.0,0.0,0.0,0.0,0.0,0.0,0.0035520562,-0.010658886,-0.7274326
66585265,0.67743605,0.7592622,nan,-3.1217344,0.0,0.0060477704,0.08085304,-0.14056213,0.0,0.0,0.0,0.0,0.0,0.0,0.007054097,-0.016044669,-0.72816813
66685323,0.67743605,0.7592622,nan,-3.1217344,0.0,0.0028009831,0.06734052,-0.14056213,0.0,0.0,0.0,0.0,0.0,0.0,0.0012585262,-0.023854747,-0.7243165
66785469,0.67743605,0.7592622,nan,-3.1217344,0.0,-0.0006270021,0.049469918,-0.14056213,0.0,0.0,0.0,0.0,0.0,0.0,0.0012946844,-0.024357881,-0.7242321
66905437,0.67743605,0.7592622,nan,-3.1217344,0.0,-0.004109007,0.025778094,-0.14056213,0.0,0.0,0.0,0.0,0.0,0.0,0.0010708256,-0.024693869,-0.7214386
67007459,0.67743605,0.7592622,nan,-3.1217344,0.0,-0.00613718,0.0035527288,-0.14056213,0.0,0.0,0.0,0.0,0.0,0.0,-0.0022841142,-0.035378464,-0.71862817
67105809,0.67743605,0.7592622,nan,-3.1217344,0.0,-0.00724566,-0.016982907,-0.14056213,0.0,0.0,0.0,0.0,0.0,0.0,0.0014180036,-0.032580454,-0.71813613
67207454,0.67743605,0.7592622,nan,-3.1217344,0.0,-0.007778892,-0.038234103,-0.14056213,0.0,0.0,0.0,0.0,0.0,0.0,0.008789857,-0.034232877,-0.71890885
67305941,0.67743605,0.7592622,nan,-3.1217344,0.0,-0.0071709156,-0.056468524,-0.14056213,0.0,0.0,0.0,0.0,0.0,0.0,0.0054214895,-0.03688979,-0.7162076
67407392,0.67743605,0.7592622,nan,-3.1217344,0.0,-0.005142006,-0.07414264,-0.14056213,0.0,0.0,0.0,0.0,0.0,0.0,0.0064459145,-0.033529982,-0.7186879
67506037,0.67743605,0.7592622,nan,-3.1217344,0.0,-0.002414578,-0.0877722,-0.14056213,0.0,0.0,0.0,0.0,0.0,0.0,0.0061537735,-0.033258207,-0.7197284
67607510,0.67743605,0.7592622,nan,-3.1217344,0.0,0.0011511176,-0.09887585,-0.14056213,0.0,0.0,0.0,0.0,0.0,0.0,0.0051904027,-0.034756534,-0.71747106
67706247,0.67743605,0.7592622,nan,-3.1217344,0.0,0.004365063,-0.105576105,-0.14056213,0.0,0.0,0.0,0.0,0.0,0.0,0.004926021,-0.03385337,-0.71377265
67806547,0.67743605,0.7592622,nan,-3.1217344,0.0,0.007702845,-0.11072575,-0.14056213,0.0,0.0,0.0,0.0,0.0,0.0,0.0075722155,-0.024295758,-0.7126783
67906718,0.67743605,0.7592622,nan,-3.1217344,0.0,0.01160002,-0.111063175,-0.14056213,0.0,0.0,0.0,0.0,0.0,0.0,0.005529575,-0.02380218,-0.70927286
68006643,0.67743605,0.7592622,nan,-3.1217344,0.0,0.015505576,-0.10835353,-0.14056213,0.0,0.0,0.0,0.0,0.0,0.0,0.011276146,-0.024869997,-0.711116
68106730,0.67743605,0.7592622,nan,-3.1217344,0.0,0.0196391,-0.10263611,-0.14056213,0.0,0.0,0.0,0.0,0.0,0.0,0.01016667,-0.014916858,-0.7104783
68206853,0.67743605,0.7592622,nan,-3.1217344,0.0,0.023096362,-0.094685815,-0.14056213,0.0,0.0,0.0,0.0,0.0,0.0,0.0099629555,-0.017561734,-0.7096125
68326915,0.67743605,0.7592622,nan,-3.1217344,0.0,0.026830742,-0.08224232,-0.14056213,0.0,0.0,0.0,0.0,0.0,0.0,0.011397449,-0.010647982,-0.71564674
68426986,0.67743605,0.7592622,nan,-3.1217344,0.0,0.029261515,-0.06992288,-0.14056213,0.0,0.0,0.0,0.0,0.0,0.0,0.008504174,-0.012288198,-0.7172303
68527200,0.67743605,0.7592622,nan,-3.1217344,0.0,0.031796873,-0.057792235,-0.14056213,0.0,0.0,0.0,0.0,0.0,0.0,0.013815068,-0.007493949,-0.71953005
68627748,0.67743605,0.7592622,nan,-3.1217344,0.0,0.0353872,-0.045673817,-0.14056213,0.0,0.0,0.0,0.0,0.0,0.0,0.017343303,-0.01294196,-0.72054726
68727823,0.67743605,0.7592622,nan,-3.1217344,0.0,0.039232902,-0.035379667,-0.14056213,0.0,0.0,0.0,0.0,0.0,0.0,0.010182193,-0.0063582147,-0.7177642
68828240,0.67743605,0.7592622,nan,-3.1217344,0.0,0.043351423,-0.025202733,-0.14056213,0.0,0.0,0.0,0.0,0.0,0.0,0.013606719,-0.008018657,-0.7227591
68927735,0.67743605,0.7592622,nan,-3.1217344,0.0,0.046359707,-0.016547805,-0.14056213,0.0,0.0,0.0,0.0,0.0,0.0,0.011103463,-0.0053653987,-0.7225462
69027820,0.67743605,0.7592622,nan,-3.1217344,0.0,0.048085336,-0.0069987774,-0.14056213,0.0,0.0,0.0,0.0,0.0,0.0,0.008805021,-0.0026375605,-0.72769284
69127787,0.67743605,0.7592622,nan,-3.1217344,0.0,0.047606636,0.0025561391,-0.14056213,0.0,0.0,0.0,0.0,0.0,0.0,0.0053726705,0.0009538494,-0.7316725
69227819,0.67743605,0.7592622,nan,-3.1217344,0.0,0.044854574,0.014692336,-0.14056213,0.0,0.0,0.0,0.0,0.0,0.0,0.0064784824,0.0020006122,-0.7325703
69328014,0.67743605,0.7592622,nan,-3.1217344,0.0,0.04094013,0.026312571,-0.14056213,0.0,0.0,0.0,0.0,0.0,0.0,0.0035829307,0.0010064561,-0.73153424
69428219,0.67743605,0.7592622,nan,-3.1217344,0.0,0.035678927,0.038589254,-0.14056213,0.0,0.0,0.0,0.0,0.0,0.0,0.005998088,0.00085766707,-0.7298516
69528520,0.67743605,0.7592622,nan,-3.1217344,0.0,0.030731937,0.048967943,-0.14894016,0.0,0.0,0.0,0.0,0.0,0.0,0.009566567,-0.00063210726,-0.7300391
69628426,0.67743605,0.7592622,nan,-3.1217344,0.0,0.027035212,0.05617606,-0.14854121,0.0,0.0,0.0,0.0,0.0,0.0,0.0035396998,-0.00040443987,-0.7242958
69748417,0.67743605,0.7592622,nan,-3.1217344,0.0,0.024910042,0.061211273,-0.14859366,0.0,0.0,0.0,0.0,0.0,0.0,0.010722443,-0.0029075546,-0.7244507
69848407,0.67743605,0.7592622,nan,-3.1217344,0.0,0.026044058,0.061974626,-0.15678255,0.0,0.0,0.0,0.0,0.0,0.0,0.010223895,-0.0039715115,-0.7278572
69948576,0.67743605,0.7592622,nan,-3.1217344,0.0,0.029216046,0.058897484,-0.15663393,0.0,0.0,0.0,0.0,0.0,0.0,0.013086466,-0.008906173,-0.7296783
70048601,0.67743605,0.7592622,nan,-3.1217344,0.0,0.034896605,0.052965738,-0.15662599,0.0,0.0,0.0,0.0,0.0,0.0,0.014817919,-0.0038741464,-0.7284008
70148744,0.67743605,0.7592622,nan,-3.1217344,0.0,0.041453145,0.04653247,-0.15662637,0.0,0.0,0.0,0.0,0.0,0.0,0.014434187,-0.009940157,-0.72764015
70248956,0.67743605,0.7592622,nan,-3.1217344,0.0,0.04859207,0.03856547,-0.15662637,0.0,0.0,0.0,0.0,0.0,0.0,0.017699428,-0.0067715524,-0.72677064
70349182,0.67743605,0.7592622,nan,-3.1217344,0.0,0.05497466,0.0322664,-0.15662637,0.0,0.0,0.0,0.0,0.0,0.0,0.012855187,-0.007938424,-0.72765434
70449074,0.67743605,0.7592622,nan,-3.1217344,0.0,0.06152248,0.02804845,-0.15662637,0.0,0.0,0.0,0.0,0.0,0.0,0.015247863,-0.007945975,-0.7291451
70549168,0.67743605,0.7592622,nan,-3.1217344,0.0,0.066730626,0.024034288,-0.15662637,0.0,0.0,0.0,0.0,0.0,0.0,0.015949342,-0.011577276,-0.73161
70649271,0.67743605,0.7592622,nan,-3.1217344,0.0,0.07116646,0.02090947,-0.15662637,0.0,0.0,0.0,0.0,0.0,0.0,0.014557516,-0.0129898945,-0.7337978
70749270,0.67743605,0.7592622,nan,-3.1217344,0.0,0.07383812,0.017782953,-0.15662637,0.0,0.0,0.0,0.0,0.0,0.0,0.014473414,-0.015704215,-0.73528814
70849418,0.67743605,0.7592622,nan,-3.1217344,0.0,0.07521772,0.014211029,-0.15662637,0.0,0.0,0.0,0.0,0.0,0.0,0.016408527,-0.015584839,-0.7372558
70949466,0.67743605,0.7592622,nan,-3.1217344,0.0,0.07506472,0.011498832,-0.15662637,0.0,0.0,0.0,0.0,0.0,0.0,0.014709961,-0.012856965,-0.73539156
71050142,0.67743605,0.7592622,nan,-3.1217344,0.0,0.074369654,0.007315421,-0.15662637,0.0,0.0,0.0,0.0,0.0,0.0,0.016699923,-0.01540852,-0.7368775
71170128,0.67743605,0.7592622,nan,-3.1217344,0.0,0.07379333,0.0032648502,-0.15662637,0.0,0.0,0.0,0.0,0.0,0.0,0.0154976025,-0.013821984,-0.7379122
71270087,0.67743605,0.7592622,nan,-3.1217344,0.0,0.07309872,-0.00031251012,-0.15662637,0.0,0.0,0.0,0.0,0.0,0.0,0.019869486,-0.013774326,-0.7350495
71370007,0.67743605,0.7592622,nan,-3.1217344,0.0,0.07265099,-0.0019432931,-0.15662637,0.0,0.0,0.0,0.0,0.0,0.0,0.013218937,-0.010850593,-0.7349383
71470161,0.67743605,0.7592622,nan,-3.1217344,0.0,0.071593866,-0.0018452763,-0.15662637,0.0,0.0,0.0,0.0,0.0,0.0,0.013447883,-0.008591036,-0.7377386
71570220,0.67743605,0.7592622,nan,-3.1217344,0.0,0.070125595,-0.00015537739,-0.15662637,0.0,0.0,0.0,0.0,0.0,0.0,0.016479455,-0.007929552,-0.73543835
71670985,0.67743605,0.7592622,nan,-3.1217344,0.0,0.06810439,0.00291242,-0.15662637,0.0,0.0,0.0,0.0,0.0,0.0,0.012880854,-0.0053437487,-0.7319912
71770537,0.67743605,0.7592622,nan,-3.1217344,0.0,0.06518228,0.0062085837,-0.15662637,0.0,0.0,0.0,0.0,0.0,0.0,0.010853283,-0.008046707,-0.7298224
71870553,0.67743605,0.7592622,nan,-3.1217344,0.0,0.060881946,0.009110414,-0.16500442,0.0,0.0,0.0,0.0,0.0,0.0,0.009128371,-0.008102067,-0.72553205
71970635,0.67743605,0.7592622,nan,-3.1217344,0.0,0.05610511,0.012490439,-0.16460545,0.0,0.0,0.0,0.0,0.0,0.0,0.008412197,-0.0025208322,-0.72282827
72070938,0.67743605,0.7592622,nan,-3.1217344,0.0,0.051289033,0.017138625,-0.1646579,0.0,0.0,0.0,0.0,0.0,0.0,0.0060764784,-0.0051938766,-0.7256017
72170749,0.67743605,0.7592622,nan,-3.1217344,0.0,0.04806886,0.023775797,-0.16465831,0.0,0.0,0.0,0.0,0.0,0.0,0.011253161,0.006364747,-0.72635937
72270797,0.67743605,0.7592622,nan,-3.1217344,0.0,0.04513775,0.03281362,-0.16465871,0.0,0.0,0.0,0.0,0.0,0.0,0.0100417705,0.0011483226,-0.7283018
72391042,0.67743605,0.7592622,nan,-3.1217344,0.0,0.0437769,0.04526261,-0.16465871,0.0,0.0,0.0,0.0,0.0,0.0,0.010119785,0.0047188336,-0.7304946
72491010,0.67743605,0.7592622,nan,-3.1217344,0.0,0.04363177,0.056152448,-0.16465871,0.0,0.0,0.0,0.0,0.0,0.0,0.014841414,0.010504976,-0.7343213
72591375,0.67743605,0.7592622,nan,-3.1217344,0.0,0.045026317,0.06781741,-0.16465831,0.0,0.0,0.0,0.0,0.0,0.0,0.01718557,0.011410999,-0.73610413
72691372,0.67743605,0.7592622,nan,-3.1217344,0.0,0.047186706,0.078738794,-0.16465831,0.0,0.0,0.0,0.0,0.0,0.0,0.01101493,0.0096430145,-0.7339903
72791476,0.67743605,0.7592622,nan,-3.1217344,0.0,0.049663402,0.08873928,-0.15906739,0.0,0.0,0.0,0.0,0.0,0.0,0.014679128,0.0024995534,-0.73729455
72891524,0.67743605,0.7592622,nan,-3.1217344,0.0,0.051443335,0.09528931,-0.15668717,0.0,0.0,0.0,0.0,0.0,0.0,0.013176501,0.006738514,-0.73661894
72991585,0.67743605,0.7592622,nan,-3.1217344,0.0,0.051793046,0.09989826,-0.14798848,0.0,0.0,0.0,0.0,0.0,0.0,0.013387663,-0.0009359005,-0.73801327
73091850,0.67743605,0.7592622,nan,-3.1217344,0.0,0.05075297,0.1003303,-0.14694262,0.0,0.0,0.0,0.0,0.0,0.0,0.010945868,0.0058439127,-0.7378727
73191769,0.67743605,0.7592622,nan,-3.1217344,0.0,0.048544053,0.09945364,-0.14062333,0.0,0.0,0.0,0.0,0.0,0.0,0.0069662966,0.0029156841,-0.7361598
73291964,0.67743605,0.7592622,nan,-3.1217344,0.0,0.04511941,0.09635646,-0.13192026,0.0,0.0,0.0,0.0,0.0,0.0,0.011359016,0.0025727209,-0.7339685
73392221,0.67743605,0.7592622,nan,-3.1217344,0.0,0.0400932,0.092583686,-0.13086326,0.0,0.0,0.0,0.0,0.0,0.0,0.0112263225,-0.0014153617,-0.7322695
73493396,0.67743605,0.7592622,nan,-3.1217344,0.0,0.03287891,0.08625795,-0.12434213,0.0,0.0,0.0,0.0,0.0,0.0,0.00843299,-0.0049532847,-0.73428077
73592249,0.67743605,0.7592622,nan,-3.1217344,0.0,0.02486259,0.079509564,-0.12449351,0.0,0.0,0.0,0.0,0.0,0.0,0.0024269368,-0.0005920674,-0.74006623
73693438,0.67743605,0.7592622,nan,-3.1217344,0.0,0.014417142,0.07036013,-0.12449789,0.0,0.0,0.0,0.0,0.0,0.0,-0.0015284074,-0.009680614,-0.7422421
73814217,0.67743605,0.7592622,nan,-3.1217344,0.0,0.0005026549,0.05817077,-0.12449789,0.0,0.0,0.0,0.0,0.0,0.0,-0.0050880406,-0.014496012,-0.7449874
73912900,0.67743605,0.7592622,nan,-3.1217344,0.0,-0.011672783,0.04473787,-0.12449789,0.0,0.0,0.0,0.0,0.0,0.0,-0.004018775,-0.020326922,-0.7489877
74012608,0.67743605,0.7592622,nan,-3.1217344,0.0,-0.025407488,0.02776363,-0.10215132,0.0,0.0,0.0,0.0,0.0,0.0,-0.005725709,-0.021090638,-0.74410105
74113588,0.67743605,0.7592622,nan,-3.1217344,0.0,-0.04039857,0.0062733055,-0.0919307,0.0,0.0,0.0,0.0,0.0,0.0,-0.009646336,-0.031253695,-0.7443215
74213029,0.67743605,0.7592622,nan,-3.1217344,0.0,-0.054025352,-0.01635681,-0.09236343,0.0,0.0,0.0,0.0,0.0,0.0,-0.007411397,-0.03356952,-0.7484441
74313892,0.67743605,0.7592622,nan,-3.1217344,0.0,-0.06729409,-0.043857645,-0.092369795,0.0,0.0,0.0,0.0,0.0,0.0,-0.006151283,-0.0354333,-0.7541727
74413302,0.67743605,0.7592622,nan,-3.1217344,0.0,-0.07806723,-0.069813654,-0.09236939,0.0,0.0,0.0,0.0,0.0,0.0,-0.008936256,-0.03289404,-0.7520416
74513609,0.67743605,0.7592622,nan,-3.1217344,0.0,-0.08808912,-0.09612832,-0.09236939,0.0,0.0,0.0,0.0,0.0,0.0,-0.011478381,-0.039570704,-0.75001484
74613315,0.67743605,0.7592622,nan,-3.1217344,0.0,-0.095646165,-0.118286416,-0.09236939,0.0,0.0,0.0,0.0,0.0,0.0,-0.007885493,-0.034165926,-0.7452595
74713972,0.67743605,0.7592622,nan,-3.1217344,0.0,-0.101653785,-0.13557945,-0.083991766,0.0,0.0,0.0,0.0,0.0,0.0,-0.008526368,-0.03250452,-0.73997295
74813463,0.67743605,0.7592622,nan,-3.1217344,0.0,-0.10458976,-0.1449166,-0.05552538,0.0,0.0,0.0,0.0,0.0,0.0,-0.004361329,-0.027965069,-0.7343073
74913637,0.67743605,0.7592622,-0.67879736,-3.1217344,0.0,-0.10488602,-0.1465035,-0.00080388784,0.0,0.0,0.0,0.0,0.0,0.0,-0.0036774832,-0.022005701,-0.7237517
75033944,0.67743605,0.7592622,-0.67879736,-3.1217344,0.0,-0.10270598,-0.13810818,-0.0029955506,0.0,0.0,0.0,0.0,0.0,0.0,-0.001717444,-0.016390465,-0.72907066
75134121,0.67743605,0.7592622,-0.67879736,-3.1217344,0.0,-0.099280715,-0.12408419,-0.0067098737,0.0,0.0,0.0,0.0,0.0,0.0,0.00021485984,-0.009924129,-0.7283757
75234095,0.67743605,0.7592622,-0.67879736,-3.1217344,0.0,-0.09386731,-0.103291705,-0.01369822,0.0,0.0,0.0,0.0,0.0,0.0,-0.00048795436,-0.0023391917,-0.73430276
75334152,0.67743605,0.7592622,-0.67879736,-3.1217344,0.0,-0.088127345,-0.078834884,-0.021384,0.0,0.0,0.0,0.0,0.0,0.0,0.006491766,0.008026834,-0.7377342
75434159,0.67743605,0.7592622,-0.67879736,-3.1217344,0.0,-0.0814682,-0.048556622,-0.031249404,0.0,0.0,0.0,0.0,0.0,0.0,0.008965249,0.011752438,-0.74006736
75534156,0.67743605,0.7592622,-0.67879736,-3.1217344,0.0,-0.07572847,-0.018500159,-0.039856613,0.0,0.0,0.0,0.0,0.0,0.0,0.0024379627,0.018044636,-0.7403017
75634257,0.67743605,0.7592622,-0.67879736,-3.1217344,0.0,-0.07024768,0.015597873,-0.046627402,0.0,0.0,0.0,0.0,0.0,0.0,0.0093344785,0.018286992,-0.7367182
75734388,0.67743605,0.7592622,-0.67879736,-3.1217344,0.0,-0.06455517,0.047849156,-0.050192237,0.0,0.0,0.0,0.0,0.0,0.0,0.0061061,0.026288245,-0.7330285
75835057,0.67743605,0.7592622,-0.67879736,-3.1217344,0.0,-0.058959376,0.08065457,-0.048852503,0.0,0.0,0.0,0.0,0.0,0.0,0.003911137,0.02231578,-0.724342
75934681,0.67743605,0.7592622,-0.67879736,-3.1217344,0.0,-0.055010673,0.107171156,-0.04353255,0.0,0.0,0.0,0.0,0.0,0.0,0.009110362,0.030126732,-0.7242293
76035461,0.67743605,0.7592622,-0.67879736,-3.1217344,0.0,-0.05161066,0.13147849,-0.037130237,0.0,0.0,0.0,0.0,0.0,0.0,0.00911106,0.020202696,-0.7206892
76134793,0.67743605,0.7592622,-0.67879736,-3.1217344,0.0,-0.048622873,0.14746526,-0.032673538,0.0,0.0,0.0,0.0,0.0,0.0,0.0062351916,0.01569638,-0.7256205
76234778,0.67743605,0.7592622,-0.67879736,-3.1217344,0.0,-0.04573899,0.15764797,-0.031392157,0.0,0.0,0.0,0.0,0.0,0.0,0.0061750747,0.016362792,-0.7288513
76354970,0.67743605,0.7592622,-0.67879736,-3.1217344,0.0,-0.042302,0.16019782,-0.035691023,0.0,0.0,0.0,0.0,0.0,0.0,0.007509022,0.01330813,-0.73789847
76455157,0.67743605,0.7592622,-0.67879736,-3.1217344,0.0,-0.039980233,0.15485814,-0.04316348,0.0,0.0,0.0,0.0,0.0,0.0,0.0054405215,0.006454015,-0.74404365
76555198,0.67743605,0.7592622,-0.67879736,-3.1217344,0.0,-0.037816387,0.14275235,-0.05566621,0.0,0.0,0.0,0.0,0.0,0.0,0.00047211302,0.00509574,-0.75178856
76655293,0.67743605,0.7592622,-0.67879736,-3.1217344,0.0,-0.03547327,0.12644055,-0.07083601,0.0,0.0,0.0,0.0,0.0,0.0,0.0015634776,-0.00662636,-0.75920343
76755476,0.67743605,0.7592622,-0.67879736,-3.1217344,0.0,-0.032590292,0.10433325,-0.08906859,0.0,0.0,0.0,0.0,0.0,0.0,0.0039627478,-0.015784614,-0.76752055
76855534,0.67743605,0.7592622,-0.67879736,-3.1217344,0.0,-0.030078605,0.08009863,-0.107513726,0.0,0.0,0.0,0.0,0.0,0.0,0.0033599106,-0.024384566,-0.77638334
76955625,0.67743605,0.7592622,-0.67879736,-3.1217344,0.0,-0.027983727,0.050083555,-0.12753397,0.0,0.0,0.0,0.0,0.0,0.0,0.006516412,-0.025219945,-0.77963173
78076794,0.67743605,0.7592622,-0.67879736,-3.1217344,0.0,0.013688498,-0.16426498,-0.052083313,0.0,0.0,0.0,0.0,0.0,0.0,0.020577248,-0.009834962,-0.72356683
78177264,0.67743605,0.7592622,-0.67879736,-3.1217344,0.0,0.03157485,-0.14309181,-0.05305016,0.0,0.0,0.0,0.0,0.0,0.0,0.018585622,-0.0022322275,-0.73053455
78277105,0.67743605,0.7592622,-0.67879736,-3.1217344,0.0,0.048150625,-0.11552337,-0.05887425,0.0,0.0,0.0,0.0,0.0,0.0,0.018133732,0.0057047484,-0.73201036
78377839,0.67743605,0.7592622,-0.67879736,-3.1217344,0.0,0.06407211,-0.07788682,-0.06727934,0.0,0.0,0.0,0.0,0.0,0.0,0.021714408,0.018833227,-0.74003226
78477236,0.67743605,0.7592622,-0.67879736,-3.1217344,0.0,0.07554263,-0.037955794,-0.07673824,0.0,0.0,0.0,0.0,0.0,0.0,0.019334428,0.021750927,-0.7475774
78577221,0.67743605,0.7592622,-0.67879736,-3.1217344,0.0,0.084973596,0.009699819,-0.089387834,0.0,0.0,0.0,0.0,0.0,0.0,0.020578198,0.030416284,-0.75956327
78697236,0.67743605,0.7592622,-0.67879736,-3.1217344,0.0,0.09166099,0.06616534,-0.10642004,0.0,0.0,0.0,0.0,0.0,0.0,0.014721718,0.039756976,-0.7618805
78797438,0.67743605,0.7592622,-0.67879736,-3.1217344,0.0,0.09286132,0.109473504,-0.11694211,0.0,0.0,0.0,0.0,0.0,0.0,0.013462514,0.03610877,-0.75717723
78897454,0.67743605,0.7592622,-0.67879736,-3.1217344,0.0,0.09060189,0.14962696,-0.12374312,0.0,0.0,0.0,0.0,0.0,0.0,0.015032743,0.03875243,-0.7557976
78997748,0.67743605,0.7592622,-0.67879736,-3.1217344,0.0,0.086316496,0.17830512,-0.12596202,0.0,0.0,0.0,0.0,0.0,0.0,0.013368018,0.031029593,-0.7514211
79097880,0.67743605,0.7592622,-0.67879736,-3.1217344,0.0,0.08073339,0.19722289,-0.12386149,0.0,0.0,0.0,0.0,0.0,0.0,0.014325024,0.022143347,-0.7473763
79197867,0.67743605,0.7592622,-0.67879736,-3.1217344,0.0,0.07589279,0.20149083,-0.11874336,0.0,0.0,0.0,0.0,0.0,0.0,0.01414338,0.0069743916,-0.7450985
79298525,0.67743605,0.7592622,-0.67879736,-3.1217344,0.0,0.07145537,0.19032834,-0.11129224,0.0,0.0,0.0,0.0,0.0,0.0,0.012225319,0.007726342,-0.73998785
79398363,0.67743605,0.7592622,-0.67879736,-3.1217344,0.0,0.06903937,0.16934912,-0.102805614,0.0,0.0,0.0,0.0,0.0,0.0,0.014059208,-0.004744682,-0.7340864
79498626,0.67743605,0.7592622,-0.67879736,-3.1217344,0.0,0.06925273,0.1359213,-0.0927698,0.0,0.0,0.0,0.0,0.0,0.0,0.012525599,-0.018599018,-0.7301224
79598258,0.67743605,0.7592622,-0.67879736,-3.1217344,0.0,0.07235949,0.09712196,-0.08390111,0.0,0.0,0.0,0.0,0.0,0.0,0.01720863,-0.022404917,-0.728593
79698582,0.67743605,0.7592622,-0.67879736,-3.1217344,0.0,0.07822425,0.04939806,-0.07525307,0.0,0.0,0.0,0.0,0.0,0.0,0.016912367,-0.031223569,-0.7267753
79818609,0.67743605,0.7592622,-0.67879736,-3.1217344,0.0,0.08704338,-0.006964463,-0.06645322,0.0,0.0,0.0,0.0,0.0,0.0,0.024018072,-0.0348569,-0.72652
79918861,0.67743605,0.7592622,-0.67879736,-3.1217344,0.0,0.09600205,-0.05220369,-0.059835017,0.0,0.0,0.0,0.0,0.0,0.0,0.021950327,-0.03847606,-0.7248467
80018697,0.67743605,0.7592622,-0.67879736,-3.1217344,0.0,0.1044982,-0.08888493,-0.054594934,0.0,0.0,0.0,0.0,0.0,0.0,0.0260494,-0.0433637,-0.7243111
80119226,0.67743605,0.7592622,-0.67879736,-3.1217344,0.0,0.11376178,-0.1218362,-0.05100143,0.0,0.0,0.0,0.0,0.0,0.0,0.027935315,-0.040597506,-0.72896945
80218845,0.67743605,0.7592622,-0.67879736,-3.1217344,0.0,0.12244117,-0.14487854,-0.050525844,0.0,0.0,0.0,0.0,0.0,0.0,0.0266575,-0.040903673,-0.7318647
80318937,0.67743605,0.7592622,-0.67879736,-3.1217344,0.0,0.13017488,-0.15966074,-0.05200076,0.0,0.0,0.0,0.0,0.0,0.0,0.023390157,-0.04087364,-0.73489845
80418975,0.67743605,0.7592622,-0.67879736,-3.1217344,0.0,0.13641149,-0.16701365,-0.05454731,0.0,0.0,0.0,0.0,0.0,0.0,0.021776171,-0.03681228,-0.73534703
80519142,0.67743605,0.7592622,-0.67879736,-3.1217344,0.0,0.14023998,-0.1680176,-0.058191717,0.0,0.0,0.0,0.0,0.0,0.0,0.01864995,-0.031238614,-0.7375115
80619325,0.67743605,0.7592622,nan,-3.1217344,0.0,0.14069666,-0.16375022,-0.13688135,0.0,0.0,0.0,0.0,0.0,0.0,0.025578065,-0.025649209,-0.75723326
80719430,0.67743605,0.7592622,nan,-3.1217344,0.0,0.13828616,-0.15503123,-0.14740992,0.0,0.0,0.0,0.0,0.0,0.0,0.024363251,-0.021721829,-0.7578773
80819493,0.67743605,0.7592622,nan,-3.1217344,0.0,0.1340618,-0.14447895,-0.14858373,0.0,0.0,0.0,0.0,0.0,0.0,0.014358483,-0.021094952,-0.7551695
80919541,0.67743605,0.7592622,nan,-3.1217344,0.0,0.12711422,-0.13012353,-0.14859566,0.0,0.0,0.0,0.0,0.0,0.0,0.015702978,-0.01555938,-0.7517358
81039673,0.67743605,0.7592622,nan,-3.1217344,0.0,0.1162036,-0.11113362,-0.1569721,0.0,0.0,0.0,0.0,0.0,0.0,0.018068973,-0.010726318,-0.7448225
81139729,0.67743605,0.7592622,nan,-3.1217344,0.0,0.10566597,-0.093863115,-0.15657353,0.0,0.0,0.0,0.0,0.0,0.0,0.011109698,-0.0018972261,-0.7385625
81239870,0.67743605,0.7592622,nan,-3.1217344,0.0,0.09499436,-0.07437407,-0.15662558,0.0,0.0,0.0,0.0,0.0,0.0,0.0137171745,0.0031272555,-0.7336481
81339846,0.67743605,0.7592622,nan,-3.1217344,0.0,0.083835214,-0.050830547,-0.15662637,0.0,0.0,0.0,0.0,0.0,0.0,0.011898961,0.0053830324,-0.7312202
81440411,0.67743605,0.7592622,nan,-3.1217344,0.0,0.074033305,-0.027668895,-0.15662637,0.0,0.0,0.0,0.0,0.0,0.0,0.0079583805,0.013450672,-0.7294219
81540411,0.67743605,0.7592622,nan,-3.1217344,0.0,0.064268194,-0.00023957789,-0.15662637,0.0,0.0,0.0,0.0,0.0,0.0,0.006844821,0.01497862,-0.7326298
81640536,0.67743605,0.7592622,nan,-3.1217344,0.0,0.05593399,0.024916666,-0.15662637,0.0,0.0,0.0,0.0,0.0,0.0,0.010835184,0.018682769,-0.7379636
81740744,0.67743605,0.7592622,nan,-3.1217344,0.0,0.048386183,0.05267452,-0.15662637,0.0,0.0,0.0,0.0,0.0,0.0,0.0091101285,0.016902475,-0.74100757
81840527,0.67743605,0.7592622,nan,-3.1217344,0.0,0.04232771,0.07669533,-0.15662637,0.0,0.0,0.0,0.0,0.0,0.0,0.008611194,0.025599228,-0.74921566
81940598,0.67743605,0.7592622,nan,-3.1217344,0.0,0.037084177,0.100490496,-0.15662637,0.0,0.0,0.0,0.0,0.0,0.0,0.013643263,0.016813822,-0.75750256
82040671,0.67743605,0.7592622,nan,-3.1217344,0.0,0.033222392,0.119781636,-0.15662637,0.0,0.0,0.0,0.0,0.0,0.0,0.011552254,0.01914143,-0.7624054
82160753,0.67743605,0.7592622,nan,-3.1217344,0.0,0.029641747,0.13650356,-0.15662637,0.0,0.0,0.0,0.0,0.0,0.0,0.008322704,0.017892634,-0.7676719
82261025,0.67743605,0.7592622,nan,-3.1217344,0.0,0.026844671,0.14517254,-0.15662637,0.0,0.0,0.0,0.0,0.0,0.0,0.0133101735,0.016592447,-0.77576995
82361116,0.67743605,0.7592622,nan,-3.1217344,0.0,0.0239425,0.15135196,-0.15662637,0.0,0.0,0.0,0.0,0.0,0.0,0.009122585,0.016037513,-0.7767018
82461117,0.67743605,0.7592622,nan,-3.1217344,0.0,0.021765009,0.15398839,-0.15662637,0.0,0.0,0.0,0.0,0.0,0.0,0.010953455,0.013787713,-0.7800029
82561174,0.67743605,0.7592622,nan,-3.1217344,0.0,0.020210385,0.15524697,-0.15662637,0.0,0.0,0.0,0.0,0.0,0.0,0.007126568,0.016889345,-0.78102714
82661212,0.67743605,0.7592622,nan,-3.1217344,0.0,0.019366285,0.15498929,-0.15662637,0.0,0.0,0.0,0.0,0.0,0.0,0.01351144,0.010995068,-0.7818112
82761337,0.67743605,0.7592622,nan,-3.1217344,0.0,0.018685604,0.15379417,-0.16221729,0.0,0.0,0.0,0.0,0.0,0.0,0.017309312,0.014543654,-0.7788345
82861560,0.67743605,0.7592622,nan,-3.1217344,0.0,0.01775096,0.15298828,-0.18302092,0.0,0.0,0.0,0.0,0.0,0.0,0.00774052,0.011070341,-0.77564996
82961561,0.67743605,0.7592622,nan,-3.1217344,0.0,0.015998717,0.15253387,-0.21978982,0.0,0.0,0.0,0.0,0.0,0.0,0.00839423,0.013332655,-0.7784665
83061692,0.67743605,0.7592622,nan,-3.1217344,0.0,0.014137983,0.15339616,-0.22071648,0.0,0.0,0.0,0.0,0.0,0.0,0.014522819,0.012407479,-0.76975787
83161844,0.67743605,0.7592622,nan,-3.1217344,0.0,0.011828047,0.1548078,-0.22088179,0.0,0.0,0.0,0.0,0.0,0.0,0.010782518,0.015281793,-0.76231074
83261865,0.67743605,0.7592622,nan,-3.1217344,0.0,0.009398973,0.15814371,-0.22088376,0.0,0.0,0.0,0.0,0.0,0.0,0.010994998,0.015721364,-0.75557494
83382046,0.67743605,0.7592622,nan,-3.1217344,0.0,0.005451232,0.1631881,-0.22088337,0.0,0.0,0.0,0.0,0.0,0.0,0.00824342,0.013034048,-0.7523217
83482063,0.67743605,0.7592622,nan,-3.1217344,0.0,0.0014358818,0.16879477,-0.22088337,0.0,0.0,0.0,0.0,0.0,0.0,0.004947788,0.01743034,-0.7547835
83582260,0.67743605,0.7592622,nan,-3.1217344,0.0,-0.0021343438,0.17221262,-0.22088337,0.0,0.0,0.0,0.0,0.0,0.0,0.009942658,0.010133626,-0.7562648
83682363,0.67743605,0.7592622,nan,-3.1217344,0.0,-0.0050893454,0.17520691,-0.22088337,0.0,0.0,0.0,0.0,0.0,0.0,0.007897446,0.0094525805,-0.7572578
83782957,0.67743605,0.7592622,nan,-3.1217344,0.0,-0.006496689,0.17435415,-0.22088337,0.0,0.0,0.0,0.0,0.0,0.0,0.012762709,0.008426572,-0.76237667
83882642,0.67743605,0.7592622,nan,-3.1217344,0.0,-0.008059239,0.17076439,-0.22088337,0.0,0.0,0.0,0.0,0.0,0.0,0.010013576,0.006077298,-0.7612392
83982727,0.67743605,0.7592622,nan,-3.1217344,0.0,-0.010528403,0.16324835,-0.22088337,0.0,0.0,0.0,0.0,0.0,0.0,0.008491904,0.0021968568,-0.75769746
84082733,0.67743605,0.7592622,nan,-3.1217344,0.0,-0.014024847,0.15167947,-0.22088337,0.0,0.0,0.0,0.0,0.0,0.0,0.010493599,-0.00048799295,-0.75401556
84183722,0.67743605,0.7592622,nan,-3.1217344,0.0,-0.017623952,0.13576184,-0.22088337,0.0,0.0,0.0,0.0,0.0,0.0,0.010380218,-0.0013392419,-0.750813
84303227,0.67743605,0.7592622,nan,-3.1217344,0.0,-0.022526324,0.112598434,-0.22088337,0.0,0.0,0.0,0.0,0.0,0.0,0.0039577945,-0.008155073,-0.7471284
84402943,0.67743605,0.7592622,nan,-3.1217344,0.0,-0.026201248,0.0919158,-0.22088337,0.0,0.0,0.0,0.0,0.0,0.0,0.007215848,-0.013732589,-0.7494316
84503025,0.67743605,0.7592622,nan,-3.1217344,0.0,-0.029710263,0.068373695,-0.22088337,0.0,0.0,0.0,0.0,0.0,0.0,0.008926881,-0.012509777,-0.75188017
84603252,0.67743605,0.7592622,nan,-3.1217344,0.0,-0.03195542,0.047224306,-0.22088337,0.0,0.0,0.0,0.0,0.0,0.0,0.008300944,-0.014109247,-0.75130117
84703449,0.67743605,0.7592622,nan,-3.1217344,0.0,-0.03294414,0.02322586,-0.22088337,0.0,0.0,0.0,0.0,0.0,0.0,0.010332482,-0.024798308,-0.75214875
84803463,0.67743605,0.7592622,nan,-3.1217344,0.0,-0.032700483,0.0011709929,-0.22088337,0.0,0.0,0.0,0.0,0.0,0.0,0.0054933378,-0.01664273,-0.7544317
84903574,0.67743605,0.7592622,nan,-3.1217344,0.0,-0.031350557,-0.02251398,-0.22088337,0.0,0.0,0.0,0.0,0.0,0.0,0.0062751556,-0.025075233,-0.76049817
85003594,0.67743605,0.7592622,nan,-3.1217344,0.0,-0.029129976,-0.043582223,-0.22088337,0.0,0.0,0.0,0.0,0.0,0.0,0.009777581,-0.025397195,-0.7650564
85103624,0.67743605,0.7592622,nan,-3.1217344,0.0,-0.026084999,-0.06395399,-0.21529284,0.0,0.0,0.0,0.0,0.0,0.0,0.011225263,-0.02280197,-0.76622003
85203724,0.67743605,0.7592622,nan,-3.1217344,0.0,-0.022510694,-0.080239624,-0.17935999,0.0,0.0,0.0,0.0,0.0,0.0,0.015525128,-0.023309335,-0.7585312
85303857,0.67743605,0.7592622,nan,-3.1217344,0.0,-0.018260071,-0.09403667,-0.14800835,0.0,0.0,0.0,0.0,0.0,0.0,0.0109992465,-0.01862753,-0.7470812
85403993,0.67743605,0.7592622,nan,-3.1217344,0.0,-0.014602643,-0.101857916,-0.14859405,0.0,0.0,0.0,0.0,0.0,0.0,0.01450936,-0.013180957,-0.7471997
85504139,0.67743605,0.7592622,nan,-3.1217344,0.0,-0.010052645,-0.10439101,-0.14859486,0.0,0.0,0.0,0.0,0.0,0.0,0.021966916,-0.009989836,-0.7488452
85624294,0.67743605,0.7592622,nan,-3.1217344,0.0,-0.0043157428,-0.097532205,-0.14859445,0.0,0.0,0.0,0.0,0.0,0.0,0.01697145,-0.004478819,-0.7455064
85724530,0.67743605,0.7592622,nan,-3.1217344,0.0,2.6613473e-06,-0.08534284,-0.14300354,0.0,0.0,0.0,0.0,0.0,0.0,0.016545674,-0.00051980466,-0.7421983
85824622,0.67743605,0.7592622,nan,-3.1217344,0.0,0.0031898797,-0.064196795,-0.14061499,0.0,0.0,0.0,0.0,0.0,0.0,0.01424998,0.01785938,-0.74003994
85924561,0.67743605,0.7592622,nan,-3.1217344,0.0,0.0053570657,-0.038494747,-0.14056173,0.0,0.0,0.0,0.0,0.0,0.0,0.017418146,0.01774383,-0.7435491
86024592,0.67743605,0.7592622,nan,-3.1217344,0.0,0.008833804,-0.0063819676,-0.14056213,0.0,0.0,0.0,0.0,0.0,0.0,0.02107304,0.02473742,-0.75253934
86124657,0.67743605,0.7592622,nan,-3.1217344,0.0,0.013203454,0.025510203,-0.14056213,0.0,0.0,0.0,0.0,0.0,0.0,0.019344147,0.026070705,-0.75667316
86225093,0.67743605,0.7592622,nan,-3.1217344,0.0,0.017742807,0.05915507,-0.13497122,0.0,0.0,0.0,0.0,0.0,0.0,0.018893566,0.029392995,-0.758631
86326035,0.67743605,0.7592622,nan,-3.1217344,0.0,0.02067278,0.089383334,-0.13258345,0.0,0.0,0.0,0.0,0.0,0.0,0.016110225,0.030585721,-0.75600725
86425191,0.67743605,0.7592622,nan,-3.1217344,0.0,0.022162454,0.112188585,-0.13253021,0.0,0.0,0.0,0.0,0.0,0.0,0.018820496,0.024658117,-0.7546011
86526207,0.67743605,0.7592622,nan,-3.1217344,0.0,0.022967428,0.13035908,-0.12134878,0.0,0.0,0.0,0.0,0.0,0.0,0.018972257,0.027305802,-0.7536797
86625247,0.67743605,0.7592622,nan,-3.1217344,0.0,0.023442337,0.1404342,-0.107949644,0.0,0.0,0.0,0.0,0.0,0.0,0.013495049,0.021981511,-0.7536901
86725240,0.67743605,0.7592622,nan,-3.1217344,0.0,0.023736047,0.1459783,-0.014274592,0.0,0.0,0.0,0.0,0.0,0.0,0.013977123,0.022995569,-0.73516107
86825455,0.67743605,0.7592622,-0.99891543,-3.1217344,0.0,0.023168558,0.14537825,0.0027803183,0.0,0.0,0.0,0.0,0.0,0.0,0.014792585,0.020065363,-0.7316206
86925442,0.67743605,0.7592622,-0.99891543,-3.1217344,0.0,0.021614274,0.1413291,0.0054074526,0.0,0.0,0.0,0.0,0.0,0.0,0.008573314,0.017850583,-0.7334021
87045840,0.67743605,0.7592622,-0.99891543,-3.1217344,0.0,0.017708888,0.13136116,0.0074754953,0.0,0.0,0.0,0.0,0.0,0.0,0.0062369816,0.012916118,-0.7350648
87145861,0.67743605,0.7592622,-0.99891543,-3.1217344,0.0,0.012183309,0.12163184,0.008656263,0.0,0.0,0.0,0.0,0.0,0.0,0.0036494741,0.008028828,-0.7368125
87245912,0.67743605,0.7592622,-0.99891543,-3.1217344,0.0,0.005135098,0.11178378,0.008376479,0.0,0.0,0.0,0.0,0.0,0.0,0.0032533575,0.0046384046,-0.7378376
87346251,0.67743605,0.7592622,-0.99891543,-3.1217344,0.0,-0.0043074754,0.10017005,0.0062681437,0.0,0.0,0.0,0.0,0.0,0.0,-0.0030704942,0.004464791,-0.74364436
87446076,0.67743605,0.7592622,-0.99891543,-3.1217344,0.0,-0.014521614,0.08824484,0.0028266907,0.0,0.0,0.0,0.0,0.0,0.0,-0.00015230384,-0.003988492,-0.744357
87546157,0.67743605,0.7592622,-0.99891543,-3.1217344,0.0,-0.025458619,0.0724639,-0.0030536652,0.0,0.0,0.0,0.0,0.0,0.0,-0.003904812,-0.0047788937,-0.7520812
87646280,0.67743605,0.7592622,-0.99891543,-3.1217344,0.0,-0.034905214,0.05610958,-0.010573506,0.0,0.0,0.0,0.0,0.0,0.0,0.001960854,-0.009578138,-0.75801075
87746395,0.67743605,0.7592622,-0.99891543,-3.1217344,0.0,-0.042650923,0.035788666,-0.019510448,0.0,0.0,0.0,0.0,0.0,0.0,0.0014102785,-0.015491471,-0.75803554
87846735,0.67743605,0.7592622,-0.99891543,-3.1217344,0.0,-0.04735211,0.015332192,-0.02738893,0.0,0.0,0.0,0.0,0.0,0.0,0.0037594591,-0.017113116,-0.75906515
87946906,0.67743605,0.7592622,-0.99891543,-3.1217344,0.0,-0.049514253,-0.0068232417,-0.03239417,0.0,0.0,0.0,0.0,0.0,0.0,0.009047269,-0.014952664,-0.75378954
88047393,nan,nan,-0.99891543,-3.1217344,0.0,0.005318441,-0.2677847,-0.033463478,0.0,0.0,0.0,0.0,0.0,0.0,0.011948866,-0.04066148,-0.7489218
88146987,nan,nan,-0.99891543,-3.1217344,0.0,0.005375177,-0.2706414,-0.03204733,0.0,0.0,0.0,0.0,0.0,0.0,0.015636131,-0.03591286,-0.7491908
88247012,nan,nan,-0.99891543,-3.1217344,0.0,0.006685991,-0.33664116,-0.029258192,0.0,0.0,0.0,0.0,0.0,0.0,0.016881544,-0.031314407,-0.74592483
88346990,nan,nan,-0.99891543,-3.1217344,0.0,0.00969939,-0.48836648,-0.025241673,0.0,0.0,0.0,0.0,0.0,0.0,0.021751944,-0.035607953,-0.7457769
88467015,nan,nan,-0.99891543,-3.1217344,0.0,0.004990041,-0.25124967,-0.021129847,0.0,0.0,0.0,0.0,0.0,0.0,0.01982719,-0.008505452,-0.74601686
88567475,nan,nan,-0.99891543,-3.1217344,0.0,0.0036177796,-0.18215603,-0.020074904,0.0,0.0,0.0,0.0,0.0,0.0,0.018001683,0.006260251,-0.74822664
88667422,nan,nan,-0.99891543,-3.1217344,0.0,0.002671639,-0.13451764,-0.022845685,0.0,0.0,0.0,0.0,0.0,0.0,0.015496844,0.015518889,-0.7518302
88767482,nan,nan,-0.99891543,-3.1217344,0.0,-0.0193156,-0.05776771,-0.0298689,0.0,0.0,0.0,0.0,0.0,0.0,0.017399663,0.019320376,-0.76149106
88867560,0.65347683,0.7021061,-0.99891543,-3.1217344,0.0,0.00766117,0.031363524,-0.03916967,0.0,0.0,0.0,0.0,0.0,0.0,0.017771736,0.031882808,-0.7639558
88968194,0.65347683,0.7021061,-0.99891543,-3.1217344,0.0,0.01631842,0.07181091,-0.050521493,0.0,0.0,0.0,0.0,0.0,0.0,0.018634304,0.03190283,-0.76777846
89067601,0.65347683,0.7021061,-0.99891543,-3.1217344,0.0,0.022330176,0.10682529,-0.061791003,0.0,0.0,0.0,0.0,0.0,0.0,0.01814998,0.03566411,-0.7731056
89168310,0.65347683,0.7021061,-0.99891543,-3.1217344,0.0,0.027331527,0.13842528,-0.07507783,0.0,0.0,0.0,0.0,0.0,0.0,0.020300038,0.03190201,-0.77859247
89267781,0.65347683,0.7021061,-0.99891543,-3.1217344,0.0,0.031244557,0.16021548,-0.08926791,0.0,0.0,0.0,0.0,0.0,0.0,0.020585801,0.03951739,-0.78879607
89367868,0.65347683,0.7021061,-0.99891543,-3.1217344,0.0,0.034508843,0.17608306,-0.106811464,0.0,0.0,0.0,0.0,0.0,0.0,0.017432109,0.029616216,-0.7955294
89468178,0.65347683,0.7021061,-0.99891543,-3.1217344,0.0,0.036931235,0.18280557,-0.12663645,0.0,0.0,0.0,0.0,0.0,0.0,0.015680052,0.027876329,-0.8064502
89588349,0.65347683,0.7021061,-0.99891543,-3.1217344,0.0,0.03801542,0.18261792,-0.15341103,0.0,0.0,0.0,0.0,0.0,0.0,0.020674279,0.01991113,-0.8188131
89688391,0.65347683,0.7021061,-0.99891543,-3.1217344,0.0,0.03820834,0.17717983,-0.17636418,0.0,0.0,0.0,0.0,0.0,0.0,0.016057648,0.017472463,-0.8143024
89788383,0.65347683,0.7021061,-0.99891543,-3.1217344,0.0,0.038670793,0.1690023,-0.19321269,0.0,0.0,0.0,0.0,0.0,0.0,0.018966762,0.013770847,-0.8111083
89888492,0.65347683,0.7021061,-0.99891543,-3.1217344,0.0,0.03979371,0.15883906,-0.20364988,0.0,0.0,0.0,0.0,0.0,0.0,0.021953512,0.015672099,-0.80261064
89988508,0.65347683,0.7021061,-0.99891543,-3.1217344,0.0,0.042405512,0.14995667,-0.2053259,0.0,0.0,0.0,0.0,0.0,0.0,0.019581055,0.01349715,-0.7890115
90089314,nan,nan,-0.99891543,-3.1217344,0.0,4.6333378e-05,-0.0023328962,-0.19818425,0.0,0.0,0.0,0.0,0.0,0.0,0.01678927,6.126985e-05,-0.7794082
90189161,nan,nan,-0.99891543,-3.1217344,0.0,0.0005716039,-0.028780386,-0.18603772,0.0,0.0,0.0,0.0,0.0,0.0,0.027951531,0.00023167627,-0.772195
90289718,nan,nan,-0.99891543,-3.1217344,0.0,0.0010871183,-0.05473665,-0.16958737,0.0,0.0,0.0,0.0,0.0,0.0,0.023832317,-0.0049631787,-0.76145196
90390243,nan,nan,-0.99891543,-3.1217344,0.0,0.0010767456,-0.054214388,-0.1503678,0.0,0.0,0.0,0.0,0.0,0.0,0.02843039,-0.0061538387,-0.7507375
90489257,nan,nan,-0.99891543,-3.1217344,0.0,0.001076259,-0.054189883,-0.13145941,0.0,0.0,0.0,0.0,0.0,0.0,0.029233418,0.0034619924,-0.7442714
90589607,nan,nan,-0.99891543,-3.1217344,0.0,0.0010762574,-0.054189805,-0.112265825,0.0,0.0,0.0,0.0,0.0,0.0,0.029204387,-0.00056972634,-0.7400067
90689313,0.49921584,0.5519087,-0.99891543,-3.1217344,0.0,0.0,0.0,-0.09751886,0.0,0.0,0.0,0.0,0.0,0.0,0.029915227,0.004298867,-0.7408614
90809590,0.4730281,0.54096854,-0.99891543,-3.1217344,0.0,0.0,0.0,-0.08359063,0.0,0.0,0.0,0.0,0.0,0.0,0.03329549,0.0044943574,-0.73922396
90910698,nan,nan,-0.99891543,-3.1217344,0.0,-0.06973804,-0.008913561,-0.07513803,0.0,0.0,0.0,0.0,0.0,0.0,0.028156687,0.005528398,-0.7417048
91009705,0.4488554,0.52941054,-0.99891543,-3.1217344,0.0,0.013433519,0.007674533,-0.07044095,0.0,0.0,0.0,0.0,0.0,0.0,0.02651783,0.007879157,-0.7459351
91110656,0.4488554,0.52941054,-0.99891543,-3.1217344,0.0,0.028059209,0.016251715,-0.07012838,0.0,0.0,0.0,0.0,0.0,0.0,0.02778124,0.0032077953,-0.75407255
91209964,nan,nan,-0.99891543,-3.1217344,0.0,0.00022232493,-0.011194112,-0.07392031,0.0,0.0,0.0,0.0,0.0,0.0,0.022476206,0.0050511346,-0.7616813
91310062,nan,nan,-0.99891543,-3.1217344,0.0,0.0010971834,-0.055243436,-0.08047199,0.0,0.0,0.0,0.0,0.0,0.0,0.025248893,0.0010151044,-0.7659393
91410035,nan,nan,-0.99891543,-3.1217344,0.0,0.001076831,-0.05421869,-0.08898753,0.0,0.0,0.0,0.0,0.0,0.0,0.018823555,-0.0021610893,-0.7692727
91510151,nan,nan,-0.99891543,-3.1217344,0.0,0.0028124212,-0.14160605,-0.095653,0.0,0.0,0.0,0.0,0.0,0.0,0.020805748,-0.009403914,-0.7718084
91610197,nan,nan,-0.99891543,-3.1217344,0.0,0.0042211013,-0.21253341,-0.101552665,0.0,0.0,0.0,0.0,0.0,0.0,0.017005697,-0.019198393,-0.7720908
91710386,nan,nan,-0.99891543,-3.1217344,0.0,0.004851017,-0.24424982,-0.10576123,0.0,0.0,0.0,0.0,0.0,0.0,0.015439103,-0.018626004,-0.7718098
91810414,nan,nan,-0.99891543,-3.1217344,0.0,0.005422348,-0.27301645,-0.10726261,0.0,0.0,0.0,0.0,0.0,0.0,0.017703148,-0.022488737,-0.76901984
91910701,nan,nan,-0.99891543,-3.1217344,0.0,0.0061309305,-0.30869374,-0.10540068,0.0,0.0,0.0,0.0,0.0,0.0,0.013357714,-0.020338109,-0.7640976
92010716,nan,nan,-0.99891543,-3.1217344,0.0,0.0064493627,-0.32472688,-0.101537466,0.0,0.0,0.0,0.0,0.0,0.0,0.010693489,-0.020452857,-0.76458657
92130972,nan,nan,-0.99891543,-3.1217344,0.0,0.0050185565,-0.25268546,-0.09706265,0.0,0.0,0.0,0.0,0.0,0.0,0.007536511,-0.01779476,-0.76556325
92230986,nan,nan,-0.99891543,-3.1217344,0.0,0.0026572454,-0.1337929,-0.09509039,0.0,0.0,0.0,0.0,0.0,0.0,0.018789504,0.0031966814,-0.7696071
92330998,nan,nan,-0.99891543,-3.1217344,0.0,0.0026929085,-0.13558857,-0.094785035,0.0,0.0,0.0,0.0,0.0,0.0,0.01719265,0.0067402585,-0.77146447
92431024,nan,nan,-0.99891543,-3.1217344,0.0,0.0026906861,-0.13547666,-0.0965904,0.0,0.0,0.0,0.0,0.0,0.0,0.015654659,0.0029860127,-0.77342576
92531149,nan,nan,-0.99891543,-3.1217344,0.0,0.012420071,-0.065487385,-0.100841284,0.0,0.0,0.0,0.0,0.0,0.0,0.014897365,0.012911156,-0.7765729
92631720,0.41578647,0.42107326,-0.99891543,-3.1217344,0.0,-0.002113223,0.017446632,-0.10648674,0.0,0.0,0.0,0.0,0.0,0.0,0.010848625,0.01259828,-0.78001344
92731394,0.41578647,0.42107326,-0.99891543,-3.1217344,0.0,-0.003918268,0.03514663,-0.11360586,0.0,0.0,0.0,0.0,0.0,0.0,0.013351047,0.012923819,-0.78428125
92832456,0.41578647,0.42107326,-0.99891543,-3.1217344,0.0,-0.005967109,0.051414456,-0.12147385,0.0,0.0,0.0,0.0,0.0,0.0,0.014169327,0.014989012,-0.7866434
92931542,0.41578647,0.42107326,-0.99891543,-3.1217344,0.0,-0.00901891,0.0619197,-0.12723374,0.0,0.0,0.0,0.0,0.0,0.0,0.010279531,0.013162101,-0.7826848
93051583,0.41578647,0.42107326,-0.99891543,-3.1217344,0.0,-0.013844187,0.068234734,-0.13105136,0.0,0.0,0.0,0.0,0.0,0.0,0.00963958,0.008058897,-0.7788985
93151673,0.41578647,0.42107326,-0.99891543,-3.1217344,0.0,-0.018965809,0.06724803,-0.13016427,0.0,0.0,0.0,0.0,0.0,0.0,0.010282078,0.0048909495,-0.77510834
93251753,0.41578647,0.42107326,-0.99891543,-3.1217344,0.0,-0.022907265,0.061389327,-0.12549883,0.0,0.0,0.0,0.0,0.0,0.0,0.012608463,0.004434766,-0.76809907
93351864,0.41578647,0.42107326,-0.99891543,-3.1217344,0.0,-0.025585258,0.05082811,-0.11683607,0.0,0.0,0.0,0.0,0.0,0.0,0.013804282,0.00020961091,-0.7615523
93452145,0.41578647,0.42107326,-0.99891543,-3.1217344,0.0,-0.026218886,0.03979844,-0.105632484,0.0,0.0,0.0,0.0,0.0,0.0,0.0152793,-0.0035790547,-0.7541166
93552238,0.41578647,0.42107326,-0.99891543,-3.1217344,0.0,-0.024545409,0.027006334,-0.09111023,0.0,0.0,0.0,0.0,0.0,0.0,0.019794691,-0.0014128422,-0.74712306
93652350,0.41578647,0.42107326,-0.99891543,-3.1217344,0.0,-0.021584066,0.016442314,-0.075111926,0.0,0.0,0.0,0.0,0.0,0.0,0.018677438,-0.0053723427,-0.73904985
93752386,0.41578647,0.42107326,-0.99891543,-3.1217344,0.0,-0.01755187,0.0070347055,-0.05573535,0.0,0.0,0.0,0.0,0.0,0.0,0.018889489,-0.0055643786,-0.72937036
93852443,0.41578647,0.42107326,-0.99891543,-3.1217344,0.0,-0.013390229,0.0006431967,-0.037543356,0.0,0.0,0.0,0.0,0.0,0.0,0.015911656,-0.00332562,-0.72659636
93952490,0.41578647,0.42107326,-0.99891543,-3.1217344,0.0,-0.009280571,-0.0026104136,-0.01998961,0.0,0.0,0.0,0.0,0.0,0.0,0.020384217,0.002149493,-0.72319275
94052607,0.41578647,0.42107326,-0.99891543,-3.1217344,0.0,-0.0049354685,-0.0024789318,-0.002192974,0.0,0.0,0.0,0.0,0.0,0.0,0.024231665,-0.0013114852,-0.7191087
94152656,0.41578647,0.42107326,-0.99891543,-3.1217344,0.0,-0.001093106,0.00035265685,0.012357473,0.0,0.0,0.0,0.0,0.0,0.0,0.015989533,0.0011105534,-0.7190947
94253231,0.41578647,0.42107326,-0.99891543,-3.1217344,0.0,0.0021166205,0.0038759976,0.026022196,0.0,0.0,0.0,0.0,0.0,0.0,0.014591382,0.000106571475,-0.71498984
94353392,0.41578647,0.42107326,-0.99891543,-3.1217344,0.0,0.0034735962,0.0076127276,0.037424803,0.0,0.0,0.0,0.0,0.0,0.0,0.018070387,0.00310894,-0.71574515
94453431,0.41578647,0.42107326,-0.99891543,-3.1217344,0.0,0.002714008,0.010671323,0.04751289,0.0,0.0,0.0,0.0,0.0,0.0,0.015993716,0.00040923338,-0.7174127
94573430,0.41578647,0.42107326,-0.99891543,-3.1217344,0.0,0.00034968407,0.014135605,0.05490005,0.0,0.0,0.0,0.0,0.0,0.0,0.012639938,-0.0025326496,-0.72229874
94673435,0.41578647,0.42107326,-0.99891543,-3.1217344,0.0,-0.003044638,0.015599459,0.057628393,0.0,0.0,0.0,0.0,0.0,0.0,0.015047942,0.005073998,-0.7261996
94773416,0.41578647,0.42107326,-0.99891543,-3.1217344,0.0,-0.007848427,0.01572355,0.05790639,0.0,0.0,0.0,0.0,0.0,0.0,0.012442553,0.00028770848,-0.73253906
94873609,0.41578647,0.42107326,-0.99891543,-3.1217344,0.0,-0.013527175,0.0138225565,0.05525279,0.0,0.0,0.0,0.0,0.0,0.0,0.009524338,-0.00394543,-0.7384019
94973548,0.41578647,0.42107326,-0.99891543,-3.1217344,0.0,-0.021771945,0.009634813,0.050314307,0.0,0.0,0.0,0.0,0.0,0.0,0.008085278,-0.006564172,-0.7450354
95073719,0.41578647,0.42107326,-0.99891543,-3.1217344,0.0,-0.032077532,0.0026251643,0.043013215,0.0,0.0,0.0,0.0,0.0,0.0,0.0037268698,-0.010483533,-0.74996555
95173861,0.41578647,0.42107326,-0.99891543,-3.1217344,0.0,-0.042814877,-0.0059515373,0.034772396,0.0,0.0,0.0,0.0,0.0,0.0,-4.401803e-05,-0.008003354,-0.7545317
95273917,0.41578647,0.42107326,-0.99891543,-3.1217344,0.0,-0.05531605,-0.016220177,0.025551796,0.0,0.0,0.0,0.0,0.0,0.0,0.00016988255,-0.015795529,-0.7592316
95374172,0.41578647,0.42107326,-0.99891543,-3.1217344,0.0,-0.06690321,-0.026826212,0.017251372,0.0,0.0,0.0,0.0,0.0,0.0,-0.00012403075,-0.01451536,-0.7612426
95494113,0.41578647,0.42107326,-0.99891543,-3.1217344,0.0,-0.08107452,-0.042817652,0.007894158,0.0,0.0,0.0,0.0,0.0,0.0,-0.00015580561,-0.016892811,-0.76517427
95594258,0.41578647,0.42107326,-0.99891543,-3.1217344,0.0,-0.0929725,-0.056899067,0.00019228458,0.0,0.0,0.0,0.0,0.0,0.0,-0.0021479903,-0.01958277,-0.7649719
95694222,0.41578647,0.42107326,-0.99891543,-3.1217344,0.0,-0.10338528,-0.06998123,-0.0050287843,0.0,0.0,0.0,0.0,0.0,0.0,-0.001606145,-0.018567467,-0.762403
95794434,0.41578647,0.42107326,-0.99891543,-3.1217344,0.0,-0.112904124,-0.08355827,-0.008057475,0.0,0.0,0.0,0.0,0.0,0.0,-0.0053126663,-0.026426757,-0.7582321
95894530,0.41578647,0.42107326,-0.99891543,-3.1217344,0.0,-0.11974339,-0.09598483,-0.007926464,0.0,0.0,0.0,0.0,0.0,0.0,-0.00091517065,-0.017859219,-0.7547264
95994603,0.41578647,0.42107326,-0.99891543,-3.1217344,0.0,-0.12482345,-0.107185654,-0.0053643584,0.0,0.0,0.0,0.0,0.0,0.0,-0.002452028,-0.024583304,-0.75306267
96094666,0.41578647,0.42107326,-0.99891543,-3.1217344,0.0,-0.12677002,-0.11668587,-0.0028511882,0.0,0.0,0.0,0.0,0.0,0.0,0.0014018733,-0.020902107,-0.75404966
96194731,0.41578647,0.42107326,-0.99891543,-3.1217344,0.0,-0.12623957,-0.12342321,-0.0014163852,0.0,0.0,0.0,0.0,0.0,0.0,0.001587796,-0.015176852,-0.75592613
96294785,0.41578647,0.42107326,-0.99891543,-3.1217344,0.0,-0.12423512,-0.1273675,-0.0019245148,0.0,0.0,0.0,0.0,0.0,0.0,0.0022244807,-0.022286408,-0.75713176
96394936,0.41578647,0.42107326,-0.99891543,-3.1217344,0.0,-0.12083851,-0.1279775,-0.005524099,0.0,0.0,0.0,0.0,0.0,0.0,0.006366178,-0.0066345828,-0.76386195
96494985,0.41578647,0.42107326,-0.99891543,-3.1217344,0.0,-0.116702095,-0.12502432,-0.011617899,0.0,0.0,0.0,0.0,0.0,0.0,0.006679467,-0.011065049,-0.7674266
96595562,0.41578647,0.42107326,-0.99891543,-3.1217344,0.0,-0.11084911,-0.120064646,-0.020614207,0.0,0.0,0.0,0.0,0.0,0.0,0.009613144,-0.014845817,-0.76848674
96715954,0.41578647,0.42107326,-0.99891543,-3.1217344,0.0,-0.102218136,-0.11154998,-0.03147012,0.0,0.0,0.0,0.0,0.0,0.0,0.011149864,-0.009425223,-0.77093065
96816638,0.41578647,0.42107326,-0.99891543,-3.1217344,0.0,-0.09340483,-0.104015194,-0.038220584,0.0,0.0,0.0,0.0,0.0,0.0,0.011092274,-0.00881842,-0.7662585
96915517,0.41578647,0.42107326,-0.99891543,-3.1217344,0.0,-0.084257156,-0.09723527,-0.041520298,0.0,0.0,0.0,0.0,0.0,0.0,0.015941175,-0.010931689,-0.76355565
97016475,0.41578647,0.42107326,-0.99891543,-3.1217344,0.0,-0.07415635,-0.09099894,-0.042301714,0.0,0.0,0.0,0.0,0.0,0.0,0.018977754,-0.0080581885,-0.762235
97115620,0.41578647,0.42107326,-0.99891543,-3.1217344,0.0,-0.06493659,-0.08684084,-0.040944874,0.0,0.0,0.0,0.0,0.0,0.0,0.016859462,-0.006368437,-0.7609951
97216468,0.41578647,0.42107326,-0.99891543,-3.1217344,0.0,-0.054947678,-0.08483413,-0.038796127,0.0,0.0,0.0,0.0,0.0,0.0,0.012984291,-0.011840437,-0.75825715
97315861,0.41578647,0.42107326,-0.99891543,-3.1217344,0.0,-0.04567226,-0.08430741,-0.036316276,0.0,0.0,0.0,0.0,0.0,0.0,0.018618146,-0.010463189,-0.75569034
97416651,0.41578647,0.42107326,-0.99891543,-3.1217344,0.0,-0.03626734,-0.084606044,-0.03265959,0.0,0.0,0.0,0.0,0.0,0.0,0.018356401,-0.013759042,-0.7537775
97516299,0.41578647,0.42107326,-0.99891543,-3.1217344,0.0,-0.028457107,-0.08556855,-0.028397739,0.0,0.0,0.0,0.0,0.0,0.0,0.021137938,-0.012145155,-0.7495092
97616460,0.41578647,0.42107326,-0.99891543,-3.1217344,0.0,-0.021142224,-0.08477467,-0.022159219,0.0,0.0,0.0,0.0,0.0,0.0,0.017675014,-0.0053220526,-0.743027
97716396,0.41578647,0.42107326,-0.99891543,-3.1217344,0.0,-0.0157744,-0.08238614,-0.015287578,0.0,0.0,0.0,0.0,0.0,0.0,0.02001436,-0.0034087303,-0.74317443
97816359,0.41578647,0.42107326,-0.99891543,-3.1217344,0.0,-0.010130023,-0.07663265,-0.008292317,0.0,0.0,0.0,0.0,0.0,0.0,0.02032676,-0.0017188704,-0.7419042
97916538,0.41578647,0.42107326,-0.99891543,-3.1217344,0.0,-0.005085835,-0.068047024,-0.0024070144,0.0,0.0,0.0,0.0,0.0,0.0,0.018282779,0.0014352733,-0.73840374
98036604,0.41578647,0.42107326,-0.99891543,-3.1217344,0.0,0.0008426279,-0.05364611,0.0034242868,0.0,0.0,0.0,0.0,0.0,0.0,0.020659497,0.0056768428,-0.74111664
98136631,0.41578647,0.42107326,-0.99891543,-3.1217344,0.0,0.005777559,-0.037487287,0.0047872066,0.0,0.0,0.0,0.0,0.0,0.0,0.019249938,0.00743008,-0.7487023
98236961,0.41578647,0.42107326,-0.99891543,-3.1217344,0.0,0.009781669,-0.020095918,0.0022449493,0.0,0.0,0.0,0.0,0.0,0.0,0.018542144,0.011128279,-0.7536402
98337056,0.41578647,0.42107326,-0.99891543,-3.1217344,0.0,0.013251216,0.00035611092,-0.004661143,0.0,0.0,0.0,0.0,0.0,0.0,0.017149922,0.008209058,-0.7606998
98437177,0.41578647,0.42107326,-0.99891543,-3.1217344,0.0,0.015490485,0.019572822,-0.013488948,0.0,0.0,0.0,0.0,0.0,0.0,0.01588189,0.013902245,-0.7653835
98537227,0.41578647,0.42107326,-0.99891543,-3.1217344,0.0,0.016942024,0.038994063,-0.023687482,0.0,0.0,0.0,0.0,0.0,0.0,0.017957773,0.01514162,-0.76581097
98637376,0.41578647,0.42107326,-0.99891543,-3.1217344,0.0,0.01723296,0.054710735,-0.031852663,0.0,0.0,0.0,0.0,0.0,0.0,0.016620252,0.013116165,-0.76590806
98737888,0.41578647,0.42107326,-0.99891543,-3.1217344,0.0,0.015993254,0.06934789,-0.038153946,0.0,0.0,0.0,0.0,0.0,0.0,0.013834801,0.014102178,-0.76668376
98837574,0.41578647,0.42107326,-0.99891543,-3.1217344,0.0,0.013256823,0.0807307,-0.041179538,0.0,0.0,0.0,0.0,0.0,0.0,0.012020938,0.015008869,-0.76239306
98937833,0.41578647,0.42107326,-0.99891543,-3.1217344,0.0,0.009084141,0.08998403,-0.042353332,0.0,0.0,0.0,0.0,0.0,0.0,0.014675151,0.015102294,-0.76304257
99037801,0.41578647,0.42107326,-0.99891543,-3.1217344,0.0,0.0047340556,0.09604024,-0.04161644,0.0,0.0,0.0,0.0,0.0,0.0,0.012791907,0.01519298,-0.7618934
99137900,0.41578647,0.42107326,-0.99891543,-3.1217344,0.0,0.000730285,0.09934283,-0.040189445,0.0,0.0,0.0,0.0,0.0,0.0,0.010104197,0.0077582253,-0.759635
99257994,0.41578647,0.42107326,-0.99891543,-3.1217344,0.0,-0.002140884,0.10322607,-0.039250374,0.0,0.0,0.0,0.0,0.0,0.0,0.013118512,0.016445324,-0.764184
99358269,0.41578647,0.42107326,-0.99891543,-3.1217344,0.0,-0.0019212096,0.10607527,-0.041186035,0.0,0.0,0.0,0.0,0.0,0.0,0.012010454,0.012918142,-0.76720357
99458018,0.41578647,0.42107326,-0.99891543,-3.1217344,0.0,0.00062660576,0.108793244,-0.045300364,0.0,0.0,0.0,0.0,0.0,0.0,0.019495994,0.016920373,-0.7687557
99558223,0.41578647,0.42107326,-0.99891543,-3.1217344,0.0,0.00483966,0.11053224,-0.0498603,0.0,0.0,0.0,0.0,0.0,0.0,0.018915659,0.011099985,-0.768484
99659158,0.41578647,0.42107326,-0.99891543,-3.1217344,0.0,0.010607196,0.111373425,-0.05336368,0.0,0.0,0.0,0.0,0.0,0.0,0.016022345,0.010834525,-0.7628288
99758584,0.41578647,0.42107326,-0.99891543,-3.1217344,0.0,0.016890638,0.11227067,-0.053784013,0.0,0.0,0.0,0.0,0.0,0.0,0.020797245,0.008830481,-0.7602439
99858618,0.41578647,0.42107326,-0.99891543,-3.1217344,0.0,0.023543099,0.112664916,-0.049963474,0.0,0.0,0.0,0.0,0.0,0.0,0.022726558,0.009008395,-0.75411487
99958785,0.41578647,0.42107326,-0.99891543,-3.1217344,0.0,0.029551232,0.11209635,-0.043016016,0.0,0.0,0.0,0.0,0.0,0.0,0.022137716,0.008666845,-0.7468642
100058754,0.41578647,0.42107326,-0.99891543,-3.1217344,0.0,0.03542531,0.108765334,-0.03210199,0.0,0.0,0.0,0.0,0.0,0.0,0.023999054,0.0039198147,-0.74373084
100158786,0.41578647,0.42107326,-0.99891543,-3.1217344,0.0,0.040250357,0.10343032,-0.020116866,0.0,0.0,0.0,0.0,0.0,0.0,0.022437073,-0.001079414,-0.7372266
100258867,0.41578647,0.42107326,-0.99891543,-3.1217344,0.0,0.045273226,0.09519871,-0.007132709,0.0,0.0,0.0,0.0,0.0,0.0,0.022528905,0.0010110026,-0.73401046
100378912,0.41578647,0.42107326,-0.99891543,-3.1217344,0.0,0.05020275,0.08398632,0.0057542324,0.0,0.0,0.0,0.0,0.0,0.0,0.018301366,-0.0072234343,-0.73662066
100479215,0.41578647,0.42107326,-0.99891543,-3.1217344,0.0,0.053735662,0.073400155,0.01188314,0.0,0.0,0.0,0.0,0.0,0.0,0.024740849,0.0021344954,-0.7415047
100579720,0.41578647,0.42107326,-0.99891543,-3.1217344,0.0,0.056876305,0.062271252,0.0137399435,0.0,0.0,0.0,0.0,0.0,0.0,0.021253755,-0.0024502217,-0.74635684
100679646,0.41578647,0.42107326,-0.99891543,-3.1217344,0.0,0.057868563,0.05214845,0.0112730265,0.0,0.0,0.0,0.0,0.0,0.0,0.019640703,-0.0065827104,-0.7522311
100780020,0.41578647,0.42107326,-0.99891543,-3.1217344,0.0,0.056276795,0.041783437,0.0050143003,0.0,0.0,0.0,0.0,0.0,0.0,0.019366995,-0.0019962285,-0.7582047
100880182,0.41578647,0.42107326,-0.99891543,-3.1217344,0.0,0.052235965,0.03353309,-0.0026810765,0.0,0.0,0.0,0.0,0.0,0.0,0.01579654,-0.0070535163,-0.7623682
100979974,0.41578647,0.42107326,-0.99891543,-3.1217344,0.0,0.045635905,0.024861032,-0.0123640895,0.0,0.0,0.0,0.0,0.0,0.0,0.01087399,-0.007565,-0.76549983
101080018,0.41578647,0.42107326,-0.99891543,-3.1217344,0.0,0.037359852,0.01776486,-0.021313488,0.0,0.0,0.0,0.0,0.0,0.0,0.008917166,-0.0033316633,-0.7694069
101180138,0.41578647,0.42107326,-0.99891543,-3.1217344,0.0,0.025629964,0.010289675,-0.029017031,0.0,0.0,0.0,0.0,0.0,0.0,0.0077909203,-0.008363815,-0.7683526
101280028,0.41578647,0.42107326,-0.99891543,-3.1217344,0.0,0.012622742,0.0026520044,-0.034425735,0.0,0.0,0.0,0.0,0.0,0.0,0.0018596379,-0.009416402,-0.7685599
101400244,0.41578647,0.42107326,-0.99891543,-3.1217344,0.0,-0.0051734326,-0.006247286,-0.038347423,0.0,0.0,0.0,0.0,0.0,0.0,0.0045346087,-0.009211497,-0.76957715
101500233,0.41578647,0.42107326,-0.99891543,-3.1217344,0.0,-0.02098325,-0.0140692415,-0.040543377,0.0,0.0,0.0,0.0,0.0,0.0,0.0010041082,-0.010072194,-0.7672986
101600444,0.41578647,0.42107326,-0.99891543,-3.1217344,0.0,-0.036078837,-0.021525543,-0.041502416,0.0,0.0,0.0,0.0,0.0,0.0,-7.067807e-06,-0.010285623,-0.76769865
101700319,0.41578647,0.42107326,-0.99891543,-3.1217344,0.0,-0.049176432,-0.027878491,-0.04174745,0.0,0.0,0.0,0.0,0.0,0.0,-6.568711e-05,-0.010521768,-0.76653767
101801024,0.41578647,0.42107326,-0.99891543,-3.1217344,0.0,-0.062093057,-0.03581378,-0.04236579,0.0,0.0,0.0,0.0,0.0,0.0,-0.0015160264,-0.014533349,-0.76861286
101900509,0.41578647,0.42107326,-0.99891543,-3.1217344,0.0,-0.07241563,-0.043218892,-0.044803083,0.0,0.0,0.0,0.0,0.0,0.0,-0.0038389405,-0.012580179,-0.7711699
102000926,0.41578647,0.42107326,-0.99891543,-3.1217344,0.0,-0.08199059,-0.05267888,-0.048528373,0.0,0.0,0.0,0.0,0.0,0.0,-0.0028932616,-0.017417587,-0.77213407
102100635,0.41578647,0.42107326,-0.99891543,-3.1217344,0.0,-0.08908478,-0.061606172,-0.052333713,0.0,0.0,0.0,0.0,0.0,0.0,-0.0017999541,-0.011662316,-0.77316535
102200809,0.41578647,0.42107326,-0.99891543,-3.1217344,0.0,-0.095227,-0.07141808,-0.05625099,0.0,0.0,0.0,0.0,0.0,0.0,0.001404616,-0.016277486,-0.77282614
102320969,0.41578647,0.42107326,-0.99891543,-3.1217344,0.0,-0.10072546,-0.08226219,-0.059653103,0.0,0.0,0.0,0.0,0.0,0.0,0.002484532,-0.010664892,-0.7726685
102421057,0.41578647,0.42107326,-0.99891543,-3.1217344,0.0,-0.10374184,-0.08813839,-0.061231613,0.0,0.0,0.0,0.0,0.0,0.0,-0.0046125157,-0.015456227,-0.7673676
102521725,0.41578647,0.42107326,-0.99891543,-3.1217344,0.0,-0.10643269,-0.092025995,-0.06038302,0.0,0.0,0.0,0.0,0.0,0.0,-0.0059463633,-0.0130297635,-0.76381433
102621154,0.41578647,0.42107326,-0.99891543,-3.1217344,0.0,-0.10876488,-0.09301239,-0.057049096,0.0,0.0,0.0,0.0,0.0,0.0,-0.0078956485,-0.008904659,-0.75988173
102721248,0.41578647,0.42107326,-0.99891543,-3.1217344,0.0,-0.110685915,-0.090677485,-0.052190363,0.0,0.0,0.0,0.0,0.0,0.0,0.0037072864,-0.0065740747,-0.7575145
102821330,0.41578647,0.42107326,-0.99891543,-3.1217344,0.0,-0.11276403,-0.084725805,-0.045536757,0.0,0.0,0.0,0.0,0.0,0.0,-0.0024958132,-0.006127981,-0.75493103
102921421,0.41578647,0.42107326,-0.99891543,-3.1217344,0.0,-0.11466463,-0.07587173,-0.038855672,0.0,0.0,0.0,0.0,0.0,0.0,-0.00081605,0.0034352979,-0.7518902
103021614,0.41578647,0.42107326,-0.99891543,-3.1217344,0.0,-0.11643148,-0.0619977,-0.03227669,0.0,0.0,0.0,0.0,0.0,0.0,0.002255313,0.0009902627,-0.75221515
103121955,0.41578647,0.42107326,-0.99891543,-3.1217344,0.0,-0.1182403,-0.046125766,-0.027496517,0.0,0.0,0.0,0.0,0.0,0.0,0.0003342405,0.009580274,-0.75396204
103222156,0.41578647,0.42107326,-0.99891543,-3.1217344,0.0,-0.11949532,-0.0273392,-0.023973405,0.0,0.0,0.0,0.0,0.0,0.0,-0.00016232673,0.00920076,-0.7513177
103322121,0.41578647,0.42107326,-0.99891543,-3.1217344,0.0,-0.120323166,-0.0076416624,-0.022298992,0.0,0.0,0.0,0.0,0.0,0.0,-0.0032114023,0.013517769,-0.7541371
103421959,0.41578647,0.42107326,-0.99891543,-3.1217344,0.0,-0.12114246,0.00977476,-0.021705687,0.0,0.0,0.0,0.0,0.0,0.0,-0.00024589896,0.0078069386,-0.75328445
103522015,0.41578647,0.42107326,-0.99891543,-3.1217344,0.0,-0.12128924,0.027211597,-0.022024512,0.0,0.0,0.0,0.0,0.0,0.0,-0.0051175766,0.014877631,-0.7542786
103643433,0.41578647,0.42107326,-0.99891543,-3.1217344,0.0,-0.11975613,0.044951007,-0.024127066,0.0,0.0,0.0,0.0,0.0,0.0,0.0012287721,0.016189868,-0.76210403
103742251,0.41578647,0.42107326,-0.99891543,-3.1217344,0.0,-0.11675158,0.056401398,-0.026193976,0.0,0.0,0.0,0.0,0.0,0.0,0.00024981704,0.0151468115,-0.75818557
103842400,0.41578647,0.42107326,-0.99891543,-3.1217344,0.0,-0.111431494,0.065661326,-0.027663946,0.0,0.0,0.0,0.0,0.0,0.0,-0.000679357,0.014835602,-0.7578225
103942626,0.41578647,0.42107326,-0.99891543,-3.1217344,0.0,-0.105008185,0.07160585,-0.027622044,0.0,0.0,0.0,0.0,0.0,0.0,0.009706147,0.010302595,-0.7564272
104042719,0.41578647,0.42107326,-0.99891543,-3.1217344,0.0,-0.09760998,0.074631006,-0.024696648,0.0,0.0,0.0,0.0,0.0,0.0,0.007285796,0.011857191,-0.75107014
104142958,0.41578647,0.42107326,-0.99891543,-3.1217344,0.0,-0.090204015,0.07613152,-0.019595444,0.0,0.0,0.0,0.0,0.0,0.0,0.010102592,0.011539103,-0.74819314
104242894,0.41578647,0.42107326,-0.99891543,-3.1217344,0.0,-0.0816005,0.074771434,-0.012087941,0.0,0.0,0.0,0.0,0.0,0.0,0.008596404,0.0044313916,-0.7438233
104342857,0.41578647,0.42107326,-0.99891543,-3.1217344,0.0,-0.072681904,0.072585784,-0.004664302,0.0,0.0,0.0,0.0,0.0,0.0,0.01289249,0.0095818415,-0.74586713
104442955,0.41578647,0.42107326,-0.99891543,-3.1217344,0.0,-0.062357746,0.06928311,0.0012930632,0.0,0.0,0.0,0.0,0.0,0.0,0.0136722885,0.0017465951,-0.7456994
104543345,0.41578647,0.42107326,-0.99891543,-3.1217344,0.0,-0.050391167,0.06454186,0.006395459,0.0,0.0,0.0,0.0,0.0,0.0,0.015941374,0.0019340073,-0.7476501
104643334,0.41578647,0.42107326,-0.99891543,-3.1217344,0.0,-0.038491096,0.06017864,0.008824348,0.0,0.0,0.0,0.0,0.0,0.0,0.017132895,0.0018495857,-0.7484841
104743530,0.41578647,0.42107326,-0.99891543,-3.1217344,0.0,-0.02415252,0.053663608,0.009454608,0.0,0.0,0.0,0.0,0.0,0.0,0.019836126,-0.0032168615,-0.74974144
104863543,0.41578647,0.42107326,-0.99891543,-3.1217344,0.0,-0.006789975,0.045656744,0.009067297,0.0,0.0,0.0,0.0,0.0,0.0,0.021882294,-0.0010698017,-0.75194395
104963534,0.41578647,0.42107326,-0.99891543,-3.1217344,0.0,0.0064244075,0.038190562,0.008583188,0.0,0.0,0.0,0.0,0.0,0.0,0.024951119,-0.0027119133,-0.7524046
105063692,0.41578647,0.42107326,-0.99891543,-3.1217344,0.0,0.02000481,0.02942026,0.006900668,0.0,0.0,0.0,0.0,0.0,0.0,0.02544744,-0.0019074446,-0.7556776
105163755,0.41578647,0.42107326,-0.99891543,-3.1217344,0.0,0.031669296,0.021489559,0.0045177937,0.0,0.0,0.0,0.0,0.0,0.0,0.025037307,-0.003718577,-0.7571131
105263745,0.41578647,0.42107326,-0.99891543,-3.1217344,0.0,0.04303376,0.013138392,0.002114892,0.0,0.0,0.0,0.0,0.0,0.0,0.02581177,-0.008880211,-0.75753045
105363866,0.41578647,0.42107326,-0.99891543,-3.1217344,0.0,0.052086785,0.004600365,0.00018274784,0.0,0.0,0.0,0.0,0.0,0.0,0.022736691,-0.00771346,-0.7569505
105464229,0.41578647,0.42107326,-0.99891543,-3.1217344,0.0,0.060697746,-0.0036663173,-0.0022649765,0.0,0.0,0.0,0.0,0.0,0.0,0.021633072,-0.0078035286,-0.7614279
105564588,0.41578647,0.42107326,-0.99891543,-3.1217344,0.0,0.0678654,-0.0113903405,-0.0062054396,0.0,0.0,0.0,0.0,0.0,0.0,0.017002434,-0.0098568,-0.7637044
105664338,0.41578647,0.42107326,-0.99891543,-3.1217344,0.0,0.07240798,-0.017917322,-0.010629058,0.0,0.0,0.0,0.0,0.0,0.0,0.022942187,-0.0082855215,-0.76778156
105764464,0.41578647,0.42107326,-0.99891543,-3.1217344,0.0,0.07444473,-0.024510132,-0.016006231,0.0,0.0,0.0,0.0,0.0,0.0,0.016045626,-0.01030562,-0.76721394
105864451,0.41578647,0.42107326,-0.99891543,-3.1217344,0.0,0.07338812,-0.030250715,-0.021261692,0.0,0.0,0.0,0.0,0.0,0.0,0.020219587,-0.005415276,-0.770049
105984515,0.41578647,0.42107326,-0.99891543,-3.1217344,0.0,0.068533204,-0.035353538,-0.02729851,0.0,0.0,0.0,0.0,0.0,0.0,0.019677078,-0.004083625,-0.77163553
106085454,0.41578647,0.42107326,-0.99891543,-3.1217344,0.0,0.06166353,-0.037764914,-0.0317297,0.0,0.0,0.0,0.0,0.0,0.0,0.017395487,-0.003119755,-0.77199364
106184667,0.41578647,0.42107326,-0.99891543,-3.1217344,0.0,0.054437295,-0.037990987,-0.036000192,0.0,0.0,0.0,0.0,0.0,0.0,0.0054746526,-0.0039103255,-0.77109396
106285051,0.41578647,0.42107326,-0.99891543,-3.1217344,0.0,0.046309482,-0.037260845,-0.039295375,0.0,0.0,0.0,0.0,0.0,0.0,0.012050858,-0.0023172824,-0.77251816
106385307,0.41578647,0.42107326,-0.99891543,-3.1217344,0.0,0.03726348,-0.03314725,-0.0421921,0.0,0.0,0.0,0.0,0.0,0.0,0.010702068,0.0030614333,-0.77215827
106485172,0.41578647,0.42107326,-0.99891543,-3.1217344,0.0,0.029082468,-0.028017193,-0.04500568,0.0,0.0,0.0,0.0,0.0,0.0,0.007551963,-0.002045609,-0.7716049
106585234,0.41578647,0.42107326,-0.99891543,-3.1217344,0.0,0.020785237,-0.02134681,-0.04687977,0.0,0.0,0.0,0.0,0.0,0.0,0.0058775935,-0.00023290294,-0.770071
106685194,0.41578647,0.42107326,-0.99891543,-3.1217344,0.0,0.014452164,-0.0148048485,-0.047703207,0.0,0.0,0.0,0.0,0.0,0.0,0.010244487,0.004454142,-0.7684343
106785340,0.41578647,0.42107326,-0.99891543,-3.1217344,0.0,0.009446056,-0.008985558,-0.04833436,0.0,0.0,0.0,0.0,0.0,0.0,0.012827979,0.0043182247,-0.7733213
106885414,0.41578647,0.42107326,-0.99891543,-3.1217344,0.0,0.00743051,-0.0042862413,-0.0500955,0.0,0.0,0.0,0.0,0.0,0.0,0.010956147,-0.0006029004,-0.7723762
106985560,0.41578647,0.42107326,-0.99891543,-3.1217344,0.0,0.007820539,-0.0018467485,-0.05340755,0.0,0.0,0.0,0.0,0.0,0.0,0.013768908,0.0038469436,-0.7746204
107085746,0.41578647,0.42107326,-0.99891543,-3.1217344,0.0,0.009586598,-0.00046146064,-0.056550503,0.0,0.0,0.0,0.0,0.0,0.0,0.013063586,-0.0006968801,-0.77573025
107206148,0.41578647,0.42107326,-0.99891543,-3.1217344,0.0,0.014356978,-0.0008345872,-0.061318398,0.0,0.0,0.0,0.0,0.0,0.0,0.018857222,0.0021552944,-0.77383316
107306105,0.41578647,0.42107326,-0.99891543,-3.1217344,0.0,0.01930077,-0.00334588,-0.06300056,0.0,0.0,0.0,0.0,0.0,0.0,0.016219243,-0.004645535,-0.76842374
107406115,0.41578647,0.42107326,-0.99891543,-3.1217344,0.0,0.024908569,-0.006310026,-0.061235547,0.0,0.0,0.0,0.0,0.0,0.0,0.018223802,-0.0028929263,-0.7653909
107506171,0.41578647,0.42107326,-0.99891543,-3.1217344,0.0,0.03191298,-0.011721848,-0.057354152,0.0,0.0,0.0,0.0,0.0,0.0,0.01912011,-0.011165563,-0.75888467
107606412,0.41578647,0.42107326,-0.99891543,-3.1217344,0.0,0.038250327,-0.018957485,-0.051597595,0.0,0.0,0.0,0.0,0.0,0.0,0.020412624,-0.004752444,-0.7599783
107706213,0.41578647,0.42107326,-0.99891543,-3.1217344,0.0,0.044851657,-0.026294367,-0.04609847,0.0,0.0,0.0,0.0,0.0,0.0,0.020235991,-0.009682542,-0.7591132
107806882,0.41578647,0.42107326,-0.99891543,-3.1217344,0.0,0.050604414,-0.033373266,-0.04127103,0.0,0.0,0.0,0.0,0.0,0.0,0.021463,-0.009004461,-0.7563882
107906575,0.41578647,0.42107326,-0.99891543,-3.1217344,0.0,0.054217193,-0.038585942,-0.03655988,0.0,0.0,0.0,0.0,0.0,0.0,0.017851692,0.0001306372,-0.7548274
108006913,0.41578647,0.42107326,-0.99891543,-3.1217344,0.0,0.056338374,-0.041048255,-0.032489836,0.0,0.0,0.0,0.0,0.0,0.0,0.018624922,-0.0033522113,-0.7545837
108106765,0.41578647,0.42107326,-0.99891543,-3.1217344,0.0,0.057449147,-0.040758844,-0.030374825,0.0,0.0,0.0,0.0,0.0,0.0,0.022109535,0.0010100037,-0.75751317
108206794,0.41578647,0.42107326,-0.99891543,-3.1217344,0.0,0.057211097,-0.03628744,-0.028148472,0.0,0.0,0.0,0.0,0.0,0.0,0.01823929,0.0048083747,-0.75507736
108306801,0.41578647,0.42107326,-0.99891543,-3.1217344,0.0,0.055347532,-0.028478937,-0.026289105,0.0,0.0,0.0,0.0,0.0,0.0,0.01765072,0.0067759263,-0.7565962
108426987,0.41578647,0.42107326,-0.99891543,-3.1217344,0.0,0.050194737,-0.014912435,-0.02394867,0.0,0.0,0.0,0.0,0.0,0.0,0.012934419,0.0059460653,-0.7544575
108527036,0.41578647,0.42107326,-0.99891543,-3.1217344,0.0,0.042936478,-0.001344037,-0.02048546,0.0,0.0,0.0,0.0,0.0,0.0,0.011183975,0.008669782,-0.7503034
108627197,0.41578647,0.42107326,-0.99891543,-3.1217344,0.0,0.033891577,0.0112329805,-0.015681982,0.0,0.0,0.0,0.0,0.0,0.0,0.008046834,0.009755438,-0.74536645
108727498,0.41578647,0.42107326,-0.99891543,-3.1217344,0.0,0.02192551,0.022734419,-0.008410931,0.0,0.0,0.0,0.0,0.0,0.0,0.0053421864,0.011666162,-0.7461746
108827525,0.41578647,0.42107326,-0.99891543,-3.1217344,0.0,0.009823628,0.031398237,-0.0017410517,0.0,0.0,0.0,0.0,0.0,0.0,0.0045602387,0.008536818,-0.7459083
108927661,0.41578647,0.42107326,-0.99891543,-3.1217344,0.0,-0.00320061,0.037724003,0.004558563,0.0,0.0,0.0,0.0,0.0,0.0,0.0047902316,0.0074538114,-0.74351335
109027599,0.41578647,0.42107326,-0.99891543,-3.1217344,0.0,-0.015074551,0.039765086,0.011013031,0.0,0.0,0.0,0.0,0.0,0.0,0.0042142933,0.008685401,-0.7426453
109127621,0.41578647,0.42107326,-0.99891543,-3.1217344,0.0,-0.025356865,0.03925224,0.014966726,0.0,0.0,0.0,0.0,0.0,0.0,0.008241026,0.008166361,-0.74736714
109227728,0.41578647,0.42107326,-0.99891543,-3.1217344,0.0,-0.033135757,0.035960663,0.015663624,0.0,0.0,0.0,0.0,0.0,0.0,0.011141463,0.0016899655,-0.75651395
109327852,0.41578647,0.42107326,-0.99891543,-3.1217344,0.0,-0.037077326,0.030316541,0.0126212835,0.0,0.0,0.0,0.0,0.0,0.0,0.007386653,0.003768328,-0.75724334
109427994,0.41578647,0.42107326,-0.99891543,-3.1217344,0.0,-0.036939047,0.023434551,0.006729722,0.0,0.0,0.0,0.0,0.0,0.0,0.009208452,-0.0012995335,-0.76106226
109528432,0.41578647,0.42107326,-0.99891543,-3.1217344,0.0,-0.034047127,0.016655816,0.00083631277,0.0,0.0,0.0,0.0,0.0,0.0,0.009506274,0.0014009539,-0.76170266
109628519,0.41578647,0.42107326,-0.99891543,-3.1217344,0.0,-0.029003704,0.010442589,-0.0049371123,0.0,0.0,0.0,0.0,0.0,0.0,0.007921282,0.0006834613,-0.76022154
109728515,0.41578647,0.42107326,-0.99891543,-3.1217344,0.0,-0.024411378,0.005664876,-0.008022726,0.0,0.0,0.0,0.0,0.0,0.0,0.011151172,-0.0012239693,-0.7622769
109848755,0.41578647,0.42107326,-0.99891543,-3.1217344,0.0,-0.020715842,0.001485683,-0.009843469,0.0,0.0,0.0,0.0,0.0,0.0,0.010255601,-0.0018376058,-0.7624744
109948597,0.41578647,0.42107326,-0.99891543,-3.1217344,0.0,-0.019914692,-0.00012613088,-0.01091212,0.0,0.0,0.0,0.0,0.0,0.0,0.00997397,0.00032742546,-0.7632303
110049554,0.41578647,0.42107326,-0.99891543,-3.1217344,0.0,-0.022475079,-0.0012232289,-0.01151073,0.0,0.0,0.0,0.0,0.0,0.0,0.003985625,-0.005786768,-0.7621796
110148625,0.41578647,0.42107326,-0.99891543,-3.1217344,0.0,-0.027205283,-0.0016384274,-0.0118076205,0.0,0.0,0.0,0.0,0.0,0.0,-0.0009706635,-0.0012386887,-0.760355
110249408,0.41578647,0.42107326,-0.99891543,-3.1217344,0.0,-0.0350158,-0.0027574673,-0.012123585,0.0,0.0,0.0,0.0,0.0,0.0,0.001600924,-0.008817433,-0.76221
110348956,0.41578647,0.42107326,-0.99891543,-3.1217344,0.0,-0.043919563,-0.0030258105,-0.013317108,0.0,0.0,0.0,0.0,0.0,0.0,-0.0018343544,-0.0014004345,-0.76260376
110449599,0.41578647,0.42107326,-0.99891543,-3.1217344,0.0,-0.05474935,-0.0036171675,-0.01534009,0.0,0.0,0.0,0.0,0.0,0.0,-0.0018877117,-0.0069119977,-0.76361895
110549168,0.41578647,0.42107326,-0.99891543,-3.1217344,0.0,-0.06574326,-0.005204208,-0.015938103,0.0,0.0,0.0,0.0,0.0,0.0,-0.0051307175,-0.0018758617,-0.7593405
110649387,0.41578647,0.42107326,-0.99891543,-3.1217344,0.0,-0.07703635,-0.0068242326,-0.014014125,0.0,0.0,0.0,0.0,0.0,0.0,-0.012776564,-0.005784627,-0.74655396
110769607,0.41578647,0.42107326,-0.99891543,-3.1217344,0.0,-0.09206181,-0.00987861,0.001873374,0.0,0.0,0.0,0.0,0.0,0.0,0.0048876996,-0.015685642,-0.74616325
110869426,0.41578647,0.42107326,-0.99891543,-3.1217344,0.0,-0.09757187,-0.012682453,-0.0010169148,0.0,0.0,0.0,0.0,0.0,0.0,-0.008193525,-0.0053417133,-0.7716929
110969468,0.41578647,0.42107326,-0.99891543,-3.1217344,0.0,-0.105159774,-0.015630603,0.00023663044,0.0,0.0,0.0,0.0,0.0,0.0,-0.0021861028,-0.006722704,-0.75492585
111069966,0.41578647,0.42107326,-0.99891543,-3.1217344,0.0,-0.10774553,-0.018349055,-0.005515814,0.0,0.0,0.0,0.0,0.0,0.0,0.0013636486,-0.0063755955,-0.77309275
111169774,0.41578647,0.42107326,-0.99891543,-3.1217344,0.0,-0.110234566,-0.021795925,-0.015146613,0.0,0.0,0.0,0.0,0.0,0.0,-0.004896569,-0.0075223194,-0.7737901
111269876,0.41578647,0.42107326,-0.99891543,-3.1217344,0.0,-0.10977868,-0.025193192,-0.027589798,0.0,0.0,0.0,0.0,0.0,0.0,0.0005948092,-0.008470262,-0.7818047
111369971,0.41578647,0.42107326,-0.99891543,-3.1217344,0.0,-0.10661672,-0.031095862,-0.041970372,0.0,0.0,0.0,0.0,0.0,0.0,0.0045784307,-0.011652015,-0.7897862
111469976,0.41578647,0.42107326,-0.99891543,-3.1217344,0.0,-0.10037994,-0.037634227,-0.056634247,0.0,0.0,0.0,0.0,0.0,0.0,0.005094857,-0.01253695,-0.7932637
111570071,0.41578647,0.42107326,-0.99891543,-3.1217344,0.0,-0.09044201,-0.045320198,-0.07137948,0.0,0.0,0.0,0.0,0.0,0.0,0.010421478,-0.010864537,-0.7950412
111670171,0.41578647,0.42107326,-0.99891543,-3.1217344,0.0,-0.07874463,-0.051777616,-0.08212477,0.0,0.0,0.0,0.0,0.0,0.0,0.012702484,-0.013063306,-0.79304427
111770387,0.41578647,0.42107326,-0.99891543,-3.1217344,0.0,-0.063591085,-0.058007974,-0.090711236,0.0,0.0,0.0,0.0,0.0,0.0,0.021600507,-0.012779089,-0.79234433
111870788,0.41578647,0.42107326,-0.99891543,-3.1217344,0.0,-0.047494236,-0.06278257,-0.095912576,0.0,0.0,0.0,0.0,0.0,0.0,0.019719824,-0.012691538,-0.791841
111991846,0.41578647,0.42107326,-0.99891543,-3.1217344,0.0,-0.024731675,-0.0669734,-0.098198354,0.0,0.0,0.0,0.0,0.0,0.0,0.02369827,-0.012190123,-0.7844753
112090726,0.41578647,0.42107326,-0.99891543,-3.1217344,0.0,-0.0070112064,-0.06710208,-0.094625056,0.0,0.0,0.0,0.0,0.0,0.0,0.025729734,-0.0066004903,-0.7730661
112190895,0.41578647,0.42107326,-0.99891543,-3.1217344,0.0,0.012799184,-0.06363145,-0.0834564,0.0,0.0,0.0,0.0,0.0,0.0,0.030999977,0.00022731,-0.7618745
112290957,0.41578647,0.42107326,-0.99891543,-3.1217344,0.0,0.03167179,-0.056443356,-0.06649518,0.0,0.0,0.0,0.0,0.0,0.0,0.03287602,-0.0024698249,-0.742072
112391335,0.41578647,0.42107326,-0.99891543,-3.1217344,0.0,0.052670274,-0.046012517,-0.041945994,0.0,0.0,0.0,0.0,0.0,0.0,0.038140677,0.00631091,-0.73921156
112490968,0.41578647,0.42107326,-0.99891543,-3.1217344,0.0,0.07240773,-0.034177985,-0.017688274,0.0,0.0,0.0,0.0,0.0,0.0,0.034997176,0.0026400543,-0.7221334
112591147,0.41578647,0.42107326,-0.99891543,-3.1217344,0.0,0.092521176,-0.020382551,0.008354187,0.0,0.0,0.0,0.0,0.0,0.0,0.0370647,0.0067114374,-0.72458565
112691320,0.41578647,0.42107326,-0.99891543,-3.1217344,0.0,0.10976993,-0.007948737,0.029197216,0.0,0.0,0.0,0.0,0.0,0.0,0.036072634,0.005213958,-0.7188982
112791725,0.41578647,0.42107326,-0.99891543,-3.1217344,0.0,0.12633294,0.004887253,0.04603398,0.0,0.0,0.0,0.0,0.0,0.0,0.039786175,0.0066169705,-0.72173727
112912267,0.41578647,0.42107326,-0.99891543,-3.1217344,0.0,0.14241408,0.017148362,0.057804227,0.0,0.0,0.0,0.0,0.0,0.0,0.03938607,0.009414156,-0.72763366
113011628,0.41578647,0.42107326,-0.99891543,-3.1217344,0.0,0.15381886,0.024001956,0.06205237,0.0,0.0,0.0,0.0,0.0,0.0,0.03988619,0.0048261415,-0.7321483
113112101,0.41578647,0.42107326,-0.99891543,-3.1217344,0.0,0.16572182,0.028033076,0.062892914,0.0,0.0,0.0,0.0,0.0,0.0,0.041357312,0.0014270605,-0.7329809
113211809,0.41578647,0.42107326,-0.99891543,-3.1217344,0.0,0.17750332,0.028980205,0.061376095,0.0,0.0,0.0,0.0,0.0,0.0,0.046381142,0.0028827945,-0.73881483
113311857,0.41578647,0.42107326,-0.99891543,-3.1217344,0.0,0.19210099,0.02723606,0.059720516,0.0,0.0,0.0,0.0,0.0,0.0,0.044490177,-0.0003882004,-0.73734117
113412116,0.41578647,0.42107326,-0.99891543,-3.1217344,0.0,0.2072372,0.023364024,0.059921384,0.0,0.0,0.0,0.0,0.0,0.0,0.049370777,-0.0014200815,-0.7336091
113512140,0.41578647,0.42107326,-0.99891543,-3.1217344,0.0,0.22552627,0.018353643,0.06389248,0.0,0.0,0.0,0.0,0.0,0.0,0.05271031,0.0035278024,-0.72992885
113612253,0.41578647,0.42107326,-0.99891543,-3.1217344,0.0,0.24250175,0.013911627,0.07070696,0.0,0.0,0.0,0.0,0.0,0.0,0.05437334,0.0030942652,-0.7250725
113712398,0.41578647,0.42107326,-0.99891543,-3.1217344,0.0,0.26065314,0.0102574555,0.08135295,0.0,0.0,0.0,0.0,0.0,0.0,0.057853628,0.004704915,-0.7204994
113812372,0.41578647,0.42107326,-0.99891543,-3.1217344,0.0,0.2763425,0.00881308,0.09333396,0.0,0.0,0.0,0.0,0.0,0.0,0.05763796,0.007012913,-0.7143981
113932541,0.41578647,0.42107326,-0.99891543,-3.1217344,0.0,0.29284564,0.010693208,0.10954392,0.0,0.0,0.0,0.0,0.0,0.0,0.054435648,0.0068528545,-0.7110708
114032527,0.41578647,0.42107326,-0.99891543,-3.1217344,0.0,0.30632448,0.016055087,0.122425675,0.0,0.0,0.0,0.0,0.0,0.0,0.05823177,0.009106828,-0.7102674
114132773,0.41578647,0.42107326,-0.99891543,-3.1217344,0.0,0.31553918,0.023564136,0.132105,0.0,0.0,0.0,0.0,0.0,0.0,0.059452884,0.012093707,-0.7105161
114232799,0.41578647,0.42107326,-0.99891543,-3.1217344,0.0,0.3241302,0.033790786,0.13909805,0.0,0.0,0.0,0.0,0.0,0.0,0.059910744,0.009766506,-0.7148764
114333555,0.41578647,0.42107326,-0.99891543,-3.1217344,0.0,0.33057886,0.044637024,0.14216506,0.0,0.0,0.0,0.0,0.0,0.0,0.06253262,0.012085985,-0.71982604
114433212,0.41578647,0.42107326,-0.99891543,-3.1217344,0.0,0.3363886,0.0540076,0.14090574,0.0,0.0,0.0,0.0,0.0,0.0,0.06501493,0.011822412,-0.7261845
114533338,0.41578647,0.42107326,-0.99891543,-3.1217344,0.0,0.3444091,0.061466534,0.13588047,0.0,0.0,0.0,0.0,0.0,0.0,0.06965743,0.011085107,-0.73101234
114633281,0.41578647,0.42107326,-0.99891543,-3.1217344,0.0,0.35463622,0.065160654,0.12961388,0.0,0.0,0.0,0.0,0.0,0.0,0.07107636,0.012554833,-0.73263574
114733357,0.41578647,0.42107326,-0.99891543,-3.1217344,0.0,0.3698886,0.06593831,0.12206495,0.0,0.0,0.0,0.0,0.0,0.0,0.07974574,0.007169213,-0.7377342
114833413,0.41578647,0.42107326,-0.99891543,-3.1217344,0.0,0.3874994,0.06367461,0.11520326,0.0,0.0,0.0,0.0,0.0,0.0,0.08430551,0.0110324565,-0.7407718
114933433,0.41578647,0.42107326,-0.99891543,-3.1217344,0.0,0.41051784,0.059533153,0.1072433,0.0,0.0,0.0,0.0,0.0,0.0,0.090800375,0.004494199,-0.74562484
115053714,0.41578647,0.42107326,-0.99891543,-3.1217344,0.0,0.4420747,0.053087678,0.09765494,0.0,0.0,0.0,0.0,0.0,0.0,0.09850158,0.005725228,-0.75038326
115153812,0.41578647,0.42107326,-0.99891543,-3.1217344,0.0,0.47019976,0.046597105,0.08942115,0.0,0.0,0.0,0.0,0.0,0.0,0.100719884,0.0032831905,-0.752416
115253921,0.41578647,0.42107326,-0.99891543,-3.1217344,0.0,0.49987113,0.039870832,0.0851773,0.0,0.0,0.0,0.0,0.0,0.0,0.111474425,0.0034512696,-0.7472793
115353945,0.41578647,0.42107326,-0.99891543,-3.1217344,0.0,0.52928776,0.034168586,0.08199155,0.0,0.0,0.0,0.0,0.0,0.0,0.10700747,0.0072719436,-0.7440021
115453974,0.41578647,0.42107326,-0.99891543,-3.1217344,0.0,0.5597221,0.029646872,0.08141291,0.0,0.0,0.0,0.0,0.0,0.0,0.10954011,0.003870955,-0.7411795
115554042,0.41578647,0.42107326,-0.99891543,-3.1217344,0.0,0.58574885,0.026646033,0.082965136,0.0,0.0,0.0,0.0,0.0,0.0,0.11232911,0.0016284639,-0.7401677
115654183,0.41578647,0.42107326,-0.99891543,-3.1217344,0.0,0.6099119,0.024321657,0.084916115,0.0,0.0,0.0,0.0,0.0,0.0,0.11230552,0.0033265715,-0.7391795
115754239,0.41578647,0.42107326,-0.99891543,-3.1217344,0.0,0.6266833,0.022896448,0.08575475,0.0,0.0,0.0,0.0,0.0,0.0,0.10963172,0.0064801746,-0.74125046
115854411,0.41578647,0.42107326,-0.99891543,-3.1217344,0.0,0.63732284,0.021617388,0.083881974,0.0,0.0,0.0,0.0,0.0,0.0,0.10505156,0.0016233791,-0.74385583
115954764,0.41578647,0.42107326,-0.99891543,-3.1217344,0.0,0.63963026,0.019388707,0.07960236,0.0,0.0,0.0,0.0,0.0,0.0,0.104185045,0.003639455,-0.7471899
116054880,0.41578647,0.42107326,-0.99891543,-3.1217344,0.0,0.6346282,0.016460406,0.07221198,0.0,0.0,0.0,0.0,0.0,0.0,0.09904702,0.00089441595,-0.7515056
116154953,0.41578647,0.42107326,-0.99891543,-3.1217344,0.0,0.62372935,0.014083001,0.062757015,0.0,0.0,0.0,0.0,0.0,0.0,0.09337909,0.0014025581,-0.75689757
116254947,0.41578647,0.42107326,-0.99891543,-3.1217344,0.0,0.60694164,0.012150862,0.05003524,0.0,0.0,0.0,0.0,0.0,0.0,0.088568,0.0031663224,-0.7625366
116374911,0.41578647,0.42107326,-0.99891543,-3.1217344,0.0,0.5830429,0.011449116,0.03311348,0.0,0.0,0.0,0.0,0.0,0.0,0.08555594,0.0023290864,-0.7706785
116475056,0.41578647,0.42107326,-0.99891543,-3.1217344,0.0,0.56230843,0.0116883265,0.01807046,0.0,0.0,0.0,0.0,0.0,0.0,0.084141165,0.0039157444,-0.7747563
116575152,0.41578647,0.42107326,-0.99891543,-3.1217344,0.0,0.5393354,0.012326484,0.00042051077,0.0,0.0,0.0,0.0,0.0,0.0,0.082373686,0.00427486,-0.7840725
116675730,0.41578647,0.42107326,-0.99891543,-3.1217344,0.0,0.51621795,0.013141592,-0.0189327,0.0,0.0,0.0,0.0,0.0,0.0,0.07833947,0.005743645,-0.7922065
116775458,0.41578647,0.42107326,-0.99891543,-3.1217344,0.0,0.49520975,0.014690524,-0.03808117,0.0,0.0,0.0,0.0,0.0,0.0,0.07971482,0.0035135313,-0.7983936
116875819,0.41578647,0.42107326,-0.99891543,-3.1217344,0.0,0.47451347,0.017522197,-0.058850348,0.0,0.0,0.0,0.0,0.0,0.0,0.07749148,0.005422392,-0.80170214
116975538,0.41578647,0.42107326,-0.99891543,-3.1217344,0.0,0.45673898,0.01982817,-0.07493758,0.0,0.0,0.0,0.0,0.0,0.0,0.07733441,0.006482968,-0.79754424
117075679,0.41578647,0.42107326,-0.99891543,-3.1217344,0.0,0.43931213,0.02283048,-0.08756322,0.0,0.0,0.0,0.0,0.0,0.0,0.07770552,0.008499555,-0.7947551
117175732,0.41578647,0.42107326,-0.99891543,-3.1217344,0.0,0.42576212,0.026158156,-0.09518188,0.0,0.0,0.0,0.0,0.0,0.0,0.07645172,0.008350233,-0.790629
117295864,0.41578647,0.42107326,-0.99891543,-3.1217344,0.0,0.40972766,0.030127103,-0.097325325,0.0,0.0,0.0,0.0,0.0,0.0,0.07333856,0.00010366668,-0.7821818
117396203,0.41578647,0.42107326,-0.99891543,-3.1217344,0.0,0.39594167,0.031462025,-0.09367961,0.0,0.0,0.0,0.0,0.0,0.0,0.07338857,0.0022268186,-0.77537906
117496219,0.41578647,0.42107326,-0.99891543,-3.1217344,0.0,0.38193476,0.030451505,-0.08775705,0.0,0.0,0.0,0.0,0.0,0.0,0.07091416,-0.0012847395,-0.7692331
117596357,0.41578647,0.42107326,-0.99891543,-3.1217344,0.0,0.3644072,0.02601031,-0.07948351,0.0,0.0,0.0,0.0,0.0,0.0,0.06729694,-0.0051025115,-0.763526
117696385,0.41578647,0.42107326,-0.99891543,-3.1217344,0.0,0.3455725,0.018434586,-0.07221788,0.0,0.0,0.0,0.0,0.0,0.0,0.064416826,-0.0066441894,-0.7639019
117796419,0.41578647,0.42107326,-0.99891543,-3.1217344,0.0,0.32223442,0.006858292,-0.06644595,0.0,0.0,0.0,0.0,0.0,0.0,0.06253542,-0.005920522,-0.7645099
117896499,0.41578647,0.42107326,-0.99891543,-3.1217344,0.0,0.29822433,-0.0055133775,-0.06350553,0.0,0.0,0.0,0.0,0.0,0.0,0.059857644,-0.012070109,-0.76453626
117996508,0.41578647,0.42107326,-0.99891543,-3.1217344,0.0,0.27050483,-0.020763379,-0.06291163,0.0,0.0,0.0,0.0,0.0,0.0,0.054373223,-0.0141165415,-0.7642753
118096641,0.41578647,0.42107326,-0.99891543,-3.1217344,0.0,0.24431197,-0.034750033,-0.06336433,0.0,0.0,0.0,0.0,0.0,0.0,0.05364807,-0.014813651,-0.76504004
118196809,0.41578647,0.42107326,-0.99891543,-3.1217344,0.0,0.21556963,-0.049635034,-0.06458968,0.0,0.0,0.0,0.0,0.0,0.0,0.049100168,-0.015413882,-0.7650142
118297563,0.41578647,0.42107326,-0.99891543,-3.1217344,0.0,0.18840231,-0.06206384,-0.06572431,0.0,0.0,0.0,0.0,0.0,0.0,0.044568572,-0.018348634,-0.7660011
118397901,0.41578647,0.42107326,-0.99891543,-3.1217344,0.0,0.15808716,-0.07473267,-0.06696218,0.0,0.0,0.0,0.0,0.0,0.0,0.04390754,-0.017581332,-0.7666594
118497726,0.41578647,0.42107326,-0.99891543,-3.1217344,0.0,0.12909497,-0.085234635,-0.0674786,0.0,0.0,0.0,0.0,0.0,0.0,0.041526146,-0.017043425,-0.7654991
118597797,0.41578647,0.42107326,-0.99891543,-3.1217344,0.0,0.09767929,-0.09446662,-0.06539345,0.0,0.0,0.0,0.0,0.0,0.0,0.03726422,-0.020714128,-0.7571255
118717916,0.41578647,0.42107326,-0.99891543,-3.1217344,0.0,0.06267535,-0.10158646,-0.057728767,0.0,0.0,0.0,0.0,0.0,0.0,0.0330965,-0.018670013,-0.74976957
118818691,0.41578647,0.42107326,-0.99891543,-3.1217344,0.0,0.034004062,-0.10454276,-0.047917485,0.0,0.0,0.0,0.0,0.0,0.0,0.03390923,-0.01233747,-0.7479155
118918893,0.41578647,0.42107326,-0.99891543,-3.1217344,0.0,0.008350798,-0.10593221,-0.037284434,0.0,0.0,0.0,0.0,0.0,0.0,0.030279914,-0.014032184,-0.7427523
119017561,0.41578647,0.42107326,-0.99891543,-3.1217344,0.0,-0.014868665,-0.107063115,-0.026947677,0.0,0.0,0.0,0.0,0.0,0.0,0.031426437,-0.01740788,-0.7443043
119117913,0.41578647,0.42107326,-0.99891543,-3.1217344,0.0,-0.037961826,-0.10814192,-0.01759702,0.0,0.0,0.0,0.0,0.0,0.0,0.030296555,-0.013805985,-0.74190354
119217853,0.41578647,0.42107326,-0.99891543,-3.1217344,0.0,-0.05742862,-0.109185,-0.011217773,0.0,0.0,0.0,0.0,0.0,0.0,0.029439384,-0.017600182,-0.742453
119317999,0.41578647,0.42107326,-0.99891543,-3.1217344,0.0,-0.078113884,-0.110639684,-0.0060335994,0.0,0.0,0.0,0.0,0.0,0.0,0.028179154,-0.01688868,-0.7446816
119417926,0.41578647,0.42107326,-0.99891543,-3.1217344,0.0,-0.097475156,-0.11220801,-0.002245605,0.0,0.0,0.0,0.0,0.0,0.0,0.0268969,-0.013341548,-0.74376535
119518151,0.41578647,0.42107326,-0.99891543,-3.1217344,0.0,-0.11792348,-0.11428584,0.00048315525,0.0,0.0,0.0,0.0,0.0,0.0,0.023679137,-0.01993366,-0.7452112
119618165,0.41578647,0.42107326,-0.99891543,-3.1217344,0.0,-0.1353937,-0.11596782,0.0027290583,0.0,0.0,0.0,0.0,0.0,0.0,0.023493703,-0.017018229,-0.74490094
119738389,0.41578647,0.42107326,-0.99891543,-3.1217344,0.0,-0.15508829,-0.11800924,0.005156994,0.0,0.0,0.0,0.0,0.0,0.0,0.024326064,-0.01858528,-0.7493701
119838561,0.41578647,0.42107326,-0.99891543,-3.1217344,0.0,-0.16898295,-0.119474284,0.0044847727,0.0,0.0,0.0,0.0,0.0,0.0,0.022372268,-0.021622185,-0.75384104
119938614,0.41578647,0.42107326,-0.99891543,-3.1217344,0.0,-0.18011697,-0.12059918,0.0023682117,0.0,0.0,0.0,0.0,0.0,0.0,0.023195323,-0.014278859,-0.7557174
120038745,0.41578647,0.42107326,-0.99891543,-3.1217344,0.0,-0.1899079,-0.12089663,-0.0018789172,0.0,0.0,0.0,0.0,0.0,0.0,0.024566008,-0.014945615,-0.7604877
120138779,0.41578647,0.42107326,-0.99891543,-3.1217344,0.0,-0.19665706,-0.11948714,-0.007253349,0.0,0.0,0.0,0.0,0.0,0.0,0.025502866,-0.016062694,-0.76385236
120539165,0.41578647,0.42107326,-0.99891543,-3.1217344,0.0,-0.20860504,-0.09950874,-0.02772671,0.0,0.0,0.0,0.0,0.0,0.0,0.027450608,-0.013348889,-0.7669302
120639794,0.41578647,0.42107326,-0.99891543,-3.1217344,0.0,-0.20884144,-0.093953945,-0.029157996,0.0,0.0,0.0,0.0,0.0,0.0,0.029032638,-0.01166261,-0.7599161
120740256,0.41578647,0.42107326,-0.99891543,-3.1217344,0.0,-0.20808862,-0.0887988,-0.026581287,0.0,0.0,0.0,0.0,0.0,0.0,0.031232083,-0.010370979,-0.75788033
120859533,0.41578647,0.42107326,-0.99891543,-3.1217344,0.0,-0.20676707,-0.08419857,-0.020935476,0.0,0.0,0.0,0.0,0.0,0.0,0.030292757,-0.010967915,-0.7548982
120960574,0.41578647,0.42107326,-0.99891543,-3.1217344,0.0,-0.20481324,-0.08214282,-0.014453769,0.0,0.0,0.0,0.0,0.0,0.0,0.03078774,-0.014035534,-0.7513232
121059754,0.41578647,0.42107326,-0.99891543,-3.1217344,0.0,-0.20229533,-0.080910735,-0.007487297,0.0,0.0,0.0,0.0,0.0,0.0,0.031293992,-0.010445969,-0.7477488
121159804,0.41578647,0.42107326,-0.99891543,-3.1217344,0.0,-0.1989576,-0.07994263,-0.0004912019,0.0,0.0,0.0,0.0,0.0,0.0,0.028334787,-0.011809991,-0.7455999
121259737,0.41578647,0.42107326,-0.99891543,-3.1217344,0.0,-0.19624285,-0.07908454,0.005909562,0.0,0.0,0.0,0.0,0.0,0.0,0.028601013,-0.013819123,-0.742775
121360623,0.41578647,0.42107326,-0.99891543,-3.1217344,0.0,-0.19420636,-0.07748807,0.012058854,0.0,0.0,0.0,0.0,0.0,0.0,0.029554568,-0.00737531,-0.7429222
121460118,0.41578647,0.42107326,-0.99891543,-3.1217344,0.0,-0.19496717,-0.074874684,0.0172925,0.0,0.0,0.0,0.0,0.0,0.0,0.01998564,-0.00875838,-0.73630774
121560260,0.41578647,0.42107326,-0.99891543,-3.1217344,0.0,-0.19456796,-0.071699895,0.018019795,0.0,0.0,0.0,0.0,0.0,0.0,0.029992845,-0.008436728,-0.75244725
121660275,0.41578647,0.42107326,-0.99891543,-3.1217344,0.0,-0.19605193,-0.06755774,0.016290784,0.0,0.0,0.0,0.0,0.0,0.0,0.028375383,-0.007539054,-0.7575132
121760338,0.41578647,0.42107326,-0.99891543,-3.1217344,0.0,-0.19638526,-0.06062031,0.009605765,0.0,0.0,0.0,0.0,0.0,0.0,0.022513352,-0.0012802812,-0.7599631
121860431,0.41578647,0.42107326,-0.99891543,-3.1217344,0.0,-0.19722947,-0.05145395,0.00059980154,0.0,0.0,0.0,0.0,0.0,0.0,0.024392642,-0.0031944197,-0.76891553
121960481,0.41578647,0.42107326,-0.99891543,-3.1217344,0.0,-0.19955239,-0.039715286,-0.011056244,0.0,0.0,0.0,0.0,0.0,0.0,0.025351468,0.0027105557,-0.77509934
122060541,0.41578647,0.42107326,-0.99891543,-3.1217344,0.0,-0.20223016,-0.02855167,-0.023102164,0.0,0.0,0.0,0.0,0.0,0.0,0.021510411,-0.0027407338,-0.7787475
122160627,0.41578647,0.42107326,-0.99891543,-3.1217344,0.0,-0.20555791,-0.016780814,-0.03643948,0.0,0.0,0.0,0.0,0.0,0.0,0.018198153,0.0011332785,-0.7815138
122281241,0.41578647,0.42107326,-0.99891543,-3.1217344,0.0,-0.20985162,-0.0043646097,-0.048491836,0.0,0.0,0.0,0.0,0.0,0.0,0.017821783,0.00066962466,-0.7783922
122381070,0.41578647,0.42107326,-0.99891543,-3.1217344,0.0,-0.21329445,0.0039069992,-0.053171813,0.0,0.0,0.0,0.0,0.0,0.0,0.015578572,0.0053179725,-0.7735816
122481385,0.41578647,0.42107326,-0.99891543,-3.1217344,0.0,-0.21750714,0.011556675,-0.05401206,0.0,0.0,0.0,0.0,0.0,0.0,0.014378099,0.00085888663,-0.7696333
122581228,0.41578647,0.42107326,-0.99891543,-3.1217344,0.0,-0.22249925,0.017075289,-0.050797343,0.0,0.0,0.0,0.0,0.0,0.0,0.011037214,0.004555359,-0.7651449
122681431,0.41578647,0.42107326,-0.99891543,-3.1217344,0.0,-0.22909181,0.022057615,-0.044460416,0.0,0.0,0.0,0.0,0.0,0.0,0.010865912,0.0011834232,-0.76151836
122781825,0.41578647,0.42107326,-0.99891543,-3.1217344,0.0,-0.23546585,0.025288604,-0.038529158,0.0,0.0,0.0,0.0,0.0,0.0,0.010114022,0.0009152577,-0.7618177
122881989,0.41578647,0.42107326,-0.99891543,-3.1217344,0.0,-0.2408655,0.026689406,-0.03377682,0.0,0.0,0.0,0.0,0.0,0.0,0.010476826,-0.004313319,-0.76329666
122981458,0.41578647,0.42107326,-0.99891543,-3.1217344,0.0,-0.24579182,0.026875729,-0.03063786,0.0,0.0,0.0,0.0,0.0,0.0,0.008904653,0.0006548455,-0.76493144
123081826,0.41578647,0.42107326,-0.99891543,-3.1217344,0.0,-0.24980032,0.025706152,-0.029726684,0.0,0.0,0.0,0.0,0.0,0.0,0.009816321,-0.0053939284,-0.76505053
123181811,0.41578647,0.42107326,-0.99891543,-3.1217344,0.0,-0.2538586,0.022779746,-0.029783905,0.0,0.0,0.0,0.0,0.0,0.0,0.0031000525,-0.0029321385,-0.7623697
123282047,0.41578647,0.42107326,-0.99891543,-3.1217344,0.0,-0.25958207,0.019346777,-0.028837502,0.0,0.0,0.0,0.0,0.0,0.0,0.0051728524,-0.008059198,-0.76065195
123381979,0.41578647,0.42107326,-0.99891543,-3.1217344,0.0,-0.26614925,0.015152608,-0.02806127,0.0,0.0,0.0,0.0,0.0,0.0,0.0026070457,-0.009855397,-0.76095766
123483014,0.41578647,0.42107326,-0.99891543,-3.1217344,0.0,-0.27365947,0.009634021,-0.025730073,0.0,0.0,0.0,0.0,0.0,0.0,-0.0006169863,-0.0085670855,-0.7577603
123582072,0.41578647,0.42107326,-0.99891543,-3.1217344,0.0,-0.2803251,0.0037834733,-0.022121608,0.0,0.0,0.0,0.0,0.0,0.0,-0.0020303316,-0.007913056,-0.75508076
123683984,0.41578647,0.42107326,-0.99891543,-3.1217344,0.0,-0.28758636,-0.0013980567,-0.0168522,0.0,0.0,0.0,0.0,0.0,0.0,-0.0031798258,-0.0060349037,-0.7525598
123802379,0.41578647,0.42107326,-0.99891543,-3.1217344,0.0,-0.29480562,-0.0057425364,-0.010892212,0.0,0.0,0.0,0.0,0.0,0.0,-0.003661029,-0.004004112,-0.7540527
123902570,0.41578647,0.42107326,-0.99891543,-3.1217344,0.0,-0.30150294,-0.0067366064,-0.0064843893,0.0,0.0,0.0,0.0,0.0,0.0,-0.0040555764,-0.0050695487,-0.7525909
124002697,0.41578647,0.42107326,-0.99891543,-3.1217344,0.0,-0.30950424,-0.0045500547,-0.0020300746,0.0,0.0,0.0,0.0,0.0,0.0,-0.007854035,-0.0010956246,-0.7486894
124102766,0.41578647,0.42107326,-0.99891543,-3.1217344,0.0,-0.3176007,0.00024974198,0.0027450323,0.0,0.0,0.0,0.0,0.0,0.0,-0.010056067,-0.0027395438,-0.7462544
124202784,0.41578647,0.42107326,-0.99891543,-3.1217344,0.0,-0.3264088,0.008661072,0.008127689,0.0,0.0,0.0,0.0,0.0,0.0,-0.009024881,0.0056752306,-0.7458165
124302913,0.41578647,0.42107326,-0.99891543,-3.1217344,0.0,-0.333569,0.019350486,0.013383985,0.0,0.0,0.0,0.0,0.0,0.0,-0.008359335,0.005439396,-0.743837
124402876,0.41578647,0.42107326,-0.99891543,-3.1217344,0.0,-0.3388741,0.03209548,0.01933992,0.0,0.0,0.0,0.0,0.0,0.0,-0.008837217,0.0069720726,-0.74330235
124502972,0.41578647,0.42107326,-0.99891543,-3.1217344,0.0,-0.34083843,0.043270905,0.023860097,0.0,0.0,0.0,0.0,0.0,0.0,-0.008169962,0.00574761,-0.74397707
124603262,0.41578647,0.42107326,-0.99891543,-3.1217344,0.0,-0.33985958,0.05380358,0.027348518,0.0,0.0,0.0,0.0,0.0,0.0,-0.0064023547,0.003977134,-0.7444678
124703722,nan,nan,-0.99891543,-3.1217344,0.0,0.008738544,-0.43998766,0.029757857,0.0,0.0,0.0,0.0,0.0,0.0,0.025682222,-0.04198043,-0.7457394
124803754,nan,nan,-0.99891543,-3.1217344,0.0,0.0049578897,-0.24963088,0.03138709,0.0,0.0,0.0,0.0,0.0,0.0,0.01985879,-0.023662893,-0.7474367
124903776,nan,nan,-0.99891543,-3.1217344,0.0,0.002625276,-0.13218325,0.032496333,0.0,0.0,0.0,0.0,0.0,0.0,0.021372646,-0.019148018,-0.74524826
125003795,nan,nan,-0.99891543,-3.1217344,0.0,0.0010378622,-0.052256595,0.033609033,0.0,0.0,0.0,0.0,0.0,0.0,0.019712389,-0.016450822,-0.7467017
125103783,nan,nan,-0.99891543,-3.1217344,0.0,0.00219991,-0.11076597,0.03281212,0.0,0.0,0.0,0.0,0.0,0.0,0.015945585,-0.026196409,-0.7514416
125223857,nan,nan,-0.99891543,-3.1217344,0.0,0.006640631,-0.33435726,0.030841231,0.0,0.0,0.0,0.0,0.0,0.0,0.019292718,-0.0428737,-0.7516676
125323866,nan,nan,-0.99891543,-3.1217344,0.0,0.007770704,-0.39125672,0.029284835,0.0,0.0,0.0,0.0,0.0,0.0,0.018637232,-0.046841886,-0.7537854
125423985,nan,nan,-0.99891543,-3.1217344,0.0,0.008060145,-0.40583014,0.027590513,0.0,0.0,0.0,0.0,0.0,0.0,0.016749457,-0.050995708,-0.7540076
125524196,nan,nan,-0.99891543,-3.1217344,0.0,0.008405385,-0.42321303,0.025172591,0.0,0.0,0.0,0.0,0.0,0.0,0.016777776,-0.048682503,-0.75533706
125624651,nan,nan,-0.99891543,-3.1217344,0.0,0.009606562,-0.4836926,0.02181983,0.0,0.0,0.0,0.0,0.0,0.0,0.020223876,-0.044723175,-0.75858665
125724355,nan,nan,-0.99891543,-3.1217344,0.0,0.008369523,-0.4214074,0.016590476,0.0,0.0,0.0,0.0,0.0,0.0,0.02888767,-0.037947778,-0.7687303
