timestamp,x,y,z,yaw,yawspeed,vx,vy,vz,acc_x,acc_y,acc_z,jerk_x,jerk_y,jerk_z,thrust[0],thrust[1],thrust[2]
89715025,nan,nan,nan,3.0881429,0.0,nan,nan,-0.6947793,0.0,0.0,0.0,0.0,0.0,0.0,0.0,0.0,-0.65616035
89734999,nan,nan,nan,3.0881429,0.0,nan,nan,-0.6947793,0.0,0.0,0.0,0.0,0.0,0.0,0.0,0.0,-0.6570592
89835229,nan,nan,nan,3.0881429,0.0,nan,nan,-0.6947793,0.0,0.0,0.0,0.0,0.0,0.0,0.0,0.0,-0.6659793
89935183,nan,nan,nan,3.0881429,0.0,nan,nan,-0.6947793,0.0,0.0,0.0,0.0,0.0,0.0,0.0,0.0,-0.6731645
90035986,nan,nan,nan,3.0881429,0.0,nan,nan,-0.6947793,0.0,0.0,0.0,0.0,0.0,0.0,0.0,0.0,-0.67043495
90135573,nan,nan,nan,3.0881429,0.0,nan,nan,-0.6947793,0.0,0.0,0.0,0.0,0.0,0.0,0.0,0.0,-0.6698206
90235699,nan,nan,nan,3.0881429,0.0,nan,nan,-0.6947793,0.0,0.0,0.0,0.0,0.0,0.0,0.0,0.0,-0.66775084
90335790,nan,nan,nan,3.0881429,0.0,nan,nan,-0.6947793,0.0,0.0,0.0,0.0,0.0,0.0,0.0,0.0,-0.66596437
90435712,nan,nan,nan,3.0881429,0.0,nan,nan,-0.6947793,0.0,0.0,0.0,0.0,0.0,0.0,0.0,0.0,-0.66172075
90535803,nan,nan,nan,3.0881429,0.0,nan,nan,-0.6947793,0.0,0.0,0.0,0.0,0.0,0.0,0.0,0.0,-0.66064334
90635846,nan,nan,nan,3.0881429,0.0,nan,nan,-0.6947793,0.0,0.0,0.0,0.0,0.0,0.0,0.0,0.0,-0.65812343
90735935,nan,nan,nan,3.0881429,0.0,nan,nan,-0.6947793,0.0,0.0,0.0,0.0,0.0,0.0,-0.00022786074,-0.0042590206,-0.6542719
90836191,nan,nan,nan,3.0881429,0.0,nan,nan,-0.6947793,0.0,0.0,0.0,0.0,0.0,0.0,-0.0012339738,-0.023064611,-0.6517532
90936218,nan,nan,nan,3.0881429,0.0,nan,nan,-0.6947793,0.0,0.0,0.0,0.0,0.0,0.0,-0.0021551198,-0.040282056,-0.65101165
91036392,nan,nan,nan,3.0881429,0.0,nan,nan,-0.6947793,0.0,0.0,0.0,0.0,0.0,0.0,-0.003622194,-0.06770362,-0.64458066
91136515,nan,nan,nan,3.0881429,0.0,nan,nan,-0.6947793,0.0,0.0,0.0,0.0,0.0,0.0,-0.0035329964,-0.066036396,-0.6473403
91256545,nan,nan,nan,3.0881429,0.0,nan,nan,-0.6947793,0.0,0.0,0.0,0.0,0.0,0.0,-0.0018789303,-0.0351197,-0.654384
91356591,nan,nan,nan,3.0881429,0.0,nan,nan,-0.6947793,0.0,0.0,0.0,0.0,0.0,0.0,-0.0003962081,-0.007405657,-0.65848315
91456780,nan,nan,nan,3.0881429,0.0,nan,nan,-0.6947793,0.0,0.0,0.0,0.0,0.0,0.0,-0.00055321195,-0.010340267,-0.6663287
91556820,nan,nan,nan,3.0881429,0.0,nan,nan,-0.6947793,0.0,0.0,0.0,0.0,0.0,0.0,-0.000496098,-0.009272732,-0.67134666
91657522,nan,nan,nan,3.0881429,0.0,nan,nan,-0.6947793,0.0,0.0,0.0,0.0,0.0,0.0,-4.4773435e-05,-0.00083687506,-0.6742822
91757225,nan,nan,nan,3.0881429,0.0,nan,nan,-0.6947793,0.0,0.0,0.0,0.0,0.0,0.0,-0.00015437986,-0.002885565,-0.67935747
91857433,nan,nan,nan,3.0881429,0.0,nan,nan,-0.6947793,0.0,0.0,0.0,0.0,0.0,0.0,1.5025537e-05,0.00028084728,-0.68033844
91957282,nan,nan,nan,3.0881429,0.0,nan,nan,-0.6947793,0.0,0.0,0.0,0.0,0.0,0.0,1.7757773e-07,3.3191639e-06,-0.68573916
92057495,nan,nan,nan,3.0881429,0.0,nan,nan,-0.6947793,0.0,0.0,0.0,0.0,0.0,0.0,6.7545664e-10,1.2625182e-08,-0.69028175
92157392,nan,nan,nan,3.0881429,0.0,nan,nan,-0.6947793,0.0,0.0,0.0,0.0,0.0,0.0,-1.7413154e-10,-3.2547502e-09,-0.6910252
92257519,nan,nan,nan,3.0881429,0.0,nan,nan,-0.6947793,0.0,0.0,0.0,0.0,0.0,0.0,-2.4545136e-12,-4.5878124e-11,-0.6888087
92357587,nan,nan,nan,3.0881429,0.0,nan,nan,-0.6947793,0.0,0.0,0.0,0.0,0.0,0.0,7.562413e-14,1.4135156e-12,-0.6858551
92457656,nan,nan,nan,3.0881429,0.0,nan,nan,-0.6947793,0.0,0.0,0.0,0.0,0.0,0.0,1.8271538e-15,3.415193e-14,-0.6779597
92557991,nan,nan,nan,3.0881429,0.0,nan,nan,-0.6947793,0.0,0.0,0.0,0.0,0.0,0.0,7.073687e-18,1.3221662e-16,-0.6767361
92678152,nan,nan,nan,3.0881429,0.0,nan,nan,-0.6947793,0.0,0.0,0.0,0.0,0.0,0.0,3.291521e-19,6.1522902e-18,-0.6743802
92778229,-0.66282374,0.7524737,nan,3.1388288,0.0,0.0,0.0,-0.39081997,0.0,0.0,0.0,0.0,0.0,0.0,0.0073260344,0.007262694,-0.61602056
92878289,-0.66282374,0.7524737,nan,3.1388288,0.0,0.0026388108,0.0015733093,-0.6947793,0.0,0.0,0.0,0.0,0.0,0.0,0.005008394,0.005683846,-0.68450946
92978345,-0.66282374,0.7524737,nan,3.1388288,0.0,0.00377481,0.0010325462,-0.6947793,0.0,0.0,0.0,0.0,0.0,0.0,0.0034257416,-0.0012505015,-0.6962719
93078445,-0.66282374,0.7524737,nan,3.1388288,0.0,0.0038113326,-0.0003391236,-0.6947793,0.0,0.0,0.0,0.0,0.0,0.0,0.0034840356,0.0010085396,-0.69904184
93178781,-0.66282374,0.7524737,nan,3.1388288,0.0,0.0032482594,-0.003298089,-0.6947793,0.0,0.0,0.0,0.0,0.0,0.0,-0.0021669343,-0.004226536,-0.7037188
93278724,-0.66282374,0.7524737,nan,3.1388288,0.0,0.0023248284,-0.0063793627,-0.6947793,0.0,0.0,0.0,0.0,0.0,0.0,-0.0025784124,-0.0014041465,-0.7032599
93378717,-0.66282374,0.7524737,nan,3.1388288,0.0,0.00043334663,-0.009924787,-0.6947793,0.0,0.0,0.0,0.0,0.0,0.0,-0.005816804,-0.0032519635,-0.69969857
93478785,-0.66282374,0.7524737,nan,3.1388288,0.0,-0.003347069,-0.0140437605,-0.6947793,0.0,0.0,0.0,0.0,0.0,0.0,-0.0054938537,-0.0040640794,-0.693746
93578892,-0.66282374,0.7524737,nan,3.1388288,0.0,-0.008669764,-0.017875478,-0.6947793,0.0,0.0,0.0,0.0,0.0,0.0,-0.00039332427,-0.003511629,-0.68959546
93678999,-0.66282374,0.7524737,nan,3.1388288,0.0,-0.01351619,-0.021081777,-0.6947793,0.0,0.0,0.0,0.0,0.0,0.0,-0.0020236438,-0.0069107157,-0.6867449
93799007,-0.66282374,0.7524737,nan,3.1388288,0.0,-0.018132212,-0.023921663,-0.6947793,0.0,0.0,0.0,0.0,0.0,0.0,-0.0025085174,-0.0049658283,-0.67866284
93899264,-0.66282374,0.7524737,nan,3.1388288,0.0,-0.020316556,-0.02589406,-0.6947793,0.0,0.0,0.0,0.0,0.0,0.0,0.0008499727,-0.004466641,-0.6765845
93999267,-0.66282374,0.7524737,nan,3.1388288,0.0,-0.020403022,-0.027314087,-0.6947793,0.0,0.0,0.0,0.0,0.0,0.0,-0.0015319873,-0.008536402,-0.6759937
94099678,-0.66282374,0.7524737,nan,3.1388288,0.0,-0.018261712,-0.029431218,-0.6947793,0.0,0.0,0.0,0.0,0.0,0.0,-0.00082196004,-0.0058585126,-0.6753335
94200860,-0.66282374,0.7524737,nan,3.1388288,0.0,-0.0145590985,-0.03204562,-0.6947793,0.0,0.0,0.0,0.0,0.0,0.0,0.0007503819,-0.012518642,-0.6826845
94299692,-0.66282374,0.7524737,nan,3.1388288,0.0,-0.009876543,-0.035687137,-0.6947793,0.0,0.0,0.0,0.0,0.0,0.0,0.0035548601,-0.006365363,-0.6867733
94400703,-0.66282374,0.7524737,nan,3.1388288,0.0,-0.0049723596,-0.040735487,-0.6947793,0.0,0.0,0.0,0.0,0.0,0.0,7.550935e-05,-0.0121023925,-0.69034517
94499818,-0.66282374,0.7524737,nan,3.1388288,0.0,-0.001451397,-0.046704832,-0.6947793,0.0,0.0,0.0,0.0,0.0,0.0,0.0027932771,-0.011799269,-0.6953337
94599936,-0.66282374,0.7524737,nan,3.1388288,0.0,0.00046918986,-0.05438237,-0.6947793,0.0,0.0,0.0,0.0,0.0,0.0,0.0014545472,-0.014530987,-0.6998389
94699896,-0.66282374,0.7524737,nan,3.1388288,0.0,-0.0008978367,-0.062415957,-0.6947793,0.0,0.0,0.0,0.0,0.0,0.0,-0.0031127958,-0.016673243,-0.6975948
94800059,-0.66282374,0.7524737,nan,3.1388288,0.0,-0.00522615,-0.070939854,-0.6947793,0.0,0.0,0.0,0.0,0.0,0.0,-0.0035176778,-0.017602729,-0.6992532
94900311,-0.66282374,0.7524737,nan,3.1388288,0.0,-0.01183235,-0.07754753,-0.6947793,0.0,0.0,0.0,0.0,0.0,0.0,-0.007259922,-0.014255639,-0.69894975
95000761,-0.66282374,0.7524737,nan,3.1388288,0.0,-0.021184042,-0.08363267,-0.6947793,0.0,0.0,0.0,0.0,0.0,0.0,-0.00786096,-0.00789589,-0.6985444
95120560,-0.66282374,0.7524737,nan,3.1388288,0.0,-0.033870853,-0.087348536,-0.6947793,0.0,0.0,0.0,0.0,0.0,0.0,-0.0083614355,-0.014786266,-0.7004826
95220569,-0.66282374,0.7524737,nan,3.1388288,0.0,-0.045946125,-0.08882145,-0.6947793,0.0,0.0,0.0,0.0,0.0,0.0,-0.011480132,-0.014266284,-0.70184183
95320634,-0.66282374,0.7524737,nan,3.1388288,0.0,-0.056817785,-0.08775787,-0.6947793,0.0,0.0,0.0,0.0,0.0,0.0,-0.01380624,-0.009526768,-0.69854856
95420642,-0.66282374,0.7524737,nan,3.1388288,0.0,-0.067778625,-0.08360277,-0.6947793,0.0,0.0,0.0,0.0,0.0,0.0,-0.011961107,-0.00684358,-0.6953901
95520715,-0.66282374,0.7524737,nan,3.1388288,0.0,-0.076616116,-0.07776117,-0.6947793,0.0,0.0,0.0,0.0,0.0,0.0,-0.015825577,-0.00500915,-0.6963426
95620827,-0.66282374,0.7524737,nan,3.1388288,0.0,-0.08498763,-0.06747172,-0.6947793,0.0,0.0,0.0,0.0,0.0,0.0,-0.013868842,-0.0023148993,-0.70076156
95721006,-0.66282374,0.7524737,nan,3.1388288,0.0,-0.09116208,-0.05794076,-0.6947793,0.0,0.0,0.0,0.0,0.0,0.0,-0.010472926,-0.0024556126,-0.70404595
95821176,-0.66282374,0.7524737,nan,3.1388288,0.0,-0.095774986,-0.04597002,-0.6947793,0.0,0.0,0.0,0.0,0.0,0.0,-0.011721636,0.0046019927,-0.7058787
95921231,-0.66282374,0.7524737,nan,3.1388288,0.0,-0.09904374,-0.035535444,-0.6947793,0.0,0.0,0.0,0.0,0.0,0.0,-0.017611865,-0.00302886,-0.70766175
96021315,-0.66282374,0.7524737,nan,3.1388288,0.0,-0.101560354,-0.026380012,-0.6947793,0.0,0.0,0.0,0.0,0.0,0.0,-0.014007468,-3.3862423e-05,-0.7194243
96121358,-0.66282374,0.7524737,nan,3.1388288,0.0,-0.10263565,-0.01931187,-0.6947793,0.0,0.0,0.0,0.0,0.0,0.0,-0.01362714,-0.0026518805,-0.73038894
96221431,-0.66282374,0.7524737,nan,3.1388288,0.0,-0.10278616,-0.015896171,-0.6947793,0.0,0.0,0.0,0.0,0.0,0.0,-0.0073197065,-0.0049386546,-0.73843426
96321597,-0.66282374,0.7524737,nan,3.1388288,0.0,-0.10263611,-0.015792152,-0.6947793,0.0,0.0,0.0,0.0,0.0,0.0,-0.014078553,-0.007413253,-0.7391
96421640,-0.66282374,0.7524737,nan,3.1388288,0.0,-0.102925174,-0.020418536,-0.6947793,0.0,0.0,0.0,0.0,0.0,0.0,-0.012576343,-0.01070164,-0.735309
96541986,-0.66282374,0.7524737,nan,3.1388288,0.0,-0.104718864,-0.029669946,-0.6947793,0.0,0.0,0.0,0.0,0.0,0.0,-0.017131688,-0.013376793,-0.7327332
96643132,-0.66282374,0.7524737,nan,3.1388288,0.0,-0.10815721,-0.04113288,-0.6947793,0.0,0.0,0.0,0.0,0.0,0.0,-0.017182063,-0.013345561,-0.7298473
96742153,-0.66282374,0.7524737,nan,3.1388288,0.0,-0.11308065,-0.05284326,-0.6947793,0.0,0.0,0.0,0.0,0.0,0.0,-0.02171661,-0.018074825,-0.72801435
96843063,-0.66282374,0.7524737,nan,3.1388288,0.0,-0.12001952,-0.065065585,-0.6947793,0.0,0.0,0.0,0.0,0.0,0.0,-0.02225659,-0.018296715,-0.7290032
96942184,-0.66282374,0.7524737,nan,3.1388288,0.0,-0.1277299,-0.07475487,-0.6947793,0.0,0.0,0.0,0.0,0.0,0.0,-0.021673817,-0.01590759,-0.7326284
97043093,-0.66282374,0.7524737,nan,3.1388288,0.0,-0.13725655,-0.081699625,-0.6947793,0.0,0.0,0.0,0.0,0.0,0.0,-0.026621055,-0.0125541445,-0.7357257
97142459,-0.66282374,0.7524737,nan,3.1388288,0.0,-0.1468763,-0.084763065,-0.6947793,0.0,0.0,0.0,0.0,0.0,0.0,-0.023755513,-0.013586188,-0.7433657
97243228,-0.66282374,0.7524737,nan,3.1388288,0.0,-0.15762532,-0.08538809,-0.6947793,0.0,0.0,0.0,0.0,0.0,0.0,-0.02230604,-0.011993183,-0.7549315
97342771,-0.66282374,0.7524737,nan,3.1388288,0.0,-0.16554956,-0.08288432,-0.6947793,0.0,0.0,0.0,0.0,0.0,0.0,-0.028219337,-0.011186313,-0.7617411
97442857,-0.66282374,0.7524737,nan,3.1388288,0.0,-0.17085125,-0.0774191,-0.6947793,0.0,0.0,0.0,0.0,0.0,0.0,-0.026997961,-0.012701894,-0.7641386
97543106,-0.66282374,0.7524737,nan,3.1388288,0.0,-0.17245845,-0.07205071,-0.6947793,0.0,0.0,0.0,0.0,0.0,0.0,-0.019578982,-0.014934658,-0.7657181
97662947,-0.66282374,0.7524737,nan,3.1388288,0.0,-0.16989294,-0.067033395,-0.6947793,0.0,0.0,0.0,0.0,0.0,0.0,-0.017978843,-0.018817175,-0.766986
97763018,-0.66282374,0.7524737,nan,3.1388288,0.0,-0.16458808,-0.06578692,-0.6947793,0.0,0.0,0.0,0.0,0.0,0.0,-0.013549318,-0.018760763,-0.770183
97863103,nan,nan,nan,3.1388288,0.0,0.45703533,-0.0012632028,-0.6947793,0.0,0.0,0.0,0.0,0.0,0.0,0.035562474,-0.014854044,-0.76587164
97963225,nan,nan,nan,3.1388288,0.0,0.78351045,-0.0021655492,-0.6947793,0.0,0.0,0.0,0.0,0.0,0.0,0.061298117,-0.012737606,-0.75990605
98063402,nan,nan,nan,3.1388288,0.0,0.91652846,-0.0025331986,-0.6947793,0.0,0.0,0.0,0.0,0.0,0.0,0.07343419,-0.015128166,-0.75944954
98163523,nan,nan,nan,3.1388288,0.0,0.6757887,-0.0018678164,-0.6947793,0.0,0.0,0.0,0.0,0.0,0.0,0.039169956,-0.019899791,-0.7605672
98263608,nan,nan,nan,3.1388288,0.0,0.23967007,-0.00066242553,-0.6947793,0.0,0.0,0.0,0.0,0.0,0.0,-0.0012560418,-0.018173909,-0.76411927
98363719,-0.4713208,0.8814247,nan,3.1388288,0.0,0.0,0.0,-0.6947793,0.0,0.0,0.0,0.0,0.0,0.0,-0.02771266,-0.024701638,-0.7681587
98463758,-0.4713208,0.8814247,nan,3.1388288,0.0,-0.022431817,-0.016029011,-0.6947793,0.0,0.0,0.0,0.0,0.0,0.0,-0.031615976,-0.022642117,-0.7661824
98563768,-0.4713208,0.8814247,nan,3.1388288,0.0,-0.052836183,-0.03226691,-0.6947793,0.0,0.0,0.0,0.0,0.0,0.0,-0.031708244,-0.024701223,-0.7599502
98663908,-0.4713208,0.8814247,nan,3.1388288,0.0,-0.08492753,-0.046299517,-0.6947793,0.0,0.0,0.0,0.0,0.0,0.0,-0.036585867,-0.022957709,-0.753386
98763954,-0.4713208,0.8814247,nan,3.1388288,0.0,-0.119548626,-0.057782892,-0.6947793,0.0,0.0,0.0,0.0,0.0,0.0,-0.032953117,-0.021191549,-0.7506554
98884420,-0.4713208,0.8814247,nan,3.1388288,0.0,-0.15226172,-0.06496519,-0.6947793,0.0,0.0,0.0,0.0,0.0,0.0,-0.033474203,-0.016413461,-0.7421646
98984752,-0.4713208,0.8814247,nan,3.1388288,0.0,-0.17063795,-0.06584955,-0.6947793,0.0,0.0,0.0,0.0,0.0,0.0,-0.026979607,-0.014219474,-0.73293936
99084476,-0.4713208,0.8814247,nan,3.1388288,0.0,-0.17791824,-0.063046016,-0.6947793,0.0,0.0,0.0,0.0,0.0,0.0,-0.025060652,-0.013997512,-0.72921187
99184801,-0.4713208,0.8814247,nan,3.1388288,0.0,-0.17512594,-0.056832563,-0.6947793,0.0,0.0,0.0,0.0,0.0,0.0,-0.02047231,-0.0107414145,-0.72657853
99284597,-0.4713208,0.8814247,nan,3.1388288,0.0,-0.16366865,-0.0485949,-0.6947793,0.0,0.0,0.0,0.0,0.0,0.0,-0.011572089,-0.009177846,-0.7305304
99384789,-0.4713208,0.8814247,nan,3.1388288,0.0,-0.14391182,-0.037893225,-0.6947793,0.0,0.0,0.0,0.0,0.0,0.0,-0.00663581,-0.0119012175,-0.7359078
99484691,-0.4713208,0.8814247,nan,3.1388288,0.0,-0.12190545,-0.027082607,-0.6947793,0.0,0.0,0.0,0.0,0.0,0.0,-0.0047705276,-0.009024452,-0.7410335
99585168,nan,nan,nan,3.1388288,0.0,0.04066528,-0.00011239502,-0.6947793,0.0,0.0,0.0,0.0,0.0,0.0,0.012687894,-0.0051151174,-0.7489786
99685255,nan,nan,nan,3.1388288,0.0,0.13801329,-0.00038145576,-0.6947793,0.0,0.0,0.0,0.0,0.0,0.0,0.022090564,-0.004313051,-0.75525796
99785177,nan,nan,nan,3.1388288,0.0,0.18877134,-0.00052174623,-0.6947793,0.0,0.0,0.0,0.0,0.0,0.0,0.021015028,-0.007883215,-0.75621426
99885369,nan,nan,nan,3.1388288,0.0,0.45799294,-0.0012658496,-0.6947793,0.0,0.0,0.0,0.0,0.0,0.0,0.041379422,-0.007017831,-0.75628906
99985356,nan,nan,nan,3.1388288,0.0,0.59753966,-0.0016515434,-0.6947793,0.0,0.0,0.0,0.0,0.0,0.0,0.052268784,-0.008032825,-0.75681126
100085370,nan,nan,nan,3.1388288,0.0,0.59609646,-0.0016475546,-0.6947793,0.0,0.0,0.0,0.0,0.0,0.0,0.045716733,-0.0066781472,-0.7591052
100185561,nan,nan,nan,3.1388288,0.0,0.6498073,-0.0017960063,-0.6947793,0.0,0.0,0.0,0.0,0.0,0.0,0.046865147,-0.008936912,-0.76173073
100285522,nan,nan,nan,3.1388288,0.0,0.7587943,-0.0020972362,-0.6947793,0.0,0.0,0.0,0.0,0.0,0.0,0.04704456,-0.010559676,-0.7622886
100405627,nan,nan,nan,3.1388288,0.0,0.7177522,-0.0019837997,-0.6947793,0.0,0.0,0.0,0.0,0.0,0.0,0.035411675,-0.014286298,-0.7663464
100505909,nan,nan,nan,3.1388288,0.0,0.62119174,-0.0017169156,-0.6947793,0.0,0.0,0.0,0.0,0.0,0.0,0.022005577,-0.018707294,-0.7714474
100605975,nan,nan,nan,3.1388288,0.0,0.59881985,-0.0016550818,-0.6947793,0.0,0.0,0.0,0.0,0.0,0.0,0.01597992,-0.01545665,-0.78061813
100706170,nan,nan,nan,3.1388288,0.0,0.4599894,-0.0012713675,-0.6947793,0.0,0.0,0.0,0.0,0.0,0.0,0.00243585,-0.021033421,-0.7834789
100806189,nan,nan,nan,3.1388288,0.0,0.34217018,-0.00094572623,-0.6947793,0.0,0.0,0.0,0.0,0.0,0.0,-0.008692653,-0.018969707,-0.7847981
100906244,nan,nan,nan,3.1388288,0.0,0.31665832,-0.0008752139,-0.6947793,0.0,0.0,0.0,0.0,0.0,0.0,-0.011054418,-0.018996106,-0.78396875
101006240,nan,nan,nan,3.1388288,0.0,0.3823735,-0.0010568445,-0.6947793,0.0,0.0,0.0,0.0,0.0,0.0,-0.00016000832,-0.023579285,-0.7822505
101106369,nan,nan,nan,3.1388288,0.0,0.40386325,-0.0011162402,-0.6947793,0.0,0.0,0.0,0.0,0.0,0.0,0.0029222658,-0.014215482,-0.7784513
101206457,nan,nan,nan,3.1388288,0.0,0.5449369,-0.0015061544,-0.6947793,0.0,0.0,0.0,0.0,0.0,0.0,0.018295083,-0.023765415,-0.7739392
101306785,nan,nan,nan,3.1388288,0.0,0.60309875,-0.0016669084,-0.6947793,0.0,0.0,0.0,0.0,0.0,0.0,0.02308269,-0.01912184,-0.7729533
101407376,nan,nan,nan,3.1388288,0.0,0.6686577,-0.0018481072,-0.6947793,0.0,0.0,0.0,0.0,0.0,0.0,0.030270176,-0.019627666,-0.7689097
101527213,nan,nan,nan,3.1388288,0.0,0.25261232,-0.0006981967,-0.6947793,0.0,0.0,0.0,0.0,0.0,0.0,-0.007615073,-0.015677676,-0.76940805
101626990,nan,nan,nan,3.1388288,0.0,-9.986486e-05,-0.036131784,-0.6947793,0.0,0.0,0.0,0.0,0.0,0.0,-0.029202359,-0.022312786,-0.7735717
101727104,0.1435337,1.0226967,nan,3.1388288,0.0,-0.005354914,-0.0005178869,-0.6947793,0.0,0.0,0.0,0.0,0.0,0.0,-0.024423635,-0.012729592,-0.778844
101827041,0.1435337,1.0226967,nan,3.1388288,0.0,-0.025824342,-0.0013883173,-0.6947793,0.0,0.0,0.0,0.0,0.0,0.0,-0.02141406,-0.009570917,-0.7825291
101927137,0.1435337,1.0226967,nan,3.1388288,0.0,-0.046404313,-9.0146066e-05,-0.6947793,0.0,0.0,0.0,0.0,0.0,0.0,-0.022059536,-0.010743673,-0.780656
102027242,0.1435337,1.0226967,nan,3.1388288,0.0,-0.063745685,0.0019593178,-0.6947793,0.0,0.0,0.0,0.0,0.0,0.0,-0.020978263,-0.0097870445,-0.78149
102127936,0.1435337,1.0226967,nan,3.1388288,0.0,-0.07994834,0.005158031,-0.6947793,0.0,0.0,0.0,0.0,0.0,0.0,-0.015482049,-0.0074115777,-0.7850007
102227648,0.1435337,1.0226967,nan,3.1388288,0.0,-0.09130836,0.009041446,-0.6947793,0.0,0.0,0.0,0.0,0.0,0.0,-0.016863288,-0.008160545,-0.78631556
102327661,0.1435337,1.0226967,nan,3.1388288,0.0,-0.09881062,0.013263702,-0.6947793,0.0,0.0,0.0,0.0,0.0,0.0,-0.013164832,-0.0044288416,-0.7868771
102427702,0.1435337,1.0226967,nan,3.1388288,0.0,-0.102033,0.01795209,-0.6947793,0.0,0.0,0.0,0.0,0.0,0.0,-0.011290918,-0.005472442,-0.78733313
102527859,nan,nan,nan,3.1388288,0.0,-0.00015572603,-0.056342732,-0.6947793,0.0,0.0,0.0,0.0,0.0,0.0,0.0021490073,-0.014692389,-0.78991675
102627967,nan,nan,nan,3.1388288,0.0,-0.0006165483,-0.22307135,-0.6947793,0.0,0.0,0.0,0.0,0.0,0.0,-0.0006562166,-0.026754092,-0.788712
102727955,nan,nan,nan,3.1388288,0.0,-0.00090846594,-0.32868916,-0.6947793,0.0,0.0,0.0,0.0,0.0,0.0,0.004290876,-0.032476865,-0.79271686
102848331,nan,nan,nan,3.1388288,0.0,-0.0013124956,-0.47486982,-0.6947793,0.0,0.0,0.0,0.0,0.0,0.0,0.0023266685,-0.046447318,-0.79410625
102948432,nan,nan,nan,3.1388288,0.0,-0.001438149,-0.5203321,-0.6947793,0.0,0.0,0.0,0.0,0.0,0.0,0.00057473534,-0.046007007,-0.7978415
103048471,nan,nan,nan,3.1388288,0.0,-0.0006399666,-0.23154423,-0.6947793,0.0,0.0,0.0,0.0,0.0,0.0,-0.0020000476,-0.018982658,-0.8005643
103148599,0.23209894,0.9573245,nan,3.1388288,0.0,-0.000996533,0.008003578,-0.6947793,0.0,0.0,0.0,0.0,0.0,0.0,0.002524232,0.0027169986,-0.80136955
103248584,0.23209894,0.9573245,nan,3.1388288,0.0,-0.004891316,0.023720646,-0.6947793,0.0,0.0,0.0,0.0,0.0,0.0,-0.0043428815,0.004085523,-0.80369055
103348683,0.23209894,0.9573245,nan,3.1388288,0.0,-0.010059879,0.040669747,-0.6947793,0.0,0.0,0.0,0.0,0.0,0.0,-0.0007269756,0.008014204,-0.8041254
103448678,0.23209894,0.9573245,nan,3.1388288,0.0,-0.017124552,0.05936141,-0.6947793,0.0,0.0,0.0,0.0,0.0,0.0,-0.0044554444,0.00541988,-0.8055229
103548960,nan,nan,nan,3.1388288,0.0,-0.0006711208,-0.24281609,-0.6947793,0.0,0.0,0.0,0.0,0.0,0.0,-0.0017024719,-0.02054199,-0.8059273
103649424,nan,nan,nan,3.1388288,0.0,-0.00046990288,-0.17001405,-0.6947793,0.0,0.0,0.0,0.0,0.0,0.0,-0.0034339759,-0.0127583295,-0.8056505
103750445,0.27027005,0.84971404,nan,3.1388288,0.0,-0.004809026,0.010066971,-0.6947793,0.0,0.0,0.0,0.0,0.0,0.0,-0.0036286772,-0.00036184397,-0.80680263
103849308,0.27027005,0.84971404,nan,3.1388288,0.0,-0.0109127695,0.022283971,-0.6947793,0.0,0.0,0.0,0.0,0.0,0.0,-0.0075557707,0.0016608424,-0.80846953
103950451,0.27027005,0.84971404,nan,3.1388288,0.0,-0.01578128,0.032908693,-0.6947793,0.0,0.0,0.0,0.0,0.0,0.0,-0.0022414196,0.0032623205,-0.8138702
104049375,0.27027005,0.84971404,nan,3.1388288,0.0,-0.018170094,0.040678184,-0.6947793,0.0,0.0,0.0,0.0,0.0,0.0,-0.0038058828,0.0036192676,-0.81810665
104169564,0.27027005,0.84971404,nan,3.1388288,0.0,-0.018552847,0.04887457,-0.686141,0.0,0.0,0.0,0.0,0.0,0.0,-0.0015217423,0.0004812684,-0.82287186
104270972,0.27027005,0.84971404,nan,3.1388288,0.0,-0.01675488,0.054927774,-0.6867549,0.0,0.0,0.0,0.0,0.0,0.0,-0.0010333267,0.0007106811,-0.830334
104369769,0.27027005,0.84971404,nan,3.1388288,0.0,-0.013619728,0.059374433,-0.68674695,0.0,0.0,0.0,0.0,0.0,0.0,0.001804455,-0.0034286827,-0.8378632
104469660,0.27027005,0.84971404,nan,3.1388288,0.0,-0.008982189,0.06306651,-0.68674695,0.0,0.0,0.0,0.0,0.0,0.0,0.0042106397,-0.0048130746,-0.8477664
104570098,nan,nan,nan,3.1388288,0.0,-0.0013850988,-0.5011381,-0.68674695,0.0,0.0,0.0,0.0,0.0,0.0,0.0015346196,-0.05465763,-0.8552346
104670831,nan,nan,nan,3.1388288,0.0,-0.0018370155,-0.66464466,-0.68674695,0.0,0.0,0.0,0.0,0.0,0.0,0.0042319507,-0.061771635,-0.8650195
104770150,nan,nan,nan,3.1388288,0.0,-0.0023598261,-0.8538011,-0.68674695,0.0,0.0,0.0,0.0,0.0,0.0,0.005342138,-0.078606084,-0.8755356
104870167,nan,nan,nan,3.1388288,0.0,-0.0023745042,-0.8591117,-0.68674695,0.0,0.0,0.0,0.0,0.0,0.0,0.006481092,-0.07861596,-0.8860409
104970313,nan,nan,nan,3.1388288,0.0,-0.021661844,-0.07384663,-0.68674695,0.0,0.0,0.0,0.0,0.0,0.0,0.00011968869,-0.0011205021,-0.8921013
105070399,0.24932064,0.7472484,nan,3.1388288,0.0,0.0030699915,0.0128599135,-0.68674695,0.0,0.0,0.0,0.0,0.0,0.0,0.0019648373,-0.0034422986,-0.89669526
105170451,0.24932064,0.7472484,nan,3.1388288,0.0,0.0055234847,0.030200403,-0.68674695,0.0,0.0,0.0,0.0,0.0,0.0,0.0014992984,0.008528458,-0.8983542
105270565,0.24932064,0.7472484,nan,3.1388288,0.0,0.006137251,0.054076824,-0.68674695,0.0,0.0,0.0,0.0,0.0,0.0,-0.00091322535,0.0046017747,-0.9008944
105370701,0.24932064,0.7472484,nan,3.1388288,0.0,0.004224436,0.077704884,-0.68674695,0.0,0.0,0.0,0.0,0.0,0.0,-0.002076163,0.007512699,-0.89885414
105470836,0.24932064,0.7472484,nan,3.1388288,0.0,2.7179718e-05,0.10370914,-0.68674695,0.0,0.0,0.0,0.0,0.0,0.0,-0.0076409765,0.006645128,-0.8979048
105570951,0.24932064,0.7472484,nan,3.1388288,0.0,-0.0051172473,0.124472685,-0.68674695,0.0,0.0,0.0,0.0,0.0,0.0,-0.0027581975,0.00991188,-0.8974134
105691002,0.24932064,0.7472484,nan,3.1388288,0.0,-0.012976008,0.14226362,-0.68674695,0.0,0.0,0.0,0.0,0.0,0.0,-0.006552061,0.0061419103,-0.89259464
105790979,0.24932064,0.7472484,nan,3.1388288,0.0,-0.020706683,0.14924015,-0.68674695,0.0,0.0,0.0,0.0,0.0,0.0,-0.010229455,0.0020505302,-0.88432205
105891198,nan,nan,nan,3.1388288,0.0,0.16959809,-0.00046875316,-0.68674695,0.0,0.0,0.0,0.0,0.0,0.0,0.0085997125,-0.012715882,-0.87895614
105991408,nan,nan,nan,3.1388288,0.0,0.21703342,-0.00059986,-0.68674695,0.0,0.0,0.0,0.0,0.0,0.0,0.00886456,-0.015286967,-0.8758746
106091597,nan,nan,nan,3.1388288,0.0,0.043649312,-0.0001206426,-0.68674695,0.0,0.0,0.0,0.0,0.0,0.0,-0.012701955,-0.019041251,-0.87094784
106191577,0.3066317,0.6126964,nan,3.1388288,0.0,-0.006461865,-0.0067451,-0.68674695,0.0,0.0,0.0,0.0,0.0,0.0,-0.009073857,-0.018418787,-0.87449276
106292335,0.3066317,0.6126964,nan,3.1388288,0.0,-0.018527083,-0.02007358,-0.68674695,0.0,0.0,0.0,0.0,0.0,0.0,-0.016489366,-0.023144929,-0.8745869
106391729,0.3066317,0.6126964,nan,3.1388288,0.0,-0.029992083,-0.030509686,-0.68674695,0.0,0.0,0.0,0.0,0.0,0.0,-0.015701413,-0.02199735,-0.8741606
106491935,0.3066317,0.6126964,nan,3.1388288,0.0,-0.043430753,-0.03972293,-0.68674695,0.0,0.0,0.0,0.0,0.0,0.0,-0.015376621,-0.023415206,-0.8753448
106591884,0.3066317,0.6126964,nan,3.1388288,0.0,-0.055280033,-0.046166677,-0.68674695,0.0,0.0,0.0,0.0,0.0,0.0,-0.018118855,-0.020422745,-0.87863874
106692342,0.3066317,0.6126964,nan,3.1388288,0.0,-0.06729149,-0.050276194,-0.68674695,0.0,0.0,0.0,0.0,0.0,0.0,-0.01754053,-0.024930138,-0.8860451
106792159,0.3066317,0.6126964,nan,3.1388288,0.0,-0.07649296,-0.05332281,-0.68674695,0.0,0.0,0.0,0.0,0.0,0.0,-0.012839461,-0.025358627,-0.89081603
106892187,0.3066317,0.6126964,nan,3.1388288,0.0,-0.08325714,-0.055004615,-0.68674695,0.0,0.0,0.0,0.0,0.0,0.0,-0.011147603,-0.01927083,-0.89526975
107012764,0.3066317,0.6126964,nan,3.1388288,0.0,-0.08755717,-0.05583518,-0.68674695,0.0,0.0,0.0,0.0,0.0,0.0,-0.010703031,-0.02375051,-0.89284456
107112559,0.3066317,0.6126964,nan,3.1388288,0.0,-0.08852924,-0.056483585,-0.68674695,0.0,0.0,0.0,0.0,0.0,0.0,-0.011062602,-0.0192681,-0.88642144
107212769,0.3066317,0.6126964,nan,3.1388288,0.0,-0.08707929,-0.056460086,-0.68674695,0.0,0.0,0.0,0.0,0.0,0.0,-0.013219227,-0.022641249,-0.8824172
107312613,0.3066317,0.6126964,nan,3.1388288,0.0,-0.08445163,-0.05661688,-0.68674695,0.0,0.0,0.0,0.0,0.0,0.0,-0.010008045,-0.01959692,-0.87607384
107412706,0.3066317,0.6126964,nan,3.1388288,0.0,-0.080179885,-0.056405786,-0.68674695,0.0,0.0,0.0,0.0,0.0,0.0,-0.010349741,-0.022447018,-0.8731027
107512780,0.3066317,0.6126964,nan,3.1388288,0.0,-0.076104514,-0.0569081,-0.68674695,0.0,0.0,0.0,0.0,0.0,0.0,-0.0073020277,-0.018379496,-0.86945426
107612996,nan,nan,nan,3.1388288,0.0,0.02320433,-6.413459e-05,-0.68674695,0.0,0.0,0.0,0.0,0.0,0.0,-0.0003173938,-0.016503455,-0.86779636
107713172,nan,nan,nan,3.1388288,0.0,0.07853321,-0.00021705842,-0.68674695,0.0,0.0,0.0,0.0,0.0,0.0,0.009944658,-0.016021438,-0.863547
107813194,nan,nan,nan,3.1388288,0.0,0.21752475,-0.000601218,-0.68674695,0.0,0.0,0.0,0.0,0.0,0.0,0.015502803,-0.014681111,-0.86159116
107913454,nan,nan,nan,3.1388288,0.0,0.34098852,-0.00094246026,-0.68674695,0.0,0.0,0.0,0.0,0.0,0.0,0.031430937,-0.014266995,-0.8625094
108013350,nan,nan,nan,3.1388288,0.0,0.65602225,-0.0018131839,-0.68674695,0.0,0.0,0.0,0.0,0.0,0.0,0.0547633,-0.020141639,-0.863581
108113460,nan,nan,nan,3.1388288,0.0,0.6526679,-0.0018039128,-0.68674695,0.0,0.0,0.0,0.0,0.0,0.0,0.049514923,-0.015529759,-0.8628054
108213439,nan,nan,nan,3.1388288,0.0,0.4866331,-0.0013450081,-0.68674695,0.0,0.0,0.0,0.0,0.0,0.0,0.030960796,-0.013600709,-0.86177194
108333592,nan,nan,nan,3.1388288,0.0,0.034320805,-9.485948e-05,-0.68674695,0.0,0.0,0.0,0.0,0.0,0.0,-0.010547376,-0.01472291,-0.8633714
108433642,0.40151834,0.67518204,nan,3.1388288,0.0,-0.009358175,0.00017083585,-0.68674695,0.0,0.0,0.0,0.0,0.0,0.0,-0.01751196,-0.012908449,-0.8708107
108533942,0.40151834,0.67518204,nan,3.1388288,0.0,-0.029219726,0.001147607,-0.68674695,0.0,0.0,0.0,0.0,0.0,0.0,-0.020460214,-0.012198395,-0.86788213
108634714,0.40151834,0.67518204,nan,3.1388288,0.0,-0.052289303,0.0033090173,-0.68674695,0.0,0.0,0.0,0.0,0.0,0.0,-0.020300344,-0.010783852,-0.86226726
108734158,0.40151834,0.67518204,nan,3.1388288,0.0,-0.07489725,0.0059579075,-0.68674695,0.0,0.0,0.0,0.0,0.0,0.0,-0.021509256,-0.009448193,-0.86494756
108834452,0.40151834,0.67518204,nan,3.1388288,0.0,-0.09839494,0.011261237,-0.68674695,0.0,0.0,0.0,0.0,0.0,0.0,-0.025531564,-0.008199595,-0.8615839
108934254,0.40151834,0.67518204,nan,3.1388288,0.0,-0.11627177,0.01692062,-0.68674695,0.0,0.0,0.0,0.0,0.0,0.0,-0.021290848,-0.0054481234,-0.8594924
109034329,0.40151834,0.67518204,nan,3.1388288,0.0,-0.13003491,0.023922682,-0.68674695,0.0,0.0,0.0,0.0,0.0,0.0,-0.018071631,-0.0040448466,-0.8558034
109134457,0.40151834,0.67518204,nan,3.1388288,0.0,-0.13628471,0.03101806,-0.68674695,0.0,0.0,0.0,0.0,0.0,0.0,-0.0196255,-0.0022084527,-0.8533683
109234741,0.40151834,0.67518204,nan,3.1388288,0.0,-0.1367954,0.039340887,-0.68674695,0.0,0.0,0.0,0.0,0.0,0.0,-0.018076906,-0.0059081274,-0.85193014
109334776,0.40151834,0.67518204,nan,3.1388288,0.0,-0.13298221,0.04659866,-0.68674695,0.0,0.0,0.0,0.0,0.0,0.0,-0.014439067,-0.0010091849,-0.84989417
109434863,0.40151834,0.67518204,nan,3.1388288,0.0,-0.1259897,0.055142663,-0.68674695,0.0,0.0,0.0,0.0,0.0,0.0,-0.0141422,0.0011285031,-0.8498715
109554960,0.40151834,0.67518204,nan,3.1388288,0.0,-0.116285644,0.06533693,-0.68674695,0.0,0.0,0.0,0.0,0.0,0.0,-0.012409223,0.0023947582,-0.8508619
109654939,0.40151834,0.67518204,nan,3.1388288,0.0,-0.10897159,0.07427599,-0.67277837,0.0,0.0,0.0,0.0,0.0,0.0,-0.012807706,0.0046636406,-0.8503833
109755025,0.40151834,0.67518204,nan,3.1388288,0.0,-0.10189121,0.08543616,-0.42773855,0.0,0.0,0.0,0.0,0.0,0.0,-0.008982921,0.0050649587,-0.8050271
109855089,0.40151834,0.67518204,nan,3.1388288,0.0,-0.09645634,0.0953063,-0.39902338,0.0,0.0,0.0,0.0,0.0,0.0,-0.008094491,0.008504671,-0.8056017
109955166,0.40151834,0.67518204,nan,3.1388288,0.0,-0.09096825,0.10763253,-0.39754874,0.0,0.0,0.0,0.0,0.0,0.0,-0.011273635,0.009138909,-0.80480397
110055334,0.40151834,0.67518204,nan,3.1388288,0.0,-0.08724169,0.11892089,-0.39758968,0.0,0.0,0.0,0.0,0.0,0.0,-0.008036744,0.012043477,-0.80166405
110155483,0.40151834,0.67518204,nan,3.1388288,0.0,-0.08427386,0.1334305,-0.39759052,0.0,0.0,0.0,0.0,0.0,0.0,-0.0021629545,0.023925733,-0.80335057
110255558,0.40151834,0.67518204,nan,3.1388288,0.0,-0.08134671,0.14990492,-0.40622836,0.0,0.0,0.0,0.0,0.0,0.0,-0.005558877,0.022303637,-0.8060286
110355706,0.40151834,0.67518204,nan,3.1388288,0.0,-0.07714708,0.17110649,-0.40561447,0.0,0.0,0.0,0.0,0.0,0.0,-0.001554739,0.030727688,-0.8108748
110455714,0.40151834,0.67518204,nan,3.1388288,0.0,-0.07176836,0.1933273,-0.39444056,0.0,0.0,0.0,0.0,0.0,0.0,-0.0021071623,0.03469003,-0.8131318
110555749,0.40151834,0.67518204,nan,3.1388288,0.0,-0.063827604,0.21938412,-0.106015675,0.0,0.0,0.0,0.0,0.0,0.0,0.004849805,0.03593248,-0.76598406
110655880,0.40151834,0.67518204,nan,3.1388288,0.0,-0.054072376,0.24348928,-0.116338015,0.0,0.0,0.0,0.0,0.0,0.0,0.001862959,0.03876915,-0.7803794
110776028,0.40151834,0.67518204,nan,3.1388288,0.0,-0.038650293,0.27323055,-0.116465166,0.0,0.0,0.0,0.0,0.0,0.0,0.006335055,0.03835867,-0.79364705
110877244,0.40151834,0.67518204,nan,3.1388288,0.0,-0.022782097,0.29669252,-0.1248436,0.0,0.0,0.0,0.0,0.0,0.0,0.0047653476,0.03758747,-0.79833084
110976606,0.40151834,0.67518204,nan,3.1388288,0.0,-0.0063307793,0.31670997,-0.13282306,0.0,0.0,0.0,0.0,0.0,0.0,0.009240005,0.038015198,-0.80466425
111076723,0.40151834,0.67518204,nan,3.1388288,0.0,0.009149684,0.32986975,-0.13252187,0.0,0.0,0.0,0.0,0.0,0.0,0.012963712,0.037184965,-0.8059269
111177338,0.40151834,0.67518204,nan,3.1388288,0.0,0.025323853,0.33835113,-0.13252941,0.0,0.0,0.0,0.0,0.0,0.0,0.0161779,0.028150422,-0.8069468
111276774,0.40151834,0.67518204,nan,3.1388288,0.0,0.038904,0.34005672,-0.13253021,0.0,0.0,0.0,0.0,0.0,0.0,0.010796447,0.030613681,-0.8029628
111378236,0.40151834,0.67518204,nan,3.1388288,0.0,0.051785205,0.33782858,-0.13253021,0.0,0.0,0.0,0.0,0.0,0.0,0.00970852,0.026516795,-0.7980242
111476753,0.40151834,0.67518204,nan,3.1388288,0.0,0.06116552,0.33158395,-0.13253021,0.0,0.0,0.0,0.0,0.0,0.0,0.012886393,0.024634026,-0.7897084
111578562,0.40151834,0.67518204,nan,3.1388288,0.0,0.06901805,0.3204316,-0.13253021,0.0,0.0,0.0,0.0,0.0,0.0,0.013276888,0.017840127,-0.7818307
111698139,0.40151834,0.67518204,nan,3.1388288,0.0,0.075607404,0.30301535,-0.13253021,0.0,0.0,0.0,0.0,0.0,0.0,0.013473972,0.0123048015,-0.7778678
111797232,0.40151834,0.67518204,nan,3.1388288,0.0,0.079918705,0.28558978,-0.13253021,0.0,0.0,0.0,0.0,0.0,0.0,0.012715334,0.006531994,-0.7798978
111897462,0.40151834,0.67518204,nan,3.1388288,0.0,0.083904244,0.26398847,-0.13253021,0.0,0.0,0.0,0.0,0.0,0.0,0.010196882,0.0077454243,-0.7793044
111997383,0.40151834,0.67518204,nan,3.1388288,0.0,0.08674758,0.24309754,-0.12415218,0.0,0.0,0.0,0.0,0.0,0.0,0.009080156,0.0006853177,-0.7809031
112097427,0.40151834,0.67518204,nan,3.1388288,0.0,0.088568084,0.21749924,-0.12450544,0.0,0.0,0.0,0.0,0.0,0.0,0.011872999,-0.0078117996,-0.7884717
112197435,0.40151834,0.67518204,nan,3.1388288,0.0,0.089709066,0.19262537,-0.12283889,0.0,0.0,0.0,0.0,0.0,0.0,0.0068203933,-0.0069259712,-0.7938601
112297508,0.40151834,0.67518204,-1.1924894,3.1388288,0.0,0.09018856,0.1648857,-0.0010620356,0.0,0.0,0.0,0.0,0.0,0.0,0.006524338,-0.011860472,-0.7736999
112397583,0.40151834,0.67518204,-1.1924894,3.1388288,0.0,0.089854985,0.13904147,-0.0054317713,0.0,0.0,0.0,0.0,0.0,0.0,0.009101171,-0.013539105,-0.7789329
112497955,0.40151834,0.67518204,-1.1924894,3.1388288,0.0,0.08868818,0.11201628,-0.0126594305,0.0,0.0,0.0,0.0,0.0,0.0,0.005848104,-0.014938107,-0.783872
112597918,0.40151834,0.67518204,-1.1924894,3.1388288,0.0,0.086493365,0.088470094,-0.019798875,0.0,0.0,0.0,0.0,0.0,0.0,0.0042044036,-0.017643752,-0.78650343
112698226,0.40151834,0.67518204,-1.1924894,3.1388288,0.0,0.084148295,0.06500324,-0.02880025,0.0,0.0,0.0,0.0,0.0,0.0,0.007414882,-0.012790874,-0.7930842
112798227,0.40151834,0.67518204,-1.1924894,3.1388288,0.0,0.08278234,0.046361577,-0.03790188,0.0,0.0,0.0,0.0,0.0,0.0,0.009171337,-0.016966507,-0.79812104
112918218,0.40151834,0.67518204,-1.1924894,3.1388288,0.0,0.082201004,0.02645787,-0.048341393,0.0,0.0,0.0,0.0,0.0,0.0,0.005739809,-0.016016709,-0.7981779
113018323,0.40151834,0.67518204,-1.1924894,3.1388288,0.0,0.08258189,0.013007873,-0.055571556,0.0,0.0,0.0,0.0,0.0,0.0,0.007959177,-0.011873441,-0.7976006
113118366,0.40151834,0.67518204,-1.1924894,3.1388288,0.0,0.08321557,0.0040419637,-0.06021142,0.0,0.0,0.0,0.0,0.0,0.0,0.010676222,-0.008781858,-0.79613006
113218440,0.40151834,0.67518204,-1.1924894,3.1388288,0.0,0.08392899,-0.0009935886,-0.06310785,0.0,0.0,0.0,0.0,0.0,0.0,0.008757618,-0.0054293955,-0.79418755
113318602,0.40151834,0.67518204,-1.1924894,3.1388288,0.0,0.084257945,-0.0021131665,-0.063809276,0.0,0.0,0.0,0.0,0.0,0.0,0.0064820703,-0.005245302,-0.7938238
113419069,0.40151834,0.67518204,-1.1924894,3.1388288,0.0,0.08372109,0.000613299,-0.06269705,0.0,0.0,0.0,0.0,0.0,0.0,0.0040168525,0.0018894987,-0.79073066
113519393,0.40151834,0.67518204,-1.1924894,3.1388288,0.0,0.0815887,0.006582361,-0.059652686,0.0,0.0,0.0,0.0,0.0,0.0,6.7776535e-05,0.0051180916,-0.7855381
113619002,0.40151834,0.67518204,-1.1924894,3.1388288,0.0,0.07703372,0.01566905,-0.054704428,0.0,0.0,0.0,0.0,0.0,0.0,-2.2267923e-05,0.011538681,-0.78115106
113719186,0.40151834,0.67518204,-1.1924894,3.1388288,0.0,0.068805255,0.027862325,-0.048671007,0.0,0.0,0.0,0.0,0.0,0.0,-0.0035985492,0.012749882,-0.7777444
113819092,0.40151834,0.67518204,-1.1924894,3.1388288,0.0,0.058057804,0.040720597,-0.04314065,0.0,0.0,0.0,0.0,0.0,0.0,-0.0035741322,0.015667057,-0.77944934
113919509,0.40151834,0.67518204,-1.1924894,3.1388288,0.0,0.043196358,0.054762885,-0.03849709,0.0,0.0,0.0,0.0,0.0,0.0,-0.00971443,0.014405882,-0.7772839
114019244,0.40151834,0.67518204,-1.1924894,3.1388288,0.0,0.026647674,0.067137584,-0.035507917,0.0,0.0,0.0,0.0,0.0,0.0,-0.012604235,0.017553736,-0.77896106
114119926,0.40151834,0.67518204,-1.1924894,3.1388288,0.0,0.006605011,0.07865737,-0.03327787,0.0,0.0,0.0,0.0,0.0,0.0,-0.011259503,0.01685437,-0.7770779
114240309,0.40151834,0.67518204,-1.1924894,3.1388288,0.0,-0.017089473,0.08836766,-0.031636596,0.0,0.0,0.0,0.0,0.0,0.0,-0.016787566,0.014455328,-0.7778364
114339695,0.40151834,0.67518204,-1.1924894,3.1388288,0.0,-0.034633756,0.09217582,-0.03114593,0.0,0.0,0.0,0.0,0.0,0.0,-0.014031266,0.010995208,-0.78033745
114439925,0.40151834,0.67518204,-1.1924894,3.1388288,0.0,-0.05045003,0.09228669,-0.03156376,0.0,0.0,0.0,0.0,0.0,0.0,-0.014048506,0.013080874,-0.782237
114539756,0.40151834,0.67518204,-1.1924894,3.1388288,0.0,-0.062165592,0.088819295,-0.032491565,0.0,0.0,0.0,0.0,0.0,0.0,-0.016175792,0.0082658725,-0.783174
114639977,0.40151834,0.67518204,-1.1924894,3.1388288,0.0,-0.071680784,0.08375215,-0.034674644,0.0,0.0,0.0,0.0,0.0,0.0,-0.013615886,0.012515907,-0.7867545
114739916,0.40151834,0.67518204,-1.1924894,3.1388288,0.0,-0.07787768,0.078979954,-0.03902304,0.0,0.0,0.0,0.0,0.0,0.0,-0.017563595,0.014763973,-0.7900668
114840049,0.40151834,0.67518204,-1.1924894,3.1388288,0.0,-0.08122033,0.07629528,-0.04383731,0.0,0.0,0.0,0.0,0.0,0.0,-0.012341333,0.014766518,-0.79428655
114940283,0.40151834,0.67518204,-1.1924894,3.1388288,0.0,-0.08318927,0.077141136,-0.050558805,0.0,0.0,0.0,0.0,0.0,0.0,-0.01258053,0.02408774,-0.79979885
115040357,0.40151834,0.67518204,-1.1924894,3.1388288,0.0,-0.083291195,0.08310103,-0.060603023,0.0,0.0,0.0,0.0,0.0,0.0,-0.010607838,0.02213674,-0.8108834
115140582,0.40151834,0.67518204,-1.1924894,3.1388288,0.0,-0.08220992,0.094704896,-0.07623875,0.0,0.0,0.0,0.0,0.0,0.0,-0.008459593,0.027834997,-0.82467747
115240546,0.40151834,0.67518204,-1.1924894,3.1388288,0.0,-0.08015423,0.11095769,-0.09615791,0.0,0.0,0.0,0.0,0.0,0.0,-0.009792554,0.03357881,-0.83534646
115340562,0.40151834,0.67518204,-1.1924894,3.1388288,0.0,-0.07812555,0.13238709,-0.12275553,0.0,0.0,0.0,0.0,0.0,0.0,-0.009342071,0.03779404,-0.8503206
115440630,0.40151834,0.67518204,-1.1924894,3.1388288,0.0,-0.076987654,0.15517615,-0.15115535,0.0,0.0,0.0,0.0,0.0,0.0,-0.007220287,0.0371169,-0.86321086
115560753,0.40151834,0.67518204,-1.1924894,3.1388288,0.0,-0.076331295,0.18291451,-0.19241917,0.0,0.0,0.0,0.0,0.0,0.0,-0.008946025,0.04169683,-0.8820337
115660851,0.40151834,0.67518204,-1.1924894,3.1388288,0.0,-0.0761848,0.20533493,-0.23215884,0.0,0.0,0.0,0.0,0.0,0.0,-0.005762259,0.036866467,-0.9008386
115761335,0.40151834,0.67518204,-1.1924894,3.1388288,0.0,-0.075791605,0.22116624,-0.27041835,0.0,0.0,0.0,0.0,0.0,0.0,-0.0032043085,0.03696113,-0.91193223
115861409,0.40151834,0.67518204,-1.1924894,3.1388288,0.0,-0.073943466,0.23176779,-0.31314975,0.0,0.0,0.0,0.0,0.0,0.0,-0.0021228422,0.03191496,-0.9239107
115961448,0.40151834,0.67518204,nan,3.1388288,0.0,-0.07030866,0.23334779,-0.17341344,0.0,0.0,0.0,0.0,0.0,0.0,0.00043140375,0.0216375,-0.89592266
116061400,0.40151834,0.67518204,nan,3.1388288,0.0,-0.06426619,0.22750044,-0.15638955,0.0,0.0,0.0,0.0,0.0,0.0,0.0014101698,0.02391478,-0.88919264
116161568,0.40151834,0.67518204,nan,3.1388288,0.0,-0.054991733,0.21426383,-0.15661725,0.0,0.0,0.0,0.0,0.0,0.0,0.0032755104,0.014381644,-0.8803297
116261451,0.40151834,0.67518204,nan,3.1388288,0.0,-0.043956738,0.19593015,-0.15662637,0.0,0.0,0.0,0.0,0.0,0.0,0.009896515,0.011765176,-0.8739065
116361603,0.40151834,0.67518204,nan,3.1388288,0.0,-0.029427197,0.1715727,-0.15662637,0.0,0.0,0.0,0.0,0.0,0.0,0.010437608,0.005103368,-0.85920554
116461760,0.40151834,0.67518204,nan,3.1388288,0.0,-0.014268898,0.14639845,-0.15662637,0.0,0.0,0.0,0.0,0.0,0.0,0.012823435,0.0013869889,-0.844138
116562325,0.40151834,0.67518204,nan,3.1388288,0.0,0.0034236251,0.11743427,-0.15662637,0.0,0.0,0.0,0.0,0.0,0.0,0.015043564,-0.0024712868,-0.8322351
116662024,0.40151834,0.67518204,nan,3.1388288,0.0,0.020456702,0.09050404,-0.15662637,0.0,0.0,0.0,0.0,0.0,0.0,0.018637735,-0.0066207377,-0.8278207
116762312,0.40151834,0.67518204,nan,3.1388288,0.0,0.040150218,0.06125357,-0.15662637,0.0,0.0,0.0,0.0,0.0,0.0,0.024078159,-0.015963756,-0.8242419
116862129,0.40151834,0.67518204,nan,3.1388288,0.0,0.058728036,0.03401825,-0.15662637,0.0,0.0,0.0,0.0,0.0,0.0,0.024236904,-0.018340249,-0.81940746
116982245,0.40151834,0.67518204,nan,3.1388288,0.0,0.082453296,-0.0009041786,-0.15662637,0.0,0.0,0.0,0.0,0.0,0.0,0.030323952,-0.023558218,-0.8214793
117082324,0.40151834,0.67518204,nan,3.1388288,0.0,0.10427029,-0.03293287,-0.15662637,0.0,0.0,0.0,0.0,0.0,0.0,0.035016097,-0.031769387,-0.8277745
117182443,0.40151834,0.67518204,nan,3.1388288,0.0,0.12556458,-0.064121485,-0.15662637,0.0,0.0,0.0,0.0,0.0,0.0,0.037612796,-0.033924054,-0.8326773
117282675,nan,nan,nan,3.1388288,0.0,-0.00028199682,-0.10202838,-0.15662637,0.0,0.0,0.0,0.0,0.0,0.0,0.029191779,-0.035158932,-0.8363956
117382812,nan,nan,nan,3.1388288,0.0,-0.00055987487,-0.20256652,-0.15662637,0.0,0.0,0.0,0.0,0.0,0.0,0.03080619,-0.046025258,-0.8390001
117482803,nan,nan,nan,3.1388288,0.0,-0.0007501649,-0.27141476,-0.15662637,0.0,0.0,0.0,0.0,0.0,0.0,0.030986572,-0.048909735,-0.8372038
117582918,nan,nan,nan,3.1388288,0.0,-0.00049414503,-0.17878503,-0.15662637,0.0,0.0,0.0,0.0,0.0,0.0,0.02719698,-0.037162714,-0.83097696
117682918,nan,nan,nan,3.1388288,0.0,-0.19459605,0.18320613,-0.15662637,0.0,0.0,0.0,0.0,0.0,0.0,0.010675851,0.0007967589,-0.8271216
117782985,0.12046653,0.9152073,nan,3.1388288,0.0,0.008582704,-0.007470968,-0.15662637,0.0,0.0,0.0,0.0,0.0,0.0,0.024004795,-0.015371937,-0.8172545
117883127,0.12046653,0.9152073,nan,3.1388288,0.0,0.028943298,-0.021849379,-0.15662637,0.0,0.0,0.0,0.0,0.0,0.0,0.025130812,-0.010429747,-0.8109704
117983166,0.12046653,0.9152073,nan,3.1388288,0.0,0.04462821,-0.02801674,-0.15662637,0.0,0.0,0.0,0.0,0.0,0.0,0.02436924,-0.0056888666,-0.8046733
118083375,nan,nan,nan,3.1388288,0.0,-9.076155e-05,-0.032838143,-0.15662637,0.0,0.0,0.0,0.0,0.0,0.0,0.017841913,0.0024714537,-0.7926789
118183774,0.05032084,0.9342109,nan,3.1388288,0.0,0.0,0.0,-0.15662637,0.0,0.0,0.0,0.0,0.0,0.0,0.017179415,0.010703831,-0.79055446
118283685,0.05032084,0.9342109,nan,3.1388288,0.0,0.0067500933,0.017978704,-0.15662637,0.0,0.0,0.0,0.0,0.0,0.0,0.013866089,0.022562383,-0.79013866
118403719,0.05032084,0.9342109,nan,3.1388288,0.0,0.011518654,0.048149038,-0.15662637,0.0,0.0,0.0,0.0,0.0,0.0,0.009789747,0.033583365,-0.7869412
118503952,0.05032084,0.9342109,nan,3.1388288,0.0,0.013655373,0.08050864,-0.15662637,0.0,0.0,0.0,0.0,0.0,0.0,0.012184621,0.0427124,-0.78126913
118603810,0.05032084,0.9342109,nan,3.1388288,0.0,0.015391973,0.11351745,-0.15662637,0.0,0.0,0.0,0.0,0.0,0.0,0.014267705,0.043750454,-0.77818877
118704463,0.05032084,0.9342109,nan,3.1388288,0.0,0.017186139,0.14964099,-0.15662637,0.0,0.0,0.0,0.0,0.0,0.0,0.014712018,0.048412338,-0.77172697
118804030,0.05032084,0.9342109,nan,3.1388288,0.0,0.018979814,0.18082389,-0.15662637,0.0,0.0,0.0,0.0,0.0,0.0,0.013431218,0.04123294,-0.7682855
118904198,0.05032084,0.9342109,nan,3.1388288,0.0,0.020818498,0.20807755,-0.15662637,0.0,0.0,0.0,0.0,0.0,0.0,0.009226365,0.041233253,-0.7635368
119004386,0.05032084,0.9342109,nan,3.1388288,0.0,0.021798408,0.22505338,-0.15662637,0.0,0.0,0.0,0.0,0.0,0.0,0.0053612236,0.037491012,-0.7581732
119104522,0.05032084,0.9342109,nan,3.1388288,0.0,0.021535998,0.23274423,-0.15662637,0.0,0.0,0.0,0.0,0.0,0.0,0.0078454595,0.03223269,-0.759034
119204610,0.05032084,0.9342109,nan,3.1388288,0.0,0.020086188,0.22957575,-0.15662637,0.0,0.0,0.0,0.0,0.0,0.0,0.005120356,0.028754035,-0.7662297
119304624,0.05032084,0.9342109,nan,3.1388288,0.0,0.016636001,0.2161834,-0.15662637,0.0,0.0,0.0,0.0,0.0,0.0,-0.0017328607,0.017943116,-0.7694802
119404781,0.05032084,0.9342109,nan,3.1388288,0.0,0.011067588,0.19633654,-0.15662637,0.0,0.0,0.0,0.0,0.0,0.0,0.0009326902,0.015602324,-0.77753586
119504705,0.05032084,0.9342109,nan,3.1388288,0.0,0.0026892703,0.1696297,-0.15662637,0.0,0.0,0.0,0.0,0.0,0.0,0.0001229397,0.011819562,-0.78466004
119604784,0.05032084,0.9342109,nan,3.1388288,0.0,-0.0056167203,0.14222421,-0.15662637,0.0,0.0,0.0,0.0,0.0,0.0,-0.0035044798,0.005620902,-0.7909914
119724985,0.05032084,0.9342109,nan,3.1388288,0.0,-0.017171048,0.108183995,-0.15662637,0.0,0.0,0.0,0.0,0.0,0.0,-0.0031671585,0.0034504323,-0.7981821
119825171,nan,nan,nan,3.1388288,0.0,-0.00017262867,-0.062458225,-0.15662637,0.0,0.0,0.0,0.0,0.0,0.0,-0.0010524532,-0.01254472,-0.8046401
119925318,nan,nan,nan,3.1388288,0.0,-0.00078612636,-0.28442585,-0.15662637,0.0,0.0,0.0,0.0,0.0,0.0,-0.006953041,-0.027123705,-0.81445646
120025360,nan,nan,nan,3.1388288,0.0,-0.00096993626,-0.35092953,-0.15662637,0.0,0.0,0.0,0.0,0.0,0.0,-0.0018482213,-0.027163599,-0.8244777
120125393,nan,nan,nan,3.1388288,0.0,-0.0012886649,-0.46624768,-0.15662637,0.0,0.0,0.0,0.0,0.0,0.0,-0.002566976,-0.03545332,-0.8261884
120225437,nan,nan,nan,3.1388288,0.0,-0.0012422506,-0.44945467,-0.15662637,0.0,0.0,0.0,0.0,0.0,0.0,0.0011481959,-0.026190683,-0.831975
120325563,nan,nan,nan,3.1388288,0.0,-0.00060278963,-0.21809338,-0.15662637,0.0,0.0,0.0,0.0,0.0,0.0,-0.00015276065,-0.0024270704,-0.83266354
120425667,nan,nan,nan,3.1388288,0.0,-0.00045087305,-0.16312893,-0.15662637,0.0,0.0,0.0,0.0,0.0,0.0,-0.0008431552,0.011087622,-0.8302938
120525805,nan,nan,nan,3.1388288,0.0,-0.0006020938,-0.21784163,-0.15662637,0.0,0.0,0.0,0.0,0.0,0.0,0.00018589199,0.007588543,-0.83214283
120626173,0.13413723,0.79910594,nan,3.1388288,0.0,0.0,0.0,-0.15662637,0.0,0.0,0.0,0.0,0.0,0.0,-0.0008731317,0.027857658,-0.83254814
120726182,0.13413723,0.79910594,nan,3.1388288,0.0,-0.0017147146,0.03171896,-0.15662637,0.0,0.0,0.0,0.0,0.0,0.0,0.0015120483,0.028923526,-0.8334841
120826332,0.13413723,0.79910594,nan,3.1388288,0.0,-0.0034815944,0.06277812,-0.15662637,0.0,0.0,0.0,0.0,0.0,0.0,0.0018322822,0.027363693,-0.82815397
120926212,0.13413723,0.79910594,nan,3.1388288,0.0,-0.005251348,0.09058009,-0.15662637,0.0,0.0,0.0,0.0,0.0,0.0,0.0003248481,0.029177887,-0.8215866
121046305,0.13413723,0.79910594,nan,3.1388288,0.0,-0.007563379,0.11319917,-0.15662637,0.0,0.0,0.0,0.0,0.0,0.0,0.0021662184,0.020214856,-0.8175284
121147198,0.13413723,0.79910594,nan,3.1388288,0.0,-0.00922079,0.1214195,-0.15662637,0.0,0.0,0.0,0.0,0.0,0.0,0.0068657864,0.015036155,-0.81253463
121246780,0.13413723,0.79910594,nan,3.1388288,0.0,-0.0093125785,0.11799242,-0.15662637,0.0,0.0,0.0,0.0,0.0,0.0,0.002181427,0.009960812,-0.81321716
121347913,0.13413723,0.79910594,nan,3.1388288,0.0,-0.008038458,0.1042114,-0.15662637,0.0,0.0,0.0,0.0,0.0,0.0,0.0038350367,0.0035721525,-0.81598586
121446958,0.13413723,0.79910594,nan,3.1388288,0.0,-0.0063608466,0.08333165,-0.15662637,0.0,0.0,0.0,0.0,0.0,0.0,0.004834728,-0.0039305934,-0.82149243
121547076,nan,nan,nan,3.1388288,0.0,-0.00061126286,-0.22115904,-0.15662637,0.0,0.0,0.0,0.0,0.0,0.0,0.003818357,-0.03202468,-0.82401896
121647033,nan,nan,nan,3.1388288,0.0,-0.0012889977,-0.46636817,-0.15662637,0.0,0.0,0.0,0.0,0.0,0.0,0.0053593256,-0.04980266,-0.8276154
121748376,nan,nan,nan,3.1388288,0.0,-0.001352189,-0.48923114,-0.15662637,0.0,0.0,0.0,0.0,0.0,0.0,0.0065362947,-0.052671153,-0.830682
121847209,nan,nan,nan,3.1388288,0.0,-0.0014158878,-0.51227784,-0.15662637,0.0,0.0,0.0,0.0,0.0,0.0,-0.0007825168,-0.05065931,-0.8336822
121947175,nan,nan,nan,3.1388288,0.0,-0.0013946607,-0.5045977,-0.15662637,0.0,0.0,0.0,0.0,0.0,0.0,-0.00271702,-0.040398356,-0.8419421
122047260,nan,nan,nan,3.1388288,0.0,-0.0011126834,-0.40257642,-0.15662637,0.0,0.0,0.0,0.0,0.0,0.0,-0.002759654,-0.028397983,-0.850283
122147617,nan,nan,nan,3.1388288,0.0,-0.0011236067,-0.40652853,-0.15662637,0.0,0.0,0.0,0.0,0.0,0.0,-0.0071540666,-0.024793152,-0.85936606
122247669,nan,nan,nan,3.1388288,0.0,-0.00094862754,-0.34321988,-0.15662637,0.0,0.0,0.0,0.0,0.0,0.0,-0.005470327,-0.007818759,-0.86930346
122367721,nan,nan,nan,3.1388288,0.0,-0.00010517456,-0.038052868,-0.15662637,0.0,0.0,0.0,0.0,0.0,0.0,-0.0054117525,0.026086979,-0.8795039
122467744,0.2043476,0.75214237,nan,3.1388288,0.0,-0.006616902,0.015050315,-0.15662637,0.0,0.0,0.0,0.0,0.0,0.0,-0.006078631,0.03178976,-0.8807987
122567766,0.2043476,0.75214237,nan,3.1388288,0.0,-0.02234327,0.05397988,-0.15662637,0.0,0.0,0.0,0.0,0.0,0.0,-0.012572633,0.034284897,-0.88907456
122667906,0.2043476,0.75214237,nan,3.1388288,0.0,-0.039895393,0.09624587,-0.15662637,0.0,0.0,0.0,0.0,0.0,0.0,-0.015263833,0.042305976,-0.88429093
122767947,0.2043476,0.75214237,nan,3.1388288,0.0,-0.05594261,0.13346016,-0.15662637,0.0,0.0,0.0,0.0,0.0,0.0,-0.016605796,0.040556755,-0.8787792
122868064,0.2043476,0.75214237,nan,3.1388288,0.0,-0.072444186,0.16881011,-0.15662637,0.0,0.0,0.0,0.0,0.0,0.0,-0.014461188,0.044827655,-0.87944615
122968244,0.2043476,0.75214237,nan,3.1388288,0.0,-0.08549288,0.19554074,-0.15662637,0.0,0.0,0.0,0.0,0.0,0.0,-0.017320303,0.041956104,-0.87242544
123068650,0.2043476,0.75214237,nan,3.1388288,0.0,-0.09621174,0.21588992,-0.15662637,0.0,0.0,0.0,0.0,0.0,0.0,-0.012294642,0.039247908,-0.8719188
123168759,0.2043476,0.75214237,nan,3.1388288,0.0,-0.10213964,0.2272507,-0.15662637,0.0,0.0,0.0,0.0,0.0,0.0,-0.013686716,0.03437256,-0.869303
123289245,0.2043476,0.75214237,nan,3.1388288,0.0,-0.104467556,0.23008548,-0.15662637,0.0,0.0,0.0,0.0,0.0,0.0,-0.01028688,0.03031799,-0.8694575
123388709,0.2043476,0.75214237,nan,3.1388288,0.0,-0.10263677,0.22487485,-0.15662637,0.0,0.0,0.0,0.0,0.0,0.0,-0.0068185376,0.025988467,-0.87059855
123488738,0.2043476,0.75214237,nan,3.1388288,0.0,-0.09707804,0.21380863,-0.15662637,0.0,0.0,0.0,0.0,0.0,0.0,-0.001225559,0.020734226,-0.87143755
123588810,0.2043476,0.75214237,nan,3.1388288,0.0,-0.08876515,0.19942495,-0.15662637,0.0,0.0,0.0,0.0,0.0,0.0,0.0033539878,0.016247006,-0.8783423
123688865,0.2043476,0.75214237,nan,3.1388288,0.0,-0.07638997,0.18083856,-0.15662637,0.0,0.0,0.0,0.0,0.0,0.0,0.00505105,0.011004197,-0.87896043
123789230,0.2043476,0.75214237,nan,3.1388288,0.0,-0.062388565,0.16196999,-0.15662637,0.0,0.0,0.0,0.0,0.0,0.0,0.006779022,0.007917789,-0.8771814
123889261,0.2043476,0.75214237,nan,3.1388288,0.0,-0.045470916,0.13986519,-0.15662637,0.0,0.0,0.0,0.0,0.0,0.0,0.010332713,0.0032533854,-0.87471193
123989316,0.2043476,0.75214237,nan,3.1388288,0.0,-0.029036744,0.11955724,-0.15662637,0.0,0.0,0.0,0.0,0.0,0.0,0.008593759,0.0028206534,-0.8679265
124089462,nan,nan,nan,3.1388288,0.0,-0.00011112675,-0.040206414,-0.15662637,0.0,0.0,0.0,0.0,0.0,0.0,0.014929431,-0.01634518,-0.86841726
124189506,nan,nan,nan,3.1388288,0.0,-0.08717531,0.13872343,-0.15662637,0.0,0.0,0.0,0.0,0.0,0.0,0.0060988665,-0.0013243314,-0.8694624
124289593,nan,nan,nan,3.1388288,0.0,-0.00024155724,-0.08739705,-0.15662637,0.0,0.0,0.0,0.0,0.0,0.0,0.015070798,-0.024246354,-0.8679671
124389787,nan,nan,nan,3.1388288,0.0,-0.0012237125,-0.44274747,-0.15662637,0.0,0.0,0.0,0.0,0.0,0.0,0.013597688,-0.053961832,-0.8684622
124489812,nan,nan,nan,3.1388288,0.0,-0.0016593153,-0.6003516,-0.15662637,0.0,0.0,0.0,0.0,0.0,0.0,0.012655599,-0.06685133,-0.8665879
124590061,nan,nan,nan,3.1388288,0.0,-0.0021219128,-0.7677224,-0.15662637,0.0,0.0,0.0,0.0,0.0,0.0,0.010752108,-0.0780933,-0.86574125
124710339,nan,nan,nan,3.1388288,0.0,-0.002303169,-0.83330226,-0.15662637,0.0,0.0,0.0,0.0,0.0,0.0,0.012501572,-0.078282945,-0.8665973
124810284,nan,nan,nan,3.1388288,0.0,-0.0012616632,-0.45647833,-0.15662637,0.0,0.0,0.0,0.0,0.0,0.0,0.012932706,-0.041906763,-0.86836076
124910320,nan,nan,nan,3.1388288,0.0,-0.00026379092,-0.095441334,-0.15662637,0.0,0.0,0.0,0.0,0.0,0.0,0.0123173725,-0.01150782,-0.8674272
125010315,nan,nan,nan,3.1388288,0.0,-0.00037423417,-0.13540046,-0.15662637,0.0,0.0,0.0,0.0,0.0,0.0,0.010252935,-0.007976966,-0.8664578
125110425,nan,nan,nan,3.1388288,0.0,-0.00058747677,-0.21255308,-0.15662637,0.0,0.0,0.0,0.0,0.0,0.0,0.01056862,-0.013421837,-0.8666542
125210566,nan,nan,nan,3.1388288,0.0,-0.0003722959,-0.1346992,-0.15662637,0.0,0.0,0.0,0.0,0.0,0.0,0.010639543,-0.009824985,-0.8659024
125311208,nan,nan,nan,3.1388288,0.0,-0.00037433277,-0.13543613,-0.15662637,0.0,0.0,0.0,0.0,0.0,0.0,0.012458412,-0.01311231,-0.86651284
125411354,nan,nan,nan,3.1388288,0.0,-0.00077241915,-0.27946648,-0.15662637,0.0,0.0,0.0,0.0,0.0,0.0,0.011643924,-0.024151944,-0.86359525
125511610,nan,nan,nan,3.1388288,0.0,-0.0008805057,-0.31857294,-0.15662637,0.0,0.0,0.0,0.0,0.0,0.0,0.01077375,-0.030720213,-0.8628901
125611592,nan,nan,nan,3.1388288,0.0,-0.00097629434,-0.35322994,-0.15662637,0.0,0.0,0.0,0.0,0.0,0.0,0.0108815245,-0.032463115,-0.86146015
125731925,nan,nan,nan,3.1388288,0.0,-0.00177888,-0.6436109,-0.15662637,0.0,0.0,0.0,0.0,0.0,0.0,0.013736134,-0.0613468,-0.85825324
125831125,nan,nan,nan,3.1388288,0.0,-0.0010175677,-0.36816293,-0.15662637,0.0,0.0,0.0,0.0,0.0,0.0,0.011244099,-0.036158454,-0.8577355
125931520,0.07177679,0.6883636,nan,3.1388288,0.0,0.0027133992,-0.0013928473,-0.15662637,0.0,0.0,0.0,0.0,0.0,0.0,0.01249034,-0.00950856,-0.8540603
126031590,0.07177679,0.6883636,nan,3.1388288,0.0,0.009253692,-0.005662328,-0.15662637,0.0,0.0,0.0,0.0,0.0,0.0,0.011495899,-0.0054008816,-0.8469219
126131978,0.07177679,0.6883636,nan,3.1388288,0.0,0.015664103,-0.008827123,-0.15662637,0.0,0.0,0.0,0.0,0.0,0.0,0.011577474,-0.006793921,-0.83963704
126231592,0.07177679,0.6883636,nan,3.1388288,0.0,0.020127695,-0.010127672,-0.15662637,0.0,0.0,0.0,0.0,0.0,0.0,0.01138198,-0.0075608985,-0.83586967
126331908,0.07177679,0.6883636,nan,3.1388288,0.0,0.023348408,-0.0091300635,-0.15662637,0.0,0.0,0.0,0.0,0.0,0.0,0.009327691,-0.0061051482,-0.8312212
126431737,0.07177679,0.6883636,nan,3.1388288,0.0,0.024964336,-0.0062419353,-0.15662637,0.0,0.0,0.0,0.0,0.0,0.0,0.0051434087,-0.0065992167,-0.82953036
127252511,0.07177679,0.6883636,nan,3.1388288,0.0,-0.0073479232,0.033633597,-0.15662637,0.0,0.0,0.0,0.0,0.0,0.0,0.0008134567,0.0056970133,-0.8132491
127352632,0.07177679,0.6883636,nan,3.1388288,0.0,-0.00961084,0.043060545,-0.15662637,0.0,0.0,0.0,0.0,0.0,0.0,0.0027492123,0.009188032,-0.8064835
127452619,0.07177679,0.6883636,nan,3.1388288,0.0,-0.011111656,0.05504431,-0.15662637,0.0,0.0,0.0,0.0,0.0,0.0,0.003928266,0.011180157,-0.8040072
127552817,0.07177679,0.6883636,nan,3.1388288,0.0,-0.0120425755,0.06782806,-0.15662637,0.0,0.0,0.0,0.0,0.0,0.0,0.0011221068,0.013741853,-0.8011739
127652983,0.07177679,0.6883636,nan,3.1388288,0.0,-0.013173528,0.08335578,-0.15662637,0.0,0.0,0.0,0.0,0.0,0.0,0.0031161057,0.017706137,-0.80082905
127753355,0.07177679,0.6883636,nan,3.1388288,0.0,-0.01416299,0.09954209,-0.15662637,0.0,0.0,0.0,0.0,0.0,0.0,-1.759734e-06,0.018778382,-0.80798054
127853415,0.07177679,0.6883636,nan,3.1388288,0.0,-0.014365535,0.11754967,-0.14798848,0.0,0.0,0.0,0.0,0.0,0.0,0.0047359117,0.023113396,-0.8093572
127953495,0.07177679,0.6883636,nan,3.1388288,0.0,-0.014360474,0.13383162,-0.13463345,0.0,0.0,0.0,0.0,0.0,0.0,0.0019576333,0.024969805,-0.81219304
128053559,0.07177679,0.6883636,nan,3.1388288,0.0,-0.013975294,0.14978346,-0.12255399,0.0,0.0,0.0,0.0,0.0,0.0,0.003616418,0.015169344,-0.8178137
128153612,0.07177679,0.6883636,nan,3.1388288,0.0,-0.013131577,0.16096197,-0.106066145,0.0,0.0,0.0,0.0,0.0,0.0,0.0033394513,0.02203081,-0.82727516
128273792,0.07177679,0.6883636,nan,3.1388288,0.0,-0.011642319,0.1736122,-0.10045139,0.0,0.0,0.0,0.0,0.0,0.0,0.002948898,0.020745652,-0.8362209
128373653,0.07177679,0.6883636,nan,3.1388288,0.0,-0.009492629,0.1803519,-0.10040132,0.0,0.0,0.0,0.0,0.0,0.0,0.0077656005,0.02105167,-0.8425184
128474333,0.07177679,0.6883636,nan,3.1388288,0.0,-0.005894863,0.18484904,-0.10040172,0.0,0.0,0.0,0.0,0.0,0.0,0.014325223,0.020190002,-0.85253245
128574057,0.07177679,0.6883636,nan,3.1388288,0.0,-0.0010486062,0.18635671,-0.10040172,0.0,0.0,0.0,0.0,0.0,0.0,0.009957926,0.01887085,-0.861709
128674328,0.07177679,0.6883636,nan,3.1388288,0.0,0.005716723,0.18463856,-0.10040172,0.0,0.0,0.0,0.0,0.0,0.0,0.011986993,0.018371277,-0.8707703
128774277,0.07177679,0.6883636,nan,3.1388288,0.0,0.012848331,0.18202302,-0.10040172,0.0,0.0,0.0,0.0,0.0,0.0,0.012407761,0.01677765,-0.8779045
128874286,0.07177679,0.6883636,nan,3.1388288,0.0,0.021580452,0.1773045,-0.10040172,0.0,0.0,0.0,0.0,0.0,0.0,0.010379491,0.0124461325,-0.88393235
128974279,0.07177679,0.6883636,nan,3.1388288,0.0,0.029988635,0.17258929,-0.10040172,0.0,0.0,0.0,0.0,0.0,0.0,0.01774461,0.01579381,-0.88730705
129074375,0.07177679,0.6883636,nan,3.1388288,0.0,0.039626215,0.1678834,-0.10040172,0.0,0.0,0.0,0.0,0.0,0.0,0.018161269,0.011484181,-0.88707626
129174429,0.07177679,0.6883636,nan,3.1388288,0.0,0.048187267,0.16226195,-0.10040172,0.0,0.0,0.0,0.0,0.0,0.0,0.015888799,0.011111477,-0.88532144
129274601,0.07177679,0.6883636,nan,3.1388288,0.0,0.05726117,0.15742968,-0.10040172,0.0,0.0,0.0,0.0,0.0,0.0,0.020131376,0.0144740455,-0.88125336
129374781,0.07177679,0.6883636,nan,3.1388288,0.0,0.06580255,0.15287176,-0.10040172,0.0,0.0,0.0,0.0,0.0,0.0,0.021692168,0.0116950115,-0.8777851
129475415,0.07177679,0.6883636,nan,3.1388288,0.0,0.073132716,0.14925091,-0.10040172,0.0,0.0,0.0,0.0,0.0,0.0,0.020769069,0.010455425,-0.87688404
129595002,0.07177679,0.6883636,nan,3.1388288,0.0,0.081877515,0.14444083,-0.10040172,0.0,0.0,0.0,0.0,0.0,0.0,0.022476112,0.009317415,-0.87495136
129694956,0.07177679,0.6883636,nan,3.1388288,0.0,0.088938534,0.13940465,-0.10040172,0.0,0.0,0.0,0.0,0.0,0.0,0.024939077,0.0065630917,-0.8748562
129795056,0.07177679,0.6883636,nan,3.1388288,0.0,0.09553468,0.13342166,-0.10040172,0.0,0.0,0.0,0.0,0.0,0.0,0.023119433,0.0075464626,-0.87198055
129895197,0.07177679,0.6883636,nan,3.1388288,0.0,0.10284334,0.12558371,-0.10040172,0.0,0.0,0.0,0.0,0.0,0.0,0.023044411,0.007540153,-0.8660739
129995170,0.07177679,0.6883636,nan,3.1388288,0.0,0.10857786,0.115625575,-0.10040172,0.0,0.0,0.0,0.0,0.0,0.0,0.024393246,-0.00028461614,-0.86251295
130095414,0.07177679,0.6883636,nan,3.1388288,0.0,0.11356112,0.10272444,-0.10040172,0.0,0.0,0.0,0.0,0.0,0.0,0.022187784,0.003203047,-0.8586313
130196040,0.07177679,0.6883636,nan,3.1388288,0.0,0.1166372,0.08903725,-0.10040172,0.0,0.0,0.0,0.0,0.0,0.0,0.019984096,-0.0058673294,-0.8590805
130296030,0.07177679,0.6883636,nan,3.1388288,0.0,0.11835809,0.07297998,-0.10040172,0.0,0.0,0.0,0.0,0.0,0.0,0.018041497,-0.0045275367,-0.85492074
130395977,0.07177679,0.6883636,nan,3.1388288,0.0,0.118563496,0.057144903,-0.10206071,0.0,0.0,0.0,0.0,0.0,0.0,0.020621456,-0.006084455,-0.8534435
130496410,0.07177679,0.6883636,nan,3.1388288,0.0,0.11668548,0.04053447,-0.13293791,0.0,0.0,0.0,0.0,0.0,0.0,0.01743697,-0.008356736,-0.85754234
130596129,0.07177679,0.6883636,nan,3.1388288,0.0,0.11264009,0.026138337,-0.13255723,0.0,0.0,0.0,0.0,0.0,0.0,0.014027046,-0.0046944804,-0.85368603
130716377,0.07177679,0.6883636,nan,3.1388288,0.0,0.104171105,0.0102726305,-0.1325306,0.0,0.0,0.0,0.0,0.0,0.0,0.011057185,-0.0049852533,-0.84811604
130816004,0.07177679,0.6883636,nan,3.1388288,0.0,0.0961335,0.0010047435,-0.13253021,0.0,0.0,0.0,0.0,0.0,0.0,0.007856192,-0.0041997954,-0.83852804
130917241,0.07177679,0.6883636,nan,3.1388288,0.0,0.08590948,-0.0061571687,-0.13253021,0.0,0.0,0.0,0.0,0.0,0.0,0.010719279,-0.006716542,-0.83907676
131016337,0.07177679,0.6883636,nan,3.1388288,0.0,0.07593776,-0.010693067,-0.13253021,0.0,0.0,0.0,0.0,0.0,0.0,0.009128962,-0.005183708,-0.8410104
131117184,0.07177679,0.6883636,nan,3.1388288,0.0,0.06513426,-0.014678746,-0.13253021,0.0,0.0,0.0,0.0,0.0,0.0,0.0076411534,-0.005836814,-0.85073197
131216636,0.07177679,0.6883636,nan,3.1388288,0.0,0.056046903,-0.017834084,-0.13253021,0.0,0.0,0.0,0.0,0.0,0.0,0.008955351,-0.005509152,-0.8631885
131316840,0.07177679,0.6883636,nan,3.1388288,0.0,0.048344105,-0.020582408,-0.13253021,0.0,0.0,0.0,0.0,0.0,0.0,0.009188283,-0.004043612,-0.87525684
131416626,0.07177679,0.6883636,nan,3.1388288,0.0,0.043397296,-0.022878187,-0.13253021,0.0,0.0,0.0,0.0,0.0,0.0,0.0063471785,-0.007775006,-0.8850391
131516822,0.07177679,0.6883636,nan,3.1388288,0.0,0.04018276,-0.02663652,-0.13253021,0.0,0.0,0.0,0.0,0.0,0.0,0.008141975,-0.006361426,-0.8931671
131616785,0.07177679,0.6883636,nan,3.1388288,0.0,0.038622215,-0.030725256,-0.13253021,0.0,0.0,0.0,0.0,0.0,0.0,0.012482456,-0.008332771,-0.8980887
131717246,0.07177679,0.6883636,nan,3.1388288,0.0,0.03806576,-0.037137005,-0.13253021,0.0,0.0,0.0,0.0,0.0,0.0,0.012531871,-0.0061409897,-0.90128946
131817201,0.07177679,0.6883636,nan,3.1388288,0.0,0.038840286,-0.04384621,-0.13253021,0.0,0.0,0.0,0.0,0.0,0.0,0.015972141,-0.01240702,-0.9041908
131917338,nan,nan,nan,3.1388288,0.0,-0.0005531799,-0.20014423,-0.13253021,0.0,0.0,0.0,0.0,0.0,0.0,0.0072383774,-0.024805283,-0.9023041
132017475,nan,nan,nan,3.1388288,0.0,-0.00090424577,-0.32716227,-0.13253021,0.0,0.0,0.0,0.0,0.0,0.0,0.010771429,-0.042641994,-0.90548277
132117422,nan,nan,nan,3.1388288,0.0,-0.0008989146,-0.3252334,-0.13253021,0.0,0.0,0.0,0.0,0.0,0.0,0.011940433,-0.03869583,-0.90543544
132237462,nan,nan,nan,3.1388288,0.0,-0.0010388461,-0.3758616,-0.13253021,0.0,0.0,0.0,0.0,0.0,0.0,0.009783532,-0.044266976,-0.89866996
132337558,nan,nan,nan,3.1388288,0.0,-0.002173909,-0.7865351,-0.13253021,0.0,0.0,0.0,0.0,0.0,0.0,0.012089292,-0.07681683,-0.8849699
132437638,nan,nan,nan,3.1388288,0.0,-0.0022475393,-0.813175,-0.13253021,0.0,0.0,0.0,0.0,0.0,0.0,0.013658654,-0.07310639,-0.87488055
132538187,nan,nan,nan,3.1388288,0.0,-0.0017297213,-0.6258249,-0.13253021,0.0,0.0,0.0,0.0,0.0,0.0,0.014486963,-0.057007805,-0.86065114
132638303,nan,nan,nan,3.1388288,0.0,-0.001725161,-0.62417495,-0.13253021,0.0,0.0,0.0,0.0,0.0,0.0,0.010595709,-0.047526807,-0.8476931
132738355,nan,nan,nan,3.1388288,0.0,-0.0012546303,-0.45393378,-0.13253021,0.0,0.0,0.0,0.0,0.0,0.0,0.010769056,-0.030048765,-0.8362194
132838383,nan,nan,nan,3.1388288,0.0,-0.0049499143,-0.10005677,-0.13253021,0.0,0.0,0.0,0.0,0.0,0.0,0.010338991,0.0048485314,-0.8279521
132938748,0.0077064577,0.75735074,nan,3.1388288,0.0,-0.00016873809,0.02126694,-0.13253021,0.0,0.0,0.0,0.0,0.0,0.0,0.010788308,0.013264933,-0.8243364
133038427,0.0077064577,0.75735074,nan,3.1388288,0.0,-0.00044837332,0.051252566,-0.13253021,0.0,0.0,0.0,0.0,0.0,0.0,0.009954154,0.017069478,-0.825047
133138388,nan,nan,nan,3.1388288,0.0,-0.00022545978,-0.081572875,-0.13253021,0.0,0.0,0.0,0.0,0.0,0.0,0.0053574587,0.00068640243,-0.8228423
133258616,0.009458214,0.63787866,nan,3.1388288,0.0,0.0,0.0,-0.13253021,0.0,0.0,0.0,0.0,0.0,0.0,0.014034314,0.011719551,-0.8284637
133358782,0.009458214,0.63787866,nan,3.1388288,0.0,0.0003491134,0.021682734,-0.13253021,0.0,0.0,0.0,0.0,0.0,0.0,0.012320559,0.008061994,-0.83132976
133458890,nan,nan,nan,3.1388288,0.0,-0.00016054629,-0.05808674,-0.13253021,0.0,0.0,0.0,0.0,0.0,0.0,0.013537133,0.00012783287,-0.83378184
133558835,nan,nan,nan,3.1388288,0.0,-0.007651355,-0.046680972,-0.13253021,0.0,0.0,0.0,0.0,0.0,0.0,0.0119892545,0.00095946854,-0.8409779
133658995,0.0060347933,0.58635813,nan,3.1388288,0.0,0.0015366118,0.0018662274,-0.13253021,0.0,0.0,0.0,0.0,0.0,0.0,0.012330063,-0.008224038,-0.84535587
133759041,nan,nan,nan,3.1388288,0.0,-0.0002617227,-0.09469305,-0.13253021,0.0,0.0,0.0,0.0,0.0,0.0,0.013263207,-0.01244485,-0.8571085
133859090,nan,nan,nan,3.1388288,0.0,-0.00092867465,-0.3360008,-0.13253021,0.0,0.0,0.0,0.0,0.0,0.0,0.011037501,-0.041506317,-0.8628837
133959147,nan,nan,nan,3.1388288,0.0,-0.0011305263,-0.4090321,-0.13253021,0.0,0.0,0.0,0.0,0.0,0.0,0.014971522,-0.047484633,-0.86956394
134059258,nan,nan,nan,3.1388288,0.0,-0.0011079421,-0.400861,-0.13253021,0.0,0.0,0.0,0.0,0.0,0.0,0.016818553,-0.047201257,-0.87452835
134159547,nan,nan,nan,3.1388288,0.0,-0.0010471623,-0.37887046,-0.13253021,0.0,0.0,0.0,0.0,0.0,0.0,0.008809832,-0.03966794,-0.8730725
134259646,nan,nan,nan,3.1388288,0.0,-0.0009722335,-0.3517607,-0.13253021,0.0,0.0,0.0,0.0,0.0,0.0,0.01502843,-0.032500476,-0.8733599
134359830,nan,nan,nan,3.1388288,0.0,-0.00095818663,-0.34667844,-0.13253021,0.0,0.0,0.0,0.0,0.0,0.0,0.015174288,-0.030962663,-0.86733633
134459949,nan,nan,nan,3.1388288,0.0,-0.00089939515,-0.32540727,-0.13253021,0.0,0.0,0.0,0.0,0.0,0.0,0.014111014,-0.017088445,-0.86223596
134559778,nan,nan,nan,3.1388288,0.0,-0.029106058,-0.12546358,-0.13253021,0.0,0.0,0.0,0.0,0.0,0.0,0.014818864,0.0039928006,-0.8608179
134679984,-0.027636033,0.5799658,nan,3.1388288,0.0,0.0030784516,0.024763724,-0.13253021,0.0,0.0,0.0,0.0,0.0,0.0,0.014636669,0.018613957,-0.85224247
134779954,-0.027636033,0.5799658,nan,3.1388288,0.0,0.008480259,0.0622706,-0.13253021,0.0,0.0,0.0,0.0,0.0,0.0,0.020360574,0.02730858,-0.8507494
134880185,-0.027636033,0.5799658,nan,3.1388288,0.0,0.014846907,0.10037696,-0.13253021,0.0,0.0,0.0,0.0,0.0,0.0,0.020322405,0.027299758,-0.8451463
134980542,-0.027636033,0.5799658,nan,3.1388288,0.0,0.023390086,0.1404584,-0.13253021,0.0,0.0,0.0,0.0,0.0,0.0,0.017206185,0.028768409,-0.8397622
135080783,-0.027636033,0.5799658,nan,3.1388288,0.0,0.031990737,0.17414904,-0.13253021,0.0,0.0,0.0,0.0,0.0,0.0,0.025652546,0.030096514,-0.84870285
135180769,-0.027636033,0.5799658,nan,3.1388288,0.0,0.041438762,0.20367436,-0.13253021,0.0,0.0,0.0,0.0,0.0,0.0,0.022779305,0.027725773,-0.843227
135280851,-0.027636033,0.5799658,nan,3.1388288,0.0,0.049481593,0.2220723,-0.13253021,0.0,0.0,0.0,0.0,0.0,0.0,0.021671671,0.024942245,-0.8480246
135380791,-0.027636033,0.5799658,nan,3.1388288,0.0,0.055248387,0.23200674,-0.13253021,0.0,0.0,0.0,0.0,0.0,0.0,0.019415792,0.0192039,-0.85355186
135480767,-0.027636033,0.5799658,nan,3.1388288,0.0,0.05777913,0.23215906,-0.13253021,0.0,0.0,0.0,0.0,0.0,0.0,0.018275652,0.01481657,-0.8526172
135581112,-0.027636033,0.5799658,nan,3.1388288,0.0,0.056319006,0.22376703,-0.13253021,0.0,0.0,0.0,0.0,0.0,0.0,0.015553018,0.010133948,-0.86111295
135680947,-0.027636033,0.5799658,nan,3.1388288,0.0,0.051032174,0.20874672,-0.13253021,0.0,0.0,0.0,0.0,0.0,0.0,0.0109277265,0.005784607,-0.86318004
135781211,-0.027636033,0.5799658,nan,3.1388288,0.0,0.043948013,0.19129775,-0.13253021,0.0,0.0,0.0,0.0,0.0,0.0,0.00751139,0.0026695235,-0.8716848
135881468,-0.027636033,0.5799658,nan,3.1388288,0.0,0.03378282,0.1704275,-0.13253021,0.0,0.0,0.0,0.0,0.0,0.0,0.005660324,0.0011287318,-0.88024986
136001544,-0.027636033,0.5799658,nan,3.1388288,0.0,0.020490158,0.14623667,-0.13253021,0.0,0.0,0.0,0.0,0.0,0.0,0.005215056,-0.0003430033,-0.8888203
136101325,-0.027636033,0.5799658,nan,3.1388288,0.0,0.010080147,0.12957947,-0.13253021,0.0,0.0,0.0,0.0,0.0,0.0,0.0067086727,-0.0018626598,-0.8982161
136201440,-0.027636033,0.5799658,nan,3.1388288,0.0,-0.0002945248,0.11399539,-0.13253021,0.0,0.0,0.0,0.0,0.0,0.0,0.008032604,-0.005581757,-0.9073416
136301472,-0.027636033,0.5799658,nan,3.1388288,0.0,-0.007740649,0.102750145,-0.13253021,0.0,0.0,0.0,0.0,0.0,0.0,0.0071438947,-0.0046085995,-0.91618717
136401794,-0.027636033,0.5799658,nan,3.1388288,0.0,-0.013058971,0.092632554,-0.13253021,0.0,0.0,0.0,0.0,0.0,0.0,0.0047011143,-0.0050509125,-0.9261309
136501978,-0.027636033,0.5799658,nan,3.1388288,0.0,-0.015435135,0.085137546,-0.13253021,0.0,0.0,0.0,0.0,0.0,0.0,0.012103564,-0.0059438893,-0.9325801
136601952,-0.027636033,0.5799658,nan,3.1388288,0.0,-0.015512736,0.07794104,-0.13253021,0.0,0.0,0.0,0.0,0.0,0.0,0.009858202,-0.009182018,-0.9348392
136702078,-0.027636033,0.5799658,nan,3.1388288,0.0,-0.014306428,0.06972702,-0.13253021,0.0,0.0,0.0,0.0,0.0,0.0,0.009846046,-0.012245546,-0.9400234
136802137,-0.027636033,0.5799658,nan,3.1388288,0.0,-0.0123805925,0.05852767,-0.13253021,0.0,0.0,0.0,0.0,0.0,0.0,0.01183453,-0.019426402,-0.94206977
136902217,-0.027636033,0.5799658,nan,3.1388288,0.0,-0.010193277,0.043850396,-0.13253021,0.0,0.0,0.0,0.0,0.0,0.0,0.0069037066,-0.020822737,-0.93881696
137002222,-0.027636033,0.5799658,nan,3.1388288,0.0,-0.008897475,0.025958838,-0.13253021,0.0,0.0,0.0,0.0,0.0,0.0,0.011539204,-0.027786719,-0.93606347
137102315,-0.027636033,0.5799658,nan,3.1388288,0.0,-0.009045516,0.0018404067,-0.13253021,0.0,0.0,0.0,0.0,0.0,0.0,0.011708009,-0.029985301,-0.9250366
137222398,-0.027636033,0.5799658,nan,3.1388288,0.0,-0.010997385,-0.029827135,-0.13253021,0.0,0.0,0.0,0.0,0.0,0.0,0.007765635,-0.03307894,-0.9137269
137322554,-0.027636033,0.5799658,nan,3.1388288,0.0,-0.014299281,-0.056868464,-0.13253021,0.0,0.0,0.0,0.0,0.0,0.0,0.007840457,-0.03428852,-0.9051634
137422976,-0.027636033,0.5799658,nan,3.1388288,0.0,-0.01844077,-0.08575926,-0.13253021,0.0,0.0,0.0,0.0,0.0,0.0,0.008577088,-0.040940586,-0.8986193
137523105,-0.027636033,0.5799658,nan,3.1388288,0.0,-0.021912705,-0.11164624,-0.13253021,0.0,0.0,0.0,0.0,0.0,0.0,0.005123305,-0.039626773,-0.8933797
137623149,-0.027636033,0.5799658,nan,3.1388288,0.0,-0.025518136,-0.13631375,-0.13253021,0.0,0.0,0.0,0.0,0.0,0.0,0.006663854,-0.043354645,-0.8867203
137723251,-0.027636033,0.5799658,nan,3.1388288,0.0,-0.028039576,-0.15609436,-0.13253021,0.0,0.0,0.0,0.0,0.0,0.0,0.003465314,-0.039987158,-0.87938476
137823142,-0.027636033,0.5799658,nan,3.1388288,0.0,-0.030303545,-0.17312115,-0.13253021,0.0,0.0,0.0,0.0,0.0,0.0,0.0050120247,-0.036061894,-0.8760911
137923157,-0.027636033,0.5799658,nan,3.1388288,0.0,-0.03191839,-0.18457967,-0.13253021,0.0,0.0,0.0,0.0,0.0,0.0,0.007134241,-0.039153486,-0.8724602
138023236,-0.027636033,0.5799658,nan,3.1388288,0.0,-0.03293776,-0.19269496,-0.13253021,0.0,0.0,0.0,0.0,0.0,0.0,0.008462741,-0.034713287,-0.8699937
138123239,-0.027636033,0.5799658,nan,3.1388288,0.0,-0.032401096,-0.19654588,-0.13253021,0.0,0.0,0.0,0.0,0.0,0.0,0.009075785,-0.03617154,-0.86802876
138223571,-0.027636033,0.5799658,nan,3.1388288,0.0,-0.03095704,-0.19694547,-0.13253021,0.0,0.0,0.0,0.0,0.0,0.0,0.007989471,-0.031445757,-0.859444
138323744,-0.027636033,0.5799658,nan,3.1388288,0.0,-0.029600076,-0.19539374,-0.13253021,0.0,0.0,0.0,0.0,0.0,0.0,0.0048257997,-0.030412216,-0.85621
138423726,-0.027636033,0.5799658,nan,3.1388288,0.0,-0.028598858,-0.19281167,-0.13253021,0.0,0.0,0.0,0.0,0.0,0.0,0.009882261,-0.031131834,-0.858029
138523946,-0.027636033,0.5799658,nan,3.1388288,0.0,-0.027604263,-0.18914542,-0.13253021,0.0,0.0,0.0,0.0,0.0,0.0,0.008790503,-0.030880963,-0.8567342
138643830,-0.027636033,0.5799658,nan,3.1388288,0.0,-0.026269197,-0.18519586,-0.13253021,0.0,0.0,0.0,0.0,0.0,0.0,0.008227571,-0.025412492,-0.8602606
138743980,-0.027636033,0.5799658,nan,3.1388288,0.0,-0.024890652,-0.18110825,-0.13253021,0.0,0.0,0.0,0.0,0.0,0.0,0.010259304,-0.025779262,-0.86232746
138844021,-0.027636033,0.5799658,nan,3.1388288,0.0,-0.023262432,-0.17693248,-0.13253021,0.0,0.0,0.0,0.0,0.0,0.0,0.014187051,-0.025350478,-0.86334884
138944701,-0.027636033,0.5799658,nan,3.1388288,0.0,-0.020875532,-0.1729369,-0.13253021,0.0,0.0,0.0,0.0,0.0,0.0,0.012604509,-0.024151621,-0.8684666
139044410,-0.027636033,0.5799658,nan,3.1388288,0.0,-0.016666656,-0.16836986,-0.13253021,0.0,0.0,0.0,0.0,0.0,0.0,0.009915966,-0.025756316,-0.8747312
139144678,-0.027636033,0.5799658,nan,3.1388288,0.0,-0.011850097,-0.16449188,-0.13253021,0.0,0.0,0.0,0.0,0.0,0.0,0.018163163,-0.02585454,-0.8803443
139244576,-0.027636033,0.5799658,nan,3.1388288,0.0,-0.005346785,-0.15999335,-0.13253021,0.0,0.0,0.0,0.0,0.0,0.0,0.015180437,-0.019089498,-0.88949573
139344645,-0.027636033,0.5799658,nan,3.1388288,0.0,0.0010075589,-0.15515213,-0.13253021,0.0,0.0,0.0,0.0,0.0,0.0,0.015632162,-0.021516966,-0.8951498
139444696,-0.027636033,0.5799658,nan,3.1388288,0.0,0.0074666436,-0.15032037,-0.13253021,0.0,0.0,0.0,0.0,0.0,0.0,0.01768694,-0.022948168,-0.90061533
139544817,-0.027636033,0.5799658,nan,3.1388288,0.0,0.013021059,-0.14583685,-0.13253021,0.0,0.0,0.0,0.0,0.0,0.0,0.017428614,-0.023662895,-0.90471864
139644816,-0.027636033,0.5799658,nan,3.1388288,0.0,0.018614903,-0.1414933,-0.13253021,0.0,0.0,0.0,0.0,0.0,0.0,0.01519746,-0.02272709,-0.9095019
139745588,-0.027636033,0.5799658,nan,3.1388288,0.0,0.022903446,-0.13773735,-0.13253021,0.0,0.0,0.0,0.0,0.0,0.0,0.018511511,-0.026993614,-0.9099264
139845662,-0.027636033,0.5799658,nan,3.1388288,0.0,0.02692684,-0.13472572,-0.13253021,0.0,0.0,0.0,0.0,0.0,0.0,0.018257782,-0.022215243,-0.90312755
139945833,-0.027636033,0.5799658,nan,3.1388288,0.0,0.029492846,-0.13172673,-0.13253021,0.0,0.0,0.0,0.0,0.0,0.0,0.015751425,-0.026706317,-0.88977957
140046018,-0.027636033,0.5799658,nan,3.1388288,0.0,0.030650122,-0.12969318,-0.13253021,0.0,0.0,0.0,0.0,0.0,0.0,0.014276445,-0.026070066,-0.8742473
140165647,-0.027636033,0.5799658,nan,3.1388288,0.0,0.029996032,-0.12851539,-0.13253021,0.0,0.0,0.0,0.0,0.0,0.0,0.015916612,-0.019523224,-0.86363256
140265570,-0.027636033,0.5799658,nan,3.1388288,0.0,0.028327499,-0.12717673,-0.13253021,0.0,0.0,0.0,0.0,0.0,0.0,0.010999884,-0.029319676,-0.8533293
140365634,-0.027636033,0.5799658,nan,3.1388288,0.0,0.02542553,-0.12584153,-0.13253021,0.0,0.0,0.0,0.0,0.0,0.0,0.008722214,-0.020941997,-0.84939045
140465650,-0.027636033,0.5799658,nan,3.1388288,0.0,0.021711102,-0.12151157,-0.13253021,0.0,0.0,0.0,0.0,0.0,0.0,0.0088639865,-0.01803647,-0.8495102
140565791,-0.027636033,0.5799658,nan,3.1388288,0.0,0.015982257,-0.11386671,-0.13253021,0.0,0.0,0.0,0.0,0.0,0.0,0.009120121,-0.0152889155,-0.8476437
140666038,-0.027636033,0.5799658,nan,3.1388288,0.0,0.008952337,-0.10416248,-0.13253021,0.0,0.0,0.0,0.0,0.0,0.0,0.004575253,-0.01815685,-0.8481873
140766108,-0.027636033,0.5799658,nan,3.1388288,0.0,-6.80767e-05,-0.09072901,-0.13253021,0.0,0.0,0.0,0.0,0.0,0.0,0.0037749056,-0.008524259,-0.84727204
140866226,-0.027636033,0.5799658,nan,3.1388288,0.0,-0.008519932,-0.07783535,-0.13253021,0.0,0.0,0.0,0.0,0.0,0.0,0.005184173,-0.012692826,-0.8463125
140966245,-0.027636033,0.5799658,nan,3.1388288,0.0,-0.016142959,-0.06252643,-0.13253021,0.0,0.0,0.0,0.0,0.0,0.0,0.00510072,-0.010373276,-0.84392357
141066275,-0.027636033,0.5799658,nan,3.1388288,0.0,-0.021007193,-0.04861738,-0.13253021,0.0,0.0,0.0,0.0,0.0,0.0,0.0054712817,-0.010334896,-0.84270966
141166374,-0.027636033,0.5799658,nan,3.1388288,0.0,-0.024042457,-0.033765137,-0.13253021,0.0,0.0,0.0,0.0,0.0,0.0,0.011292944,-0.0075566573,-0.84208757
141266422,-0.027636033,0.5799658,nan,3.1388288,0.0,-0.024054669,-0.020003082,-0.13253021,0.0,0.0,0.0,0.0,0.0,0.0,0.014017595,-0.0005098786,-0.84353316
141386748,-0.027636033,0.5799658,nan,3.1388288,0.0,-0.020530052,-0.0019613563,-0.13253021,0.0,0.0,0.0,0.0,0.0,0.0,0.013301961,-0.0022730483,-0.85082555
141486913,-0.027636033,0.5799658,nan,3.1388288,0.0,-0.013944917,0.014530674,-0.13253021,0.0,0.0,0.0,0.0,0.0,0.0,0.018309891,0.006681895,-0.8543283
141586999,-0.027636033,0.5799658,nan,3.1388288,0.0,-0.0051679774,0.030783748,-0.13253021,0.0,0.0,0.0,0.0,0.0,0.0,0.017811734,0.008576887,-0.8573796
141686976,-0.027636033,0.5799658,nan,3.1388288,0.0,0.0048679686,0.049972177,-0.13253021,0.0,0.0,0.0,0.0,0.0,0.0,0.014822644,0.0064315377,-0.86332875
141787031,-0.027636033,0.5799658,nan,3.1388288,0.0,0.014323191,0.06823264,-0.13253021,0.0,0.0,0.0,0.0,0.0,0.0,0.019621257,0.010102706,-0.8727905
141887107,-0.027636033,0.5799658,nan,3.1388288,0.0,0.023806084,0.0884806,-0.13253021,0.0,0.0,0.0,0.0,0.0,0.0,0.019500215,0.013208591,-0.88124895
141987192,-0.027636033,0.5799658,nan,3.1388288,0.0,0.030229969,0.10636652,-0.13253021,0.0,0.0,0.0,0.0,0.0,0.0,0.013900626,0.014033512,-0.881258
142087251,-0.027636033,0.5799658,nan,3.1388288,0.0,0.034138817,0.12408246,-0.13253021,0.0,0.0,0.0,0.0,0.0,0.0,0.012429022,0.0110170115,-0.89051646
142187771,-0.027636033,0.5799658,nan,3.1388288,0.0,0.034097392,0.13819793,-0.13253021,0.0,0.0,0.0,0.0,0.0,0.0,0.015461223,0.015418208,-0.90623343
142287934,-0.027636033,0.5799658,nan,3.1388288,0.0,0.03163436,0.15162191,-0.13253021,0.0,0.0,0.0,0.0,0.0,0.0,0.011727093,0.012447958,-0.9171212
142387953,-0.027636033,0.5799658,nan,3.1388288,0.0,0.027883245,0.16090885,-0.13253021,0.0,0.0,0.0,0.0,0.0,0.0,0.011950989,0.016230924,-0.92749673
142487993,-0.027636033,0.5799658,nan,3.1388288,0.0,0.02253687,0.16910821,-0.13253021,0.0,0.0,0.0,0.0,0.0,0.0,0.016276399,0.015717585,-0.9409565
142587966,-0.027636033,0.5799658,nan,3.1388288,0.0,0.018060863,0.1740385,-0.13253021,0.0,0.0,0.0,0.0,0.0,0.0,0.011708406,0.0139954835,-0.9512541
142687982,-0.027636033,0.5799658,nan,3.1388288,0.0,0.014461191,0.17804125,-0.13253021,0.0,0.0,0.0,0.0,0.0,0.0,0.014126047,0.011649204,-0.9635725
142808451,-0.027636033,0.5799658,nan,3.1388288,0.0,0.013111195,0.18324563,-0.13253021,0.0,0.0,0.0,0.0,0.0,0.0,0.01503735,0.015651274,-0.976056
142908175,-0.027636033,0.5799658,nan,3.1388288,0.0,0.014497623,0.18802662,-0.13253021,0.0,0.0,0.0,0.0,0.0,0.0,0.013744068,0.016823176,-0.9815235
143008421,-0.027636033,0.5799658,nan,3.1388288,0.0,0.017883055,0.19368567,-0.13253021,0.0,0.0,0.0,0.0,0.0,0.0,0.014780044,0.015417007,-0.9931431
143108814,-0.027636033,0.5799658,nan,3.1388288,0.0,0.022457596,0.20029207,-0.13253021,0.0,0.0,0.0,0.0,0.0,0.0,0.0169777,0.017863236,-0.99733305
143208743,-0.027636033,0.5799658,nan,3.1388288,0.0,0.027456831,0.20653953,-0.13253021,0.0,0.0,0.0,0.0,0.0,0.0,0.015849365,0.014655724,-0.9988962
143308598,-0.027636033,0.5799658,nan,3.1388288,0.0,0.032927725,0.21382898,-0.13253021,0.0,0.0,0.0,0.0,0.0,0.0,0.01719862,0.017669708,-0.9955539
143408733,-0.027636033,0.5799658,nan,3.1388288,0.0,0.037109334,0.22017281,-0.13253021,0.0,0.0,0.0,0.0,0.0,0.0,0.017881056,0.013450362,-0.98222625
143508708,-0.027636033,0.5799658,nan,3.1388288,0.0,0.040318143,0.22438802,-0.13253021,0.0,0.0,0.0,0.0,0.0,0.0,0.018193016,0.011629827,-0.96919584
143608868,-0.027636033,0.5799658,nan,3.1388288,0.0,0.043282542,0.22626549,-0.13253021,0.0,0.0,0.0,0.0,0.0,0.0,0.018644517,0.008898646,-0.9488378
143709156,-0.027636033,0.5799658,nan,3.1388288,0.0,0.04548181,0.22345337,-0.13253021,0.0,0.0,0.0,0.0,0.0,0.0,0.02150609,0.002540565,-0.92916065
143809139,-0.027636033,0.5799658,nan,3.1388288,0.0,0.047399547,0.21576741,-0.13253021,0.0,0.0,0.0,0.0,0.0,0.0,0.019217417,-0.0015619274,-0.9005974
143929229,-0.027636033,0.5799658,nan,3.1388288,0.0,0.050152216,0.20063587,-0.13253021,0.0,0.0,0.0,0.0,0.0,0.0,0.020196643,-0.005959947,-0.86986125
144029443,-0.027636033,0.5799658,nan,3.1388288,0.0,0.053560283,0.18441322,-0.13253021,0.0,0.0,0.0,0.0,0.0,0.0,0.020211808,-0.006508281,-0.8400043
144129472,-0.027636033,0.5799658,nan,3.1388288,0.0,0.058313083,0.16312861,-0.13253021,0.0,0.0,0.0,0.0,0.0,0.0,0.024851501,-0.011370715,-0.810968
144229498,-0.027636033,0.5799658,nan,3.1388288,0.0,0.06321345,0.14136924,-0.13253021,0.0,0.0,0.0,0.0,0.0,0.0,0.02406281,-0.0135037815,-0.79224813
144330449,-0.027636033,0.5799658,nan,3.1388288,0.0,0.069210984,0.116908826,-0.13253021,0.0,0.0,0.0,0.0,0.0,0.0,0.023894168,-0.015531085,-0.7746072
144429657,-0.027636033,0.5799658,nan,3.1388288,0.0,0.07500399,0.09603257,-0.13253021,0.0,0.0,0.0,0.0,0.0,0.0,0.021501154,-0.017060056,-0.7656234
144529806,-0.027636033,0.5799658,nan,3.1388288,0.0,0.08095451,0.075739734,-0.13253021,0.0,0.0,0.0,0.0,0.0,0.0,0.025736399,-0.01743852,-0.76129353
144630240,-0.027636033,0.5799658,nan,3.1388288,0.0,0.08628292,0.059317414,-0.13253021,0.0,0.0,0.0,0.0,0.0,0.0,0.022744548,-0.016313054,-0.7600422
144730376,-0.027636033,0.5799658,nan,3.1388288,0.0,0.0918845,0.044405203,-0.13253021,0.0,0.0,0.0,0.0,0.0,0.0,0.024453064,-0.018667126,-0.7648114
144830428,-0.027636033,0.5799658,nan,3.1388288,0.0,0.09704438,0.032773416,-0.13253021,0.0,0.0,0.0,0.0,0.0,0.0,0.028672203,-0.0124923615,-0.76819605
144930376,-0.027636033,0.5799658,nan,3.1388288,0.0,0.10338317,0.023801902,-0.13253021,0.0,0.0,0.0,0.0,0.0,0.0,0.027254233,-0.014879434,-0.7757894
145030378,-0.027636033,0.5799658,nan,3.1388288,0.0,0.1092317,0.01823691,-0.13253021,0.0,0.0,0.0,0.0,0.0,0.0,0.026284281,-0.011032671,-0.7854517
145130843,-0.027636033,0.5799658,nan,3.1388288,0.0,0.11456554,0.014234868,-0.13253021,0.0,0.0,0.0,0.0,0.0,0.0,0.028496683,-0.011119936,-0.79626596
145230548,-0.027636033,0.5799658,nan,3.1388288,0.0,0.11828491,0.011099347,-0.13253021,0.0,0.0,0.0,0.0,0.0,0.0,0.030753288,-0.013191745,-0.80752516
145330831,-0.027636033,0.5799658,nan,3.1388288,0.0,0.12062224,0.008994505,-0.13253021,0.0,0.0,0.0,0.0,0.0,0.0,0.030099204,-0.010705561,-0.81182206
145450851,-0.027636033,0.5799658,nan,3.1388288,0.0,0.12109722,0.007971302,-0.13253021,0.0,0.0,0.0,0.0,0.0,0.0,0.023916826,-0.0052701607,-0.8194401
145550989,-0.027636033,0.5799658,nan,3.1388288,0.0,0.118660815,0.008628145,-0.13253021,0.0,0.0,0.0,0.0,0.0,0.0,0.026805144,-0.004373229,-0.8289238
145651023,-0.027636033,0.5799658,nan,3.1388288,0.0,0.11408,0.009864085,-0.13253021,0.0,0.0,0.0,0.0,0.0,0.0,0.02554144,-0.003231967,-0.84444976
145751030,-0.027636033,0.5799658,nan,3.1388288,0.0,0.10897095,0.011724028,-0.13253021,0.0,0.0,0.0,0.0,0.0,0.0,0.027241725,-0.001584888,-0.86364496
145851050,-0.027636033,0.5799658,nan,3.1388288,0.0,0.10414777,0.0142130675,-0.13253021,0.0,0.0,0.0,0.0,0.0,0.0,0.020173227,-0.0031659515,-0.8771427
145951233,-0.027636033,0.5799658,nan,3.1388288,0.0,0.09883787,0.018781016,-0.13253021,0.0,0.0,0.0,0.0,0.0,0.0,0.016412187,0.0031737732,-0.889454
146051405,-0.027636033,0.5799658,nan,3.1388288,0.0,0.0928789,0.024218997,-0.13253021,0.0,0.0,0.0,0.0,0.0,0.0,0.022355849,-0.00039910758,-0.9026538
146151938,-0.027636033,0.5799658,nan,3.1388288,0.0,0.085180596,0.031298634,-0.13253021,0.0,0.0,0.0,0.0,0.0,0.0,0.019388136,0.0067996504,-0.91011035
146251712,-0.027636033,0.5799658,nan,3.1388288,0.0,0.07686567,0.038469832,-0.13253021,0.0,0.0,0.0,0.0,0.0,0.0,0.016359946,0.0030575185,-0.91832083
146351791,-0.027636033,0.5799658,nan,3.1388288,0.0,0.06671794,0.046488643,-0.13253021,0.0,0.0,0.0,0.0,0.0,0.0,0.014221473,0.0053173443,-0.9287418
146451862,-0.027636033,0.5799658,nan,3.1388288,0.0,0.056694843,0.054371156,-0.13253021,0.0,0.0,0.0,0.0,0.0,0.0,0.013550004,0.006317406,-0.9350333
146551852,-0.027636033,0.5799658,nan,3.1388288,0.0,0.044505022,0.062644325,-0.13253021,0.0,0.0,0.0,0.0,0.0,0.0,0.009149893,0.010535266,-0.9416125
146651796,-0.027636033,0.5799658,nan,3.1388288,0.0,0.032534324,0.07050504,-0.13253021,0.0,0.0,0.0,0.0,0.0,0.0,0.011932332,0.012718603,-0.9457439
146751945,-0.027636033,0.5799658,nan,3.1388288,0.0,0.019680263,0.07930484,-0.13253021,0.0,0.0,0.0,0.0,0.0,0.0,0.008803037,0.010517123,-0.94791764
146872295,-0.027636033,0.5799658,nan,3.1388288,0.0,0.0050511984,0.08869611,-0.13253021,0.0,0.0,0.0,0.0,0.0,0.0,0.010896582,0.012440048,-0.9517764
146972613,-0.027636033,0.5799658,nan,3.1388288,0.0,-0.006449255,0.0956236,-0.13253021,0.0,0.0,0.0,0.0,0.0,0.0,0.00698434,0.012301952,-0.9527775
147072614,-0.027636033,0.5799658,nan,3.1388288,0.0,-0.016655438,0.10100793,-0.13253021,0.0,0.0,0.0,0.0,0.0,0.0,0.007891774,0.0122293215,-0.9524309
147173107,-0.027636033,0.5799658,nan,3.1388288,0.0,-0.026387855,0.106203586,-0.13253021,0.0,0.0,0.0,0.0,0.0,0.0,0.0060098683,0.011617447,-0.95066434
147272743,-0.027636033,0.5799658,nan,3.1388288,0.0,-0.034280043,0.10880446,-0.13253021,0.0,0.0,0.0,0.0,0.0,0.0,0.004114243,0.008474194,-0.94303435
147373011,-0.027636033,0.5799658,nan,3.1388288,0.0,-0.041081525,0.10941889,-0.13253021,0.0,0.0,0.0,0.0,0.0,0.0,0.0038530035,0.004783783,-0.9392886
147472714,-0.027636033,0.5799658,nan,3.1388288,0.0,-0.046403144,0.10716971,-0.13253021,0.0,0.0,0.0,0.0,0.0,0.0,0.0047968775,0.005589552,-0.9385241
147573018,-0.027636033,0.5799658,nan,3.1388288,0.0,-0.05106884,0.101476945,-0.13253021,0.0,0.0,0.0,0.0,0.0,0.0,0.0060809283,-0.0020837793,-0.93412435
147672846,-0.027636033,0.5799658,nan,3.1388288,0.0,-0.054404262,0.093475975,-0.13253021,0.0,0.0,0.0,0.0,0.0,0.0,0.007079686,-0.0020607852,-0.93445766
147772969,-0.027636033,0.5799658,nan,3.1388288,0.0,-0.057578467,0.08101897,-0.13253021,0.0,0.0,0.0,0.0,0.0,0.0,0.007210141,-0.009022718,-0.9307536
147873595,-0.027636033,0.5799658,nan,3.1388288,0.0,-0.060426537,0.06480041,-0.13253021,0.0,0.0,0.0,0.0,0.0,0.0,0.0055453125,-0.012938368,-0.9282319
147973367,-0.027636033,0.5799658,nan,3.1388288,0.0,-0.06296831,0.04751643,-0.13253021,0.0,0.0,0.0,0.0,0.0,0.0,0.0040477095,-0.015830686,-0.92468894
148073319,-0.027636033,0.5799658,nan,3.1388288,0.0,-0.066157766,0.02774432,-0.13253021,0.0,0.0,0.0,0.0,0.0,0.0,0.0016631223,-0.015072962,-0.9199232
148173535,-0.027636033,0.5799658,nan,3.1388288,0.0,-0.06982513,0.008636355,-0.13253021,0.0,0.0,0.0,0.0,0.0,0.0,-2.2876076e-05,-0.018407013,-0.9137635
148273494,-0.027636033,0.5799658,nan,3.1388288,0.0,-0.074664086,-0.011941013,-0.13253021,0.0,0.0,0.0,0.0,0.0,0.0,0.0001540212,-0.021946885,-0.9124118
148393549,-0.027636033,0.5799658,nan,3.1388288,0.0,-0.08134384,-0.034643833,-0.13253021,0.0,0.0,0.0,0.0,0.0,0.0,-0.0028656404,-0.02476474,-0.90700877
148493765,-0.027636033,0.5799658,nan,3.1388288,0.0,-0.08814373,-0.050479926,-0.13253021,0.0,0.0,0.0,0.0,0.0,0.0,-0.0051214434,-0.026329895,-0.8985243
148594021,-0.027636033,0.5799658,nan,3.1388288,0.0,-0.097063825,-0.064709075,-0.13253021,0.0,0.0,0.0,0.0,0.0,0.0,-0.0013600495,-0.022079546,-0.8958435
148694119,-0.027636033,0.5799658,nan,3.1388288,0.0,-0.10564098,-0.07467746,-0.13253021,0.0,0.0,0.0,0.0,0.0,0.0,-0.005229405,-0.021950616,-0.8911166
148794146,-0.027636033,0.5799658,nan,3.1388288,0.0,-0.11420062,-0.082199566,-0.13253021,0.0,0.0,0.0,0.0,0.0,0.0,-0.006146419,-0.02211631,-0.88182306
148894399,-0.027636033,0.5799658,nan,3.1388288,0.0,-0.12144011,-0.08595682,-0.13253021,0.0,0.0,0.0,0.0,0.0,0.0,-0.0007829387,-0.018010406,-0.87123287
148994378,-0.027636033,0.5799658,nan,3.1388288,0.0,-0.12747131,-0.086163275,-0.13253021,0.0,0.0,0.0,0.0,0.0,0.0,0.00071183406,-0.013588136,-0.8604023
149094567,-0.027636033,0.5799658,nan,3.1388288,0.0,-0.13041487,-0.08331954,-0.13253021,0.0,0.0,0.0,0.0,0.0,0.0,-0.0019867346,-0.013112929,-0.8583759
149194431,-0.027636033,0.5799658,nan,3.1388288,0.0,-0.12966922,-0.077021204,-0.13253021,0.0,0.0,0.0,0.0,0.0,0.0,0.002946815,-0.009841361,-0.8542297
149294574,-0.027636033,0.5799658,nan,3.1388288,0.0,-0.12511973,-0.06853717,-0.13253021,0.0,0.0,0.0,0.0,0.0,0.0,0.0044336137,-0.004175742,-0.8549947
149395249,-0.027636033,0.5799658,nan,3.1388288,0.0,-0.1168522,-0.056669768,-0.13253021,0.0,0.0,0.0,0.0,0.0,0.0,0.0075827874,-0.004939054,-0.8549094
149494912,-0.027636033,0.5799658,nan,3.1388288,0.0,-0.106326416,-0.04420934,-0.13253021,0.0,0.0,0.0,0.0,0.0,0.0,0.010641087,-0.0018138248,-0.8584881
149595094,-0.027636033,0.5799658,nan,3.1388288,0.0,-0.09359667,-0.030388396,-0.13253021,0.0,0.0,0.0,0.0,0.0,0.0,0.010610855,0.0011401963,-0.86271656
149695177,-0.027636033,0.5799658,nan,3.1388288,0.0,-0.08114785,-0.016532969,-0.13253021,0.0,0.0,0.0,0.0,0.0,0.0,0.0154250525,0.004001693,-0.87030196
149815537,-0.027636033,0.5799658,nan,3.1388288,0.0,-0.06563446,-0.001323539,-0.13253021,0.0,0.0,0.0,0.0,0.0,0.0,0.02000558,0.004416946,-0.88518107
149915206,-0.027636033,0.5799658,nan,3.1388288,0.0,-0.053162396,0.01054624,-0.13253021,0.0,0.0,0.0,0.0,0.0,0.0,0.020107199,0.0041577755,-0.8958235
150015266,-0.027636033,0.5799658,nan,3.1388288,0.0,-0.043182086,0.018935712,-0.13253021,0.0,0.0,0.0,0.0,0.0,0.0,0.013414251,0.0067145224,-0.9064239
150115554,-0.027636033,0.5799658,nan,3.1388288,0.0,-0.03357928,0.02679971,-0.13253021,0.0,0.0,0.0,0.0,0.0,0.0,0.011978831,0.0038502673,-0.9107942
150216734,-0.027636033,0.5799658,nan,3.1388288,0.0,-0.026183624,0.033174317,-0.13253021,0.0,0.0,0.0,0.0,0.0,0.0,0.01407292,0.0030511208,-0.9148557
150315709,-0.027636033,0.5799658,nan,3.1388288,0.0,-0.021191645,0.037740737,-0.13253021,0.0,0.0,0.0,0.0,0.0,0.0,0.016973158,0.005983972,-0.9198674
150417389,-0.027636033,0.5799658,nan,3.1388288,0.0,-0.01677887,0.042139377,-0.13253021,0.0,0.0,0.0,0.0,0.0,0.0,0.018575234,0.0068066474,-0.926766
150515770,-0.027636033,0.5799658,nan,3.1388288,0.0,-0.013808241,0.046427656,-0.13253021,0.0,0.0,0.0,0.0,0.0,0.0,0.010373763,0.0056528556,-0.9277202
150616450,-0.027636033,0.5799658,nan,3.1388288,0.0,-0.011780746,0.051088355,-0.13253021,0.0,0.0,0.0,0.0,0.0,0.0,0.014353637,0.0072097816,-0.92724514
150715868,-0.027636033,0.5799658,nan,3.1388288,0.0,-0.010670819,0.05600126,-0.13253021,0.0,0.0,0.0,0.0,0.0,0.0,0.009933401,0.008126412,-0.9319581
150816980,-0.027636033,0.5799658,nan,3.1388288,0.0,-0.011332845,0.06222615,-0.13253021,0.0,0.0,0.0,0.0,0.0,0.0,0.00966429,0.010026804,-0.93575126
150916173,-0.027636033,0.5799658,nan,3.1388288,0.0,-0.012577447,0.06889016,-0.13253021,0.0,0.0,0.0,0.0,0.0,0.0,0.012831136,0.009613556,-0.9332558
151036343,-0.027636033,0.5799658,nan,3.1388288,0.0,-0.015482271,0.07761485,-0.13253021,0.0,0.0,0.0,0.0,0.0,0.0,0.012287795,0.011624512,-0.93143415
151136447,-0.027636033,0.5799658,nan,3.1388288,0.0,-0.017792802,0.0845657,-0.13253021,0.0,0.0,0.0,0.0,0.0,0.0,0.009364549,0.010402271,-0.9273666
151236586,-0.027636033,0.5799658,nan,3.1388288,0.0,-0.019785916,0.09187288,-0.13253021,0.0,0.0,0.0,0.0,0.0,0.0,0.004590378,0.010300886,-0.91866297
151336601,-0.027636033,0.5799658,nan,3.1388288,0.0,-0.021692082,0.09661116,-0.13253021,0.0,0.0,0.0,0.0,0.0,0.0,0.008743105,0.010472234,-0.9194499
151436605,-0.027636033,0.5799658,nan,3.1388288,0.0,-0.023260497,0.10072557,-0.13253021,0.0,0.0,0.0,0.0,0.0,0.0,0.0052810935,0.008578103,-0.9136312
151536746,-0.027636033,0.5799658,nan,3.1388288,0.0,-0.024056228,0.10384427,-0.13253021,0.0,0.0,0.0,0.0,0.0,0.0,0.007942776,0.009008045,-0.91337496
151636780,-0.027636033,0.5799658,nan,3.1388288,0.0,-0.024458913,0.10565172,-0.13253021,0.0,0.0,0.0,0.0,0.0,0.0,0.0064434675,0.00789788,-0.91626304
151736961,-0.027636033,0.5799658,nan,3.1388288,0.0,-0.02412632,0.10631567,-0.13253021,0.0,0.0,0.0,0.0,0.0,0.0,0.005956567,0.012104268,-0.9137704
151837387,-0.027636033,0.5799658,nan,3.1388288,0.0,-0.023208275,0.106539875,-0.13253021,0.0,0.0,0.0,0.0,0.0,0.0,0.008026385,0.013586903,-0.9126186
151937499,-0.027636033,0.5799658,nan,3.1388288,0.0,-0.022168107,0.10867856,-0.13253021,0.0,0.0,0.0,0.0,0.0,0.0,0.0058650146,0.012320018,-0.9058896
152037559,-0.027636033,0.5799658,nan,3.1388288,0.0,-0.021470923,0.113248736,-0.13253021,0.0,0.0,0.0,0.0,0.0,0.0,0.008996212,0.01914894,-0.9040284
152137573,-0.027636033,0.5799658,nan,3.1388288,0.0,-0.020751582,0.119755395,-0.13253021,0.0,0.0,0.0,0.0,0.0,0.0,0.0064966693,0.020731036,-0.8929994
152257612,-0.027636033,0.5799658,nan,3.1388288,0.0,-0.019756401,0.13036211,-0.13253021,0.0,0.0,0.0,0.0,0.0,0.0,0.0068245893,0.02249619,-0.89282125
152357564,-0.027636033,0.5799658,nan,3.1388288,0.0,-0.018751886,0.14113705,-0.13253021,0.0,0.0,0.0,0.0,0.0,0.0,0.008962441,0.02020804,-0.8965822
152457762,-0.027636033,0.5799658,nan,3.1388288,0.0,-0.017616937,0.15124035,-0.13253021,0.0,0.0,0.0,0.0,0.0,0.0,0.011741446,0.02409617,-0.90176296
152557803,-0.027636033,0.5799658,nan,3.1388288,0.0,-0.015088755,0.1618745,-0.13253021,0.0,0.0,0.0,0.0,0.0,0.0,0.016265836,0.02391326,-0.9098084
152658427,-0.027636033,0.5799658,nan,3.1388288,0.0,-0.011408005,0.16999303,-0.13253021,0.0,0.0,0.0,0.0,0.0,0.0,0.014079951,0.018773701,-0.9222363
152758104,-0.027636033,0.5799658,nan,3.1388288,0.0,-0.0071339416,0.17430319,-0.13253021,0.0,0.0,0.0,0.0,0.0,0.0,0.012119418,0.020718878,-0.93227184
152858421,-0.027636033,0.5799658,nan,3.1388288,0.0,-0.002061693,0.17458895,-0.13253021,0.0,0.0,0.0,0.0,0.0,0.0,0.012803217,0.012523994,-0.9446995
152958218,-0.027636033,0.5799658,nan,3.1388288,0.0,0.0028840653,0.17056592,-0.13253021,0.0,0.0,0.0,0.0,0.0,0.0,0.015781688,0.012402462,-0.95506144
153058331,-0.027636033,0.5799658,nan,3.1388288,0.0,0.008549072,0.16154039,-0.13253021,0.0,0.0,0.0,0.0,0.0,0.0,0.01549161,0.0063813543,-0.9585885
153158362,-0.027636033,0.5799658,nan,3.1388288,0.0,0.013264233,0.1489878,-0.13253021,0.0,0.0,0.0,0.0,0.0,0.0,0.014742855,0.0065328525,-0.96439886
153258542,-0.027636033,0.5799658,nan,3.1388288,0.0,0.01672493,0.1325877,-0.13253021,0.0,0.0,0.0,0.0,0.0,0.0,0.014222717,0.00033839513,-0.96477807
153378753,-0.027636033,0.5799658,nan,3.1388288,0.0,0.01871392,0.11025138,-0.13253021,0.0,0.0,0.0,0.0,0.0,0.0,0.012496207,-0.0002055564,-0.9610987
153479022,-0.027636033,0.5799658,nan,3.1388288,0.0,0.019267518,0.09214864,-0.13253021,0.0,0.0,0.0,0.0,0.0,0.0,0.009524796,-0.002043685,-0.958221
153578994,-0.027636033,0.5799658,nan,3.1388288,0.0,0.0194018,0.0736473,-0.13253021,0.0,0.0,0.0,0.0,0.0,0.0,0.010602963,-0.006084036,-0.9553476
153679097,-0.027636033,0.5799658,nan,3.1388288,0.0,0.019667715,0.058431864,-0.13253021,0.0,0.0,0.0,0.0,0.0,0.0,0.012320942,-0.001987549,-0.9490037
153779123,-0.027636033,0.5799658,nan,3.1388288,0.0,0.01930741,0.045962658,-0.13253021,0.0,0.0,0.0,0.0,0.0,0.0,0.010766379,-0.0019632229,-0.9386908
153879201,-0.027636033,0.5799658,nan,3.1388288,0.0,0.019024178,0.03649449,-0.13253021,0.0,0.0,0.0,0.0,0.0,0.0,0.01456725,-0.0023856785,-0.9301907
153979236,-0.027636033,0.5799658,nan,3.1388288,0.0,0.019345121,0.029568871,-0.13253021,0.0,0.0,0.0,0.0,0.0,0.0,0.012609543,0.0008922715,-0.92518705
154079267,-0.027636033,0.5799658,nan,3.1388288,0.0,0.019766053,0.026098022,-0.13253021,0.0,0.0,0.0,0.0,0.0,0.0,0.012554686,0.0033126385,-0.91656864
154179658,-0.027636033,0.5799658,nan,3.1388288,0.0,0.021020288,0.025201261,-0.13253021,0.0,0.0,0.0,0.0,0.0,0.0,0.014783055,0.0025308027,-0.9094769
154279651,-0.027636033,0.5799658,nan,3.1388288,0.0,0.022590334,0.025226742,-0.13253021,0.0,0.0,0.0,0.0,0.0,0.0,0.014825864,0.0010447793,-0.9104899
154379839,-0.027636033,0.5799658,nan,3.1388288,0.0,0.025722146,0.025514733,-0.13253021,0.0,0.0,0.0,0.0,0.0,0.0,0.014473567,-0.0024922953,-0.90617317
154480456,-0.027636033,0.5799658,nan,3.1388288,0.0,0.029643007,0.023765663,-0.13253021,0.0,0.0,0.0,0.0,0.0,0.0,0.020818856,-0.0005614734,-0.9123012
154599939,-0.027636033,0.5799658,nan,3.1388288,0.0,0.03525062,0.018821955,-0.13253021,0.0,0.0,0.0,0.0,0.0,0.0,0.019347012,-0.008847451,-0.91589123
154699937,-0.027636033,0.5799658,nan,3.1388288,0.0,0.040427215,0.010362834,-0.13253021,0.0,0.0,0.0,0.0,0.0,0.0,0.016583297,-0.009926982,-0.9220528
154800048,-0.027636033,0.5799658,nan,3.1388288,0.0,0.04537177,-0.00055616495,-0.13253021,0.0,0.0,0.0,0.0,0.0,0.0,0.021696031,-0.010374169,-0.93291533
154900148,-0.027636033,0.5799658,nan,3.1388288,0.0,0.050639264,-0.016450072,-0.13253021,0.0,0.0,0.0,0.0,0.0,0.0,0.02207059,-0.014868819,-0.93798816
155000780,-0.027636033,0.5799658,nan,3.1388288,0.0,0.05516398,-0.035186127,-0.13253021,0.0,0.0,0.0,0.0,0.0,0.0,0.021818327,-0.02003896,-0.94598615
155100473,-0.027636033,0.5799658,nan,3.1388288,0.0,0.058396045,-0.05561814,-0.13253021,0.0,0.0,0.0,0.0,0.0,0.0,0.018820409,-0.025847146,-0.9494969
155201524,-0.027636033,0.5799658,nan,3.1388288,0.0,0.06093575,-0.0792325,-0.13253021,0.0,0.0,0.0,0.0,0.0,0.0,0.018481776,-0.021706568,-0.9449656
155300559,-0.027636033,0.5799658,nan,3.1388288,0.0,0.06261676,-0.10020777,-0.13253021,0.0,0.0,0.0,0.0,0.0,0.0,0.020789906,-0.025642125,-0.93708515
155400843,-0.027636033,0.5799658,nan,3.1388288,0.0,0.0621691,-0.12126033,-0.13253021,0.0,0.0,0.0,0.0,0.0,0.0,0.017671805,-0.025836326,-0.92092705
155500725,-0.027636033,0.5799658,nan,3.1388288,0.0,0.059179883,-0.13682213,-0.13253021,0.0,0.0,0.0,0.0,0.0,0.0,0.013977028,-0.02081559,-0.9094802
155600858,-0.027636033,0.5799658,nan,3.1388288,0.0,0.053812377,-0.14885941,-0.13253021,0.0,0.0,0.0,0.0,0.0,0.0,0.016583174,-0.019122709,-0.8977772
155721001,-0.027636033,0.5799658,nan,3.1388288,0.0,0.045570835,-0.15521453,-0.13253021,0.0,0.0,0.0,0.0,0.0,0.0,0.0070169107,-0.01806634,-0.88844186
155821285,-0.027636033,0.5799658,nan,3.1388288,0.0,0.03770366,-0.15450956,-0.13253021,0.0,0.0,0.0,0.0,0.0,0.0,0.0076370304,-0.016428424,-0.87718093
155921219,-0.027636033,0.5799658,nan,3.1388288,0.0,0.027510786,-0.1499099,-0.13253021,0.0,0.0,0.0,0.0,0.0,0.0,0.0055078645,-0.012158673,-0.863148
156021265,-0.027636033,0.5799658,nan,3.1388288,0.0,0.015957987,-0.14346655,-0.13253021,0.0,0.0,0.0,0.0,0.0,0.0,-0.0011038184,-0.012974279,-0.8527876
156121357,-0.027636033,0.5799658,nan,3.1388288,0.0,0.0015867363,-0.13530646,-0.13253021,0.0,0.0,0.0,0.0,0.0,0.0,-0.000429756,-0.011554324,-0.8470298
156221432,-0.027636033,0.5799658,nan,3.1388288,0.0,-0.0130575495,-0.1289707,-0.13253021,0.0,0.0,0.0,0.0,0.0,0.0,-0.0023946958,-0.012432933,-0.8396815
156321512,-0.027636033,0.5799658,nan,3.1388288,0.0,-0.030107602,-0.12449879,-0.13253021,0.0,0.0,0.0,0.0,0.0,0.0,-0.00622739,-0.014151685,-0.83361095
156421574,-0.027636033,0.5799658,nan,3.1388288,0.0,-0.045373857,-0.12345877,-0.13253021,0.0,0.0,0.0,0.0,0.0,0.0,-0.0032802364,-0.013103483,-0.8406867
156521754,-0.027636033,0.5799658,nan,3.1388288,0.0,-0.06037133,-0.12522301,-0.13253021,0.0,0.0,0.0,0.0,0.0,0.0,-0.0043403218,-0.016568743,-0.84256935
156621945,-0.027636033,0.5799658,nan,3.1388288,0.0,-0.07160789,-0.12977731,-0.13253021,0.0,0.0,0.0,0.0,0.0,0.0,-0.002433706,-0.015659407,-0.8419491
156722067,-0.027636033,0.5799658,nan,3.1388288,0.0,-0.08166507,-0.13627672,-0.13253021,0.0,0.0,0.0,0.0,0.0,0.0,-0.0046346784,-0.016263625,-0.83757716
157122364,-0.027636033,0.5799658,nan,3.1388288,0.0,-0.101992115,-0.14771174,-0.13253021,0.0,0.0,0.0,0.0,0.0,0.0,-0.0037207594,-0.005693388,-0.82178897
157342720,-0.027636033,0.5799658,-1.2046902,3.1388288,0.0,-0.10232631,-0.12455479,0.05607021,0.0,0.0,0.0,0.0,0.0,0.0,-0.003987496,0.002495897,-0.7858294
157442832,-0.027636033,0.5799658,-1.2046902,3.1388288,0.0,-0.10235877,-0.10353791,0.09920168,0.0,0.0,0.0,0.0,0.0,0.0,-0.0022188397,0.005721626,-0.7866802
157542976,-0.027636033,0.5799658,-1.2046902,3.1388288,0.0,-0.10313695,-0.079772584,0.13263619,0.0,0.0,0.0,0.0,0.0,0.0,-0.0045613404,0.013523392,-0.7889724
157643184,-0.027636033,0.5799658,-1.2046902,3.1388288,0.0,-0.10523391,-0.048067614,0.16158569,0.0,0.0,0.0,0.0,0.0,0.0,-0.005266011,0.0234946,-0.79205
157743673,-0.027636033,0.5799658,-1.2046902,3.1388288,0.0,-0.11006097,-0.013118857,0.18391705,0.0,0.0,0.0,0.0,0.0,0.0,-0.0059628547,0.02361073,-0.7960627
157843361,-0.027636033,0.5799658,-1.2046902,3.1388288,0.0,-0.11647323,0.021643605,0.19967496,0.0,0.0,0.0,0.0,0.0,0.0,-0.007799729,0.033314474,-0.8010012
157944499,-0.027636033,0.5799658,-1.2046902,3.1388288,0.0,-0.12535043,0.060204208,0.21177566,0.0,0.0,0.0,0.0,0.0,0.0,-0.012820954,0.039696112,-0.8060822
158043270,-0.027636033,0.5799658,-1.2046902,3.1388288,0.0,-0.13495137,0.09560568,0.21882546,0.0,0.0,0.0,0.0,0.0,0.0,-0.013863332,0.039657466,-0.81608605
158144525,-0.027636033,0.5799658,-1.2046902,3.1388288,0.0,-0.14602244,0.13278122,0.22016263,0.0,0.0,0.0,0.0,0.0,0.0,-0.012434473,0.043693304,-0.8294989
158243829,-0.027636033,0.5799658,-1.2046902,3.1388288,0.0,-0.1557697,0.16364597,0.2149545,0.0,0.0,0.0,0.0,0.0,0.0,-0.015337687,0.04293794,-0.8436957
158343737,-0.027636033,0.5799658,-1.2046902,3.1388288,0.0,-0.16499479,0.19281612,0.20136583,0.0,0.0,0.0,0.0,0.0,0.0,-0.014212056,0.044282082,-0.8626789
158463852,-0.027636033,0.5799658,-1.2046902,3.1388288,0.0,-0.17384368,0.21909401,0.1775763,0.0,0.0,0.0,0.0,0.0,0.0,-0.016127815,0.03712574,-0.8805312
158563814,-0.027636033,0.5799658,-1.2046902,3.1388288,0.0,-0.17875443,0.23321715,0.15216148,0.0,0.0,0.0,0.0,0.0,0.0,-0.012161031,0.034575537,-0.89798284
158663873,-0.027636033,0.5799658,-1.2046902,3.1388288,0.0,-0.18094613,0.24234322,0.11882603,0.0,0.0,0.0,0.0,0.0,0.0,-0.010568991,0.028831875,-0.91866916
158764004,-0.027636033,0.5799658,-1.2046902,3.1388288,0.0,-0.18023814,0.24354477,0.08398104,0.0,0.0,0.0,0.0,0.0,0.0,-0.0066633997,0.026808402,-0.9358942
158864068,-0.027636033,0.5799658,-1.2046902,3.1388288,0.0,-0.17642789,0.2372059,0.040775776,0.0,0.0,0.0,0.0,0.0,0.0,-0.006111538,0.015666356,-0.9576751
158964490,-0.027636033,0.5799658,-1.2046902,3.1388288,0.0,-0.17043221,0.22416806,-0.0039100647,0.0,0.0,0.0,0.0,0.0,0.0,-0.0064085284,0.013232281,-0.9795095
159064410,-0.027636033,0.5799658,-1.2046902,3.1388288,0.0,-0.16154052,0.20445524,-0.055549502,0.0,0.0,0.0,0.0,0.0,0.0,-0.005097854,0.0016251248,-0.9931432
159164486,-0.027636033,0.5799658,-1.2046902,3.1388288,0.0,-0.15188976,0.18172903,-0.10373855,0.0,0.0,0.0,0.0,0.0,0.0,-0.0,0.0,-1.0
159264642,-0.027636033,0.5799658,-1.2046902,3.1388288,0.0,-0.1405759,0.15321246,-0.15487838,0.0,0.0,0.0,0.0,0.0,0.0,0.0,-0.0,-1.0
159364584,-0.027636033,0.5799658,-1.2046902,3.1388288,0.0,-0.1290324,0.123186976,-0.20168734,0.0,0.0,0.0,0.0,0.0,0.0,0.0,-0.0,-1.0
159464759,-0.027636033,0.5799658,-1.2046902,3.1388288,0.0,-0.1160951,0.090960294,-0.24985075,0.0,0.0,0.0,0.0,0.0,0.0,0.0,-0.0,-1.0
159564773,-0.027636033,0.5799658,-1.2046902,3.1388288,0.0,-0.10219067,0.05714785,-0.2974248,0.0,0.0,0.0,0.0,0.0,0.0,0.0,-0.0,-1.0
159684848,-0.027636033,0.5799658,-1.2046902,3.1388288,0.0,-0.08556772,0.017133923,-0.34795934,0.0,0.0,0.0,0.0,0.0,0.0,0.0,-0.0,-1.0
159785554,-0.027636033,0.5799658,-1.2046902,3.1388288,0.0,-0.07184566,-0.01732707,-0.38629144,0.0,0.0,0.0,0.0,0.0,0.0,0.0,-0.0,-1.0
159885296,-0.027636033,0.5799658,-1.2046902,3.1388288,0.0,-0.060151737,-0.049045686,-0.4166587,0.0,0.0,0.0,0.0,0.0,0.0,0.0,-0.0,-1.0
159985498,-0.027636033,0.5799658,-1.2046902,3.1388288,0.0,-0.048534956,-0.083179675,-0.44548416,0.0,0.0,0.0,0.0,0.0,0.0,0.0,-0.0,-1.0
160085311,-0.027636033,0.5799658,-1.2046902,3.1388288,0.0,-0.03862385,-0.11364882,-0.46878237,0.0,0.0,0.0,0.0,0.0,0.0,0.0,-0.0,-1.0
160185662,-0.027636033,0.5799658,-1.2046902,3.1388288,0.0,-0.028492976,-0.1456458,-0.49128348,0.0,0.0,0.0,0.0,0.0,0.0,0.0,-0.0,-1.0
160285451,-0.027636033,0.5799658,-1.2046902,3.1388288,0.0,-0.019349968,-0.1745115,-0.5099407,0.0,0.0,0.0,0.0,0.0,0.0,0.0,-0.0,-1.0
160385541,-0.027636033,0.5799658,-1.2046902,3.1388288,0.0,-0.009594413,-0.20423111,-0.52788323,0.0,0.0,0.0,0.0,0.0,0.0,0.0,-0.0,-1.0
160485647,nan,nan,-1.2046902,3.1388288,0.0,-0.0010243894,-0.370631,-0.5428488,0.0,0.0,0.0,0.0,0.0,0.0,0.0,-0.0,-1.0
160585917,nan,nan,-1.2046902,3.1388288,0.0,-0.0024090733,-0.8716191,-0.557486,0.0,0.0,0.0,0.0,0.0,0.0,0.0,-0.0,-1.0
160686087,nan,nan,-1.2046902,3.1388288,0.0,-0.0032362733,-1.1709057,-0.570252,0.0,0.0,0.0,0.0,0.0,0.0,0.0,-0.0,-1.0
160786116,nan,nan,-1.2046902,3.1388288,0.0,-0.0035599729,-1.2880224,-0.5811991,0.0,0.0,0.0,0.0,0.0,0.0,0.0,-0.0,-1.0
160906227,nan,nan,-1.2046902,3.1388288,0.0,-0.0047419975,-1.7156868,-0.58804667,0.0,0.0,0.0,0.0,0.0,0.0,0.0,-0.0,-1.0
161006206,nan,nan,-1.2046902,3.1388288,0.0,-0.0047971583,-1.7356443,-0.5898104,0.0,0.0,0.0,0.0,0.0,0.0,0.0,-0.0,-1.0
161106320,nan,nan,-1.2046902,3.1388288,0.0,-0.0053147255,-1.9229038,-0.58904606,0.0,0.0,0.0,0.0,0.0,0.0,0.0,-0.0,-1.0
161206388,nan,nan,-1.2046902,3.1388288,0.0,0.095141366,-2.181349,-0.58696675,0.0,0.0,0.0,0.0,0.0,0.0,0.012761145,-0.0725931,-0.99728
161306467,nan,nan,-1.2046902,3.1388288,0.0,-0.00554331,-2.0056074,-0.58435696,0.0,0.0,0.0,0.0,0.0,0.0,0.013018787,-0.084204964,-0.9963634
161406736,nan,nan,-1.2046902,3.1388288,0.0,-0.005497899,-1.9891771,-0.5800988,0.0,0.0,0.0,0.0,0.0,0.0,0.016201135,-0.103178345,-0.9945309
161506859,nan,nan,-1.2046902,3.1388288,0.0,-0.006404413,-2.3171601,-0.5772756,0.0,0.0,0.0,0.0,0.0,0.0,0.013680574,-0.122751035,-0.9923432
161606938,nan,nan,-1.2046902,3.1388288,0.0,-0.005883923,-2.128843,-0.57510483,0.0,0.0,0.0,0.0,0.0,0.0,0.009395188,-0.071760766,-0.99737763
161706984,nan,nan,-1.2046902,3.1388288,0.0,-0.0045013386,-1.628615,-0.5740252,0.0,0.0,0.0,0.0,0.0,0.0,0.01480854,-0.07663406,-0.9969493
161807046,nan,nan,-1.2046902,3.1388288,0.0,-0.0031186312,-1.1283419,-0.57463264,0.0,0.0,0.0,0.0,0.0,0.0,0.0,-0.0,-1.0
161907050,nan,nan,-1.2046902,3.1388288,0.0,-0.15731418,-0.33375692,-0.5769906,0.0,0.0,0.0,0.0,0.0,0.0,-0.0,0.0,-1.0
162027226,-0.36492342,0.85043836,-1.2046902,3.1388288,0.0,0.0055350927,0.023817869,-0.5833844,0.0,0.0,0.0,0.0,0.0,0.0,0.0,0.0,-1.0
162127377,-0.36492342,0.85043836,-1.2046902,3.1388288,0.0,0.019051425,0.090862535,-0.589883,0.0,0.0,0.0,0.0,0.0,0.0,0.0,0.0,-1.0
162228836,-0.36492342,0.85043836,-1.2046902,3.1388288,0.0,0.03233582,0.16460139,-0.59279823,0.0,0.0,0.0,0.0,0.0,0.0,0.0,0.0,-1.0
162327661,-0.36492342,0.85043836,-1.2046902,3.1388288,0.0,0.04523597,0.23562069,-0.5910192,0.0,0.0,0.0,0.0,0.0,0.0,0.013974265,0.07550845,-0.99704725
162428868,-0.36492342,0.85043836,-1.2046902,3.1388288,0.0,0.05991007,0.30733246,-0.582262,0.0,0.0,0.0,0.0,0.0,0.0,0.02135762,0.10007739,-0.98733103
162527720,-0.36492342,0.85043836,-1.2046902,3.1388288,0.0,0.07504875,0.3658448,-0.57095003,0.0,0.0,0.0,0.0,0.0,0.0,0.021679953,0.10070114,-0.9884722
162629166,-0.36492342,0.85043836,-1.2046902,3.1388288,0.0,0.09388019,0.41861224,-0.5587711,0.0,0.0,0.0,0.0,0.0,0.0,0.02008416,0.09329786,-0.99042654
162727881,-0.36492342,0.85043836,-1.2046902,3.1388288,0.0,0.1124633,0.4543945,-0.5483792,0.0,0.0,0.0,0.0,0.0,0.0,0.026851946,0.087000884,-0.9855411
162827972,-0.36492342,0.85043836,-1.2046902,3.1388288,0.0,0.13155204,0.47702965,-0.53706944,0.0,0.0,0.0,0.0,0.0,0.0,0.02751109,0.07586687,-0.986003
162928195,-0.36492342,0.85043836,-1.2046902,3.1388288,0.0,0.14742953,0.48081306,-0.52935123,0.0,0.0,0.0,0.0,0.0,0.0,0.021901794,0.06480432,-0.9889604
163028750,-0.36492342,0.85043836,-1.2046902,3.1388288,0.0,0.16258404,0.46688858,-0.5266152,0.0,0.0,0.0,0.0,0.0,0.0,0.008954679,0.020738589,-0.99974483
163128618,-0.36492342,0.85043836,-1.2046902,3.1388288,0.0,0.17450619,0.43752563,-0.5292584,0.0,0.0,0.0,0.0,0.0,0.0,0.0,0.0,-1.0
163228550,-0.36492342,0.85043836,-1.2046902,3.1388288,0.0,0.18618928,0.39271125,-0.53827107,0.0,0.0,0.0,0.0,0.0,0.0,0.0,0.0,-1.0
163328668,-0.36492342,0.85043836,-1.2046902,3.1388288,0.0,0.19579425,0.34137177,-0.55008805,0.0,0.0,0.0,0.0,0.0,0.0,0.0,0.0,-1.0
163428702,-0.36492342,0.85043836,-1.2046902,3.1388288,0.0,0.20538495,0.27914685,-0.56110215,0.0,0.0,0.0,0.0,0.0,0.0,0.0,0.0,-1.0
163548747,-0.36492342,0.85043836,-1.2046902,3.1388288,0.0,0.21587054,0.20564118,-0.571353,0.0,0.0,0.0,0.0,0.0,0.0,0.0,-0.0,-1.0
163648993,nan,nan,-1.2046902,3.1388288,0.0,0.346595,-0.00095795596,-0.5776201,0.0,0.0,0.0,0.0,0.0,0.0,0.0,-0.0,-1.0
163749270,nan,nan,-1.2046902,3.1388288,0.0,0.6915978,-0.0019115114,-0.5832245,0.0,0.0,0.0,0.0,0.0,0.0,0.0,-0.0,-1.0
163849254,nan,nan,-1.2046902,3.1388288,0.0,1.051491,-0.0029062226,-0.5884464,0.0,0.0,0.0,0.0,0.0,0.0,0.0,-0.0,-1.0
163949249,nan,nan,-1.2046902,3.1388288,0.0,1.416494,-0.003915056,-0.5953873,0.0,0.0,0.0,0.0,0.0,0.0,0.0,-0.0,-1.0
164049514,nan,nan,-1.2046902,3.1388288,0.0,1.6933849,-0.004680357,-0.6058959,0.0,0.0,0.0,0.0,0.0,0.0,0.0,-0.0,-1.0
164149547,nan,nan,-1.2046902,3.1388288,0.0,2.0270238,-0.005602503,-0.6216948,0.0,0.0,0.0,0.0,0.0,0.0,0.0,-0.0,-1.0
164249557,nan,nan,-1.2046902,3.1388288,0.0,2.3910139,-0.0066085374,-0.6411472,0.0,0.0,0.0,0.0,0.0,0.0,0.0,-0.0,-1.0
164349626,nan,nan,-1.2046902,3.1388288,0.0,2.5783021,-0.0071261846,-0.6689831,0.0,0.0,0.0,0.0,0.0,0.0,0.0,0.0,-1.0
164449796,nan,nan,-1.2046902,3.1388288,0.0,2.5334551,-0.0070022326,-0.6990775,0.0,0.0,0.0,0.0,0.0,0.0,0.0,-0.0,-1.0
164550122,nan,nan,-1.2046902,3.1388288,0.0,2.3391287,-0.006465132,-0.7336918,0.0,0.0,0.0,0.0,0.0,0.0,0.0,0.0,-1.0
164650050,nan,nan,-1.2046902,3.1388288,0.0,2.7382035,-0.0075681373,-0.7669539,0.0,0.0,0.0,0.0,0.0,0.0,0.0,-0.0,-1.0
164771122,nan,nan,-1.2046902,3.1388288,0.0,3.247533,-0.008975876,-0.80792475,0.0,0.0,0.0,0.0,0.0,0.0,0.0,-0.0,-1.0
164870269,nan,nan,-1.2046902,3.1388288,0.0,3.5410593,-0.33352143,-0.8342223,0.0,0.0,0.0,0.0,0.0,0.0,0.0,-0.0,-1.0
164971194,nan,nan,-1.2046902,3.1388288,0.0,3.519746,-0.83758605,-0.8588897,0.0,0.0,0.0,0.0,0.0,0.0,0.0,-0.0,-1.0
165070280,nan,nan,-1.2046902,3.1388288,0.0,3.4852424,-1.3316793,-0.87841034,0.0,0.0,0.0,0.0,0.0,0.0,0.0,-0.0,-1.0
165171132,nan,nan,-1.2046902,3.1388288,0.0,3.392395,-1.8271326,-0.89550495,0.0,0.0,0.0,0.0,0.0,0.0,0.0,-0.0,-1.0
165270446,nan,nan,-1.2046902,3.1388288,0.0,3.3489077,-2.3178527,-0.9075826,0.0,0.0,0.0,0.0,0.0,0.0,0.0,-0.0,-1.0
165371511,nan,nan,-1.2046902,3.1388288,0.0,3.4989753,-2.797178,-0.91606784,0.0,0.0,0.0,0.0,0.0,0.0,0.0,-0.0,-1.0
165470906,nan,nan,-1.2046902,3.1388288,0.0,3.6990786,-3.2524924,-0.92152834,0.0,0.0,0.0,0.0,0.0,0.0,0.0,-0.0,-1.0
165571607,nan,nan,-1.2046902,3.1388288,0.0,3.8816185,-3.7219653,-0.9441552,0.0,0.0,0.0,0.0,0.0,0.0,0.0,-0.0,-1.0
165670992,nan,nan,-1.2046902,3.1388288,0.0,4.090162,-4.17285,-0.9989785,0.0,0.0,0.0,0.0,0.0,0.0,0.0,-0.0,-1.0
165771096,nan,nan,-1.2046902,3.1388288,0.0,4.3614516,-4.592143,-1.1008724,0.0,0.0,0.0,0.0,0.0,0.0,0.0,-0.0,-1.0
165851922,nan,nan,-0.011609856,-2.9829197,0.0,nan,nan,0.0,0.0,0.0,0.0,0.0,0.0,0.0,0.42921445,-0.27453467,-0.8798263
