timestamp,ref_timestamp,ref_lat,ref_lon,x,y,z,delta_xy[0],delta_xy[1],delta_z,vx,vy,vz,z_deriv,delta_vxy[0],delta_vxy[1],delta_vz,ax,ay,az,yaw,ref_alt,dist_bottom,dist_bottom_rate,eph,epv,evh,evv,vxy_max,vz_max,hagl_min,hagl_max,xy_valid,z_valid,v_xy_valid,v_z_valid,xy_reset_counter,z_reset_counter,vxy_reset_counter,vz_reset_counter,xy_global,z_global,dist_bottom_valid
44603499,0,0.0,0.0,0.1655511,0.5442459,-0.0340022,0.16643107,0.54324627,-0.25651273,-0.0006152413,-0.00037693436,0.016418323,0.007582056,0.0033647085,-0.0034989999,-5.9408743e-05,0.00010073594,-0.006767099,0.027174179,3.073392,0.0,0.1,-0.016418323,0.005479384,0.0037670839,0.025928052,0.017166713,inf,inf,inf,inf,1,1,1,1,2,1,2,3,0,0,0
44699470,0,0.0,0.0,0.165527,0.54425746,-0.033953376,0.16643107,0.54324627,-0.25651273,-0.00051356945,-0.0006392266,0.016130824,0.007081595,0.0033647085,-0.0034989999,-5.9408743e-05,-0.02064913,0.006733016,0.018607719,3.0733812,0.0,0.1,-0.016130824,0.0051762722,0.0035621172,0.025709974,0.017033916,inf,inf,inf,inf,1,1,1,1,2,1,2,3,0,0,0
44803484,0,0.0,0.0,0.16548991,0.54425985,-0.034071624,0.16643107,0.54324627,-0.25651273,-0.0009009638,-0.00055330235,0.014720142,0.005442264,0.0033647085,-0.0034989999,-5.9408743e-05,-0.028057022,0.017144866,0.03923456,3.073382,0.0,0.1,-0.014720142,0.00526137,0.003607581,0.026355196,0.017409593,inf,inf,inf,inf,1,1,1,1,2,1,2,3,0,0,0
44907475,0,0.0,0.0,0.16542518,0.54426783,-0.034270093,0.16643107,0.54324627,-0.25651273,-0.0018229937,-0.00041826398,0.014419899,0.004959565,0.0033647085,-0.0034989999,-5.9408743e-05,-0.4051563,0.4353218,-0.111994416,3.0734763,0.0,0.1,-0.014419899,0.0051192464,0.003510694,0.026099063,0.01726014,inf,inf,inf,inf,1,1,1,1,2,1,2,3,0,0,0
45011469,0,0.0,0.0,0.1653977,0.5442603,-0.034495793,0.16643107,0.54324627,-0.25651273,0.00033110246,0.0010794973,0.013088317,0.0035371436,0.0033647085,-0.0034989999,-5.9408743e-05,0.17634332,0.36184117,0.005750054,3.073879,0.0,0.1,-0.013088317,0.005293342,0.003623159,0.026396058,0.017436406,inf,inf,inf,inf,1,1,1,1,2,1,2,3,0,0,0
45115469,0,0.0,0.0,0.16541453,0.54432726,-0.034806237,0.16643107,0.54324627,-0.25651273,0.0013148849,0.00097097567,0.012390019,0.0027948483,0.0033647085,-0.0034989999,-5.9408743e-05,0.013589392,0.34180737,-0.0940255,3.0728831,0.0,0.1,-0.012390019,0.0054001994,0.0036943264,0.0264951,0.017496297,inf,inf,inf,inf,1,1,1,1,2,1,2,3,0,0,0
45217920,0,0.0,0.0,0.1654946,0.5442831,-0.035173763,0.16643107,0.54324627,-0.25651273,-0.00046975864,-0.0012663319,0.012094792,0.002468062,0.0033647085,-0.0034989999,-5.9408743e-05,-0.030687584,-0.19407944,0.010759466,3.0736322,0.0,0.1,-0.012094792,0.005171818,0.003547148,0.025925538,0.017161964,inf,inf,inf,inf,1,1,1,1,2,1,2,3,0,0,0
45315511,0,0.0,0.0,0.16554989,0.54428923,-0.035466906,0.16643107,0.54324627,-0.25651273,-0.00062339916,0.0005978131,0.0125563,0.002952505,0.0033647085,-0.0034989999,-5.9408743e-05,-0.09913783,0.5234367,-0.030991105,3.0733833,0.0,0.1,-0.0125563,0.0052711214,0.0036085711,0.026297938,0.017379815,inf,inf,inf,inf,1,1,1,1,2,1,2,3,0,0,0
45418675,0,0.0,0.0,0.16561978,0.54426175,-0.035766087,0.16643107,0.54324627,-0.25651273,0.00028215745,-0.00028359937,0.010803841,0.0013052092,0.0033647085,-0.0034989999,-5.9408743e-05,0.041685626,0.31854928,0.12981841,3.0732424,0.0,0.1,-0.010803841,0.0050709867,0.0034811138,0.02564111,0.016991198,inf,inf,inf,inf,1,1,1,1,2,1,2,3,0,0,0
45514669,0,0.0,0.0,0.16567983,0.54427403,-0.035970204,0.16643107,0.54324627,-0.25651273,0.0012553319,-2.0516742e-05,0.011715153,0.0023469818,0.0033647085,-0.0034989999,-5.9408743e-05,0.45592695,-0.047805913,0.09813031,3.0732808,0.0,0.1,-0.011715153,0.0051367185,0.0035229663,0.025884243,0.017140156,inf,inf,inf,inf,1,1,1,1,2,1,2,3,0,0,0
45618677,0,0.0,0.0,0.16581939,0.54433477,-0.036233194,0.16643107,0.54324627,-0.25651273,-0.0013965282,0.0017383202,0.0091051925,-0.00013122619,0.0033647085,-0.0034989999,-5.9408743e-05,-0.8214903,-0.3307231,-0.11047796,3.0724525,0.0,0.1,-0.0091051925,0.0047736764,0.0032849396,0.02502276,0.01662189,inf,inf,inf,inf,1,1,1,1,2,1,2,3,0,0,0
45722668,0,0.0,0.0,0.16595685,0.5444281,-0.036439057,0.16643107,0.54324627,-0.25651273,-0.0012714708,-0.00020414776,0.012181411,0.0030953463,0.0033647085,-0.0034989999,-5.9408743e-05,-0.19280182,-0.8199502,0.12622862,3.074131,0.0,0.1,-0.012181411,0.005134893,0.0035167928,0.026056783,0.017237766,inf,inf,inf,inf,1,1,1,1,2,1,2,3,0,0,0
45826682,0,0.0,0.0,0.16604371,0.5444559,-0.036533404,0.16643107,0.54324627,-0.25651273,-0.0022374005,0.00033533998,0.01205852,0.003151406,0.0033647085,-0.0034989999,-5.9408743e-05,-0.83151585,0.24522913,0.37478393,3.073926,0.0,0.1,-0.01205852,0.00503203,0.003453202,0.025613764,0.016979763,inf,inf,inf,inf,1,1,1,1,2,1,2,3,0,0,0
45930668,0,0.0,0.0,0.16603059,0.5444505,-0.03660079,0.16643107,0.54324627,-0.25651273,0.00092509855,-0.00041089347,0.011366766,0.0026306892,0.0033647085,-0.0034989999,-5.9408743e-05,-0.17878564,-0.49436936,0.40439522,3.0730019,0.0,0.1,-0.011366766,0.0050452165,0.0034597653,0.02577146,0.017072707,inf,inf,inf,inf,1,1,1,1,2,1,2,3,0,0,0
46026669,0,0.0,0.0,0.16596425,0.5443653,-0.036541063,0.16643107,0.54324627,-0.25651273,0.0005355804,-0.0017859156,0.011563004,0.003034906,0.0033647085,-0.0034989999,-5.9408743e-05,-0.16101688,-0.24694395,-0.4729918,3.0728598,0.0,0.1,-0.011563004,0.005140428,0.0035236867,0.025864335,0.017129755,inf,inf,inf,inf,1,1,1,1,2,1,2,3,0,0,0
46130670,0,0.0,0.0,0.16592656,0.54433733,-0.036422852,0.16643107,0.54324627,-0.25651273,0.00035193897,-0.0025382077,0.011675229,0.0032999425,0.0033647085,-0.0034989999,-5.9408743e-05,0.16025536,-0.870206,0.22725369,3.0729437,0.0,0.1,-0.011675229,0.0050410614,0.0034598415,0.025624175,0.016985802,inf,inf,inf,inf,1,1,1,1,2,1,2,3,0,0,0
46234669,0,0.0,0.0,0.16582283,0.544265,-0.03623497,0.16643107,0.54324627,-0.25651273,0.00046035546,0.0022671071,0.013266073,0.0050157127,0.0033647085,-0.0034989999,-5.9408743e-05,0.42569137,0.47644156,-0.011883298,3.0730128,0.0,0.1,-0.013266073,0.005287117,0.0036186283,0.026266718,0.017364152,inf,inf,inf,inf,1,1,1,1,2,1,2,3,0,0,0
46330668,0,0.0,0.0,0.16576101,0.54418784,-0.0360579,0.16643107,0.54324627,-0.25651273,-0.0018495405,0.00068520685,0.013070713,0.0049237045,0.0033647085,-0.0034989999,-5.9408743e-05,-0.66875196,0.98050535,-0.09388838,3.072836,0.0,0.1,-0.013070713,0.0052600615,0.0036044547,0.026046235,0.0172353,inf,inf,inf,inf,1,1,1,1,2,1,2,3,0,0,0
46434669,0,0.0,0.0,0.16572367,0.5441487,-0.0359097,0.16643107,0.54324627,-0.25651273,0.00013122559,9.0601105e-05,0.014275486,0.006170831,0.0033647085,-0.0034989999,-5.9408743e-05,-0.348916,0.45100778,0.5416395,3.0728872,0.0,0.1,-0.014275486,0.005036058,0.0034605989,0.025461433,0.016892375,inf,inf,inf,inf,1,1,1,1,2,1,2,3,0,0,0
46537869,0,0.0,0.0,0.16586281,0.54394907,-0.035888962,0.16643107,0.54324627,-0.25651273,0.0018638246,-0.004663177,0.010227629,0.0021210832,0.0033647085,-0.0034989999,-5.9408743e-05,-0.27268374,-0.437209,-0.29499283,3.0729654,0.0,0.1,-0.010227629,0.005201719,0.0035666784,0.025968634,0.017189194,inf,inf,inf,inf,1,1,1,1,2,1,2,3,0,0,0
46641874,0,0.0,0.0,0.16601093,0.5437557,-0.035980176,0.16643107,0.54324627,-0.25651273,0.002440802,-0.003930623,0.012237362,0.004090573,0.0033647085,-0.0034989999,-5.9408743e-05,-0.0620647,-0.38780022,0.1675057,3.0729196,0.0,0.1,-0.012237362,0.0050549903,0.003469818,0.025646089,0.016988764,inf,inf,inf,inf,1,1,1,1,2,1,2,3,0,0,0
46745871,0,0.0,0.0,0.16609171,0.5435425,-0.03606214,0.16643107,0.54324627,-0.25651273,0.0031553728,-0.004037693,0.012785917,0.0046179662,0.0033647085,-0.0034989999,-5.9408743e-05,0.64096045,-0.98498327,0.41653377,3.0728254,0.0,0.1,-0.012785917,0.005317484,0.0036377378,0.026422605,0.017452698,inf,inf,inf,inf,1,1,1,1,2,1,2,3,0,0,0
46841880,0,0.0,0.0,0.16615044,0.5433377,-0.03606684,0.16643107,0.54324627,-0.25651273,0.0018072322,-0.0020092207,0.0134086255,0.005259263,0.0033647085,-0.0034989999,-5.9408743e-05,0.3614487,0.01661236,0.42587703,3.072799,0.0,0.1,-0.0134086255,0.0050172745,0.0034454293,0.025556581,0.016947003,inf,inf,inf,inf,1,1,1,1,2,1,2,3,0,0,0
46945868,0,0.0,0.0,0.16614547,0.5432184,-0.036012113,0.16643107,0.54324627,-0.25651273,-0.0003463983,-0.0039761206,0.01175076,0.003647347,0.0033647085,-0.0034989999,-5.9408743e-05,-0.56481785,-0.33800748,-0.22071885,3.0726745,0.0,0.1,-0.01175076,0.0052378587,0.003587687,0.02613547,0.017286662,inf,inf,inf,inf,1,1,1,1,2,1,2,3,0,0,0
47049868,0,0.0,0.0,0.16612634,0.54322505,-0.035939857,0.16643107,0.54324627,-0.25651273,0.00055023865,-0.0015788071,0.013748228,0.005700779,0.0033647085,-0.0034989999,-5.9408743e-05,-0.26205233,-0.08928041,0.3713365,3.0727355,0.0,0.1,-0.013748228,0.005064485,0.0034772882,0.025604533,0.01697739,inf,inf,inf,inf,1,1,1,1,2,1,2,3,0,0,0
47145867,0,0.0,0.0,0.1661145,0.54334897,-0.035864715,0.16643107,0.54324627,-0.25651273,0.002060426,-0.0007109467,0.012500872,0.004515489,0.0033647085,-0.0034989999,-5.9408743e-05,-0.1733871,0.16530679,-0.18370754,3.072597,0.0,0.1,-0.012500872,0.0053783758,0.0036817398,0.026326703,0.01740042,inf,inf,inf,inf,1,1,1,1,2,1,2,3,0,0,0
47249875,0,0.0,0.0,0.16606697,0.5435777,-0.035929427,0.16643107,0.54324627,-0.25651273,0.0011506737,0.0006866587,0.012446158,0.004453972,0.0033647085,-0.0034989999,-5.9408743e-05,-0.37118244,0.04793629,-0.11684914,3.0724356,0.0,0.1,-0.012446158,0.0051719667,0.003547671,0.025890656,0.017143339,inf,inf,inf,inf,1,1,1,1,2,1,2,3,0,0,0
47353889,0,0.0,0.0,0.16596614,0.5438489,-0.03595275,0.16643107,0.54324627,-0.25651273,0.0010336871,0.0024260809,0.012532344,0.004537176,0.0033647085,-0.0034989999,-5.9408743e-05,0.094299585,1.1174384,0.23887,3.0725667,0.0,0.1,-0.012532344,0.005320273,0.003643022,0.02628733,0.017375186,inf,inf,inf,inf,1,1,1,1,2,1,2,3,0,0,0
47457881,0,0.0,0.0,0.1658064,0.5441185,-0.035996445,0.16643107,0.54324627,-0.25651273,-0.00012927143,0.001984954,0.012089751,0.004093919,0.0033647085,-0.0034989999,-5.9408743e-05,0.008673122,1.2056286,-0.0112999445,3.072708,0.0,0.1,-0.012089751,0.0054190685,0.0037077735,0.026474215,0.017486524,inf,inf,inf,inf,1,1,1,1,2,1,2,3,0,0,0
47553875,0,0.0,0.0,0.16560575,0.5443089,-0.036027476,0.16643107,0.54324627,-0.25651273,-0.00018423198,0.0044774837,0.012154093,0.0041503506,0.0033647085,-0.0034989999,-5.9408743e-05,0.30331448,2.2125783,0.56585115,3.0727732,0.0,0.1,-0.012154093,0.0053764316,0.0036802853,0.026387235,0.017433867,inf,inf,inf,inf,1,1,1,1,2,1,2,3,0,0,0
47657869,0,0.0,0.0,0.16531795,0.5445073,-0.0360469,0.16643107,0.54324627,-0.25651273,0.0017772376,0.0027718693,0.013202302,0.005219498,0.0033647085,-0.0034989999,-5.9408743e-05,1.2404073,1.3255233,-0.15963143,3.0724528,0.0,0.1,-0.013202302,0.0054416074,0.003723291,0.026506223,0.01750415,inf,inf,inf,inf,1,1,1,1,2,1,2,3,0,0,0
47761107,0,0.0,0.0,0.16511485,0.54465574,-0.036097817,0.16643107,0.54324627,-0.25651273,-0.00075450307,0.0019671612,0.013293293,0.005328063,0.0033647085,-0.0034989999,-5.9408743e-05,0.10451418,0.3369994,0.53103775,3.072254,0.0,0.1,-0.013293293,0.005521535,0.0037744353,0.026732305,0.017636597,inf,inf,inf,inf,1,1,1,1,2,1,2,3,0,0,0
47857073,0,0.0,0.0,0.16487178,0.5447557,-0.036218632,0.16643107,0.54324627,-0.25651273,0.00086132693,-0.0004669155,0.010383632,0.0024274606,0.0033647085,-0.0034989999,-5.9408743e-05,0.8442215,-0.42490143,-0.02249156,3.0723953,0.0,0.1,-0.010383632,0.005060162,0.0034775771,0.025539989,0.016936371,inf,inf,inf,inf,1,1,1,1,2,1,2,3,0,0,0
47961069,0,0.0,0.0,0.16458014,0.5447847,-0.036414362,0.16643107,0.54324627,-0.25651273,0.00019804928,-0.0010934438,0.009969339,0.0019876831,0.0033647085,-0.0034989999,-5.9408743e-05,0.6348947,-0.3774767,0.090194225,3.0723789,0.0,0.1,-0.009969339,0.0049555562,0.0034054199,0.02548726,0.016905166,inf,inf,inf,inf,1,1,1,1,2,1,2,3,0,0,0
48065078,0,0.0,0.0,0.16437423,0.5447056,-0.036509763,0.16643107,0.54324627,-0.25651273,0.0022641225,-0.0013405624,0.012063685,0.0041424646,0.0033647085,-0.0034989999,-5.9408743e-05,0.67543316,-0.4791028,-0.28521478,3.0723677,0.0,0.1,-0.012063685,0.0054420647,0.0037208819,0.026604684,0.017564613,inf,inf,inf,inf,1,1,1,1,2,1,2,3,0,0,0
48161084,0,0.0,0.0,0.16425449,0.544624,-0.036582883,0.16643107,0.54324627,-0.25651273,-0.0008065073,-0.00400873,0.00997918,0.0021113844,0.0033647085,-0.0034989999,-5.9408743e-05,-0.058367122,-1.4126717,-0.49487343,3.0723588,0.0,0.1,-0.00997918,0.0050418177,0.0034639284,0.025538052,0.016938737,inf,inf,inf,inf,1,1,1,1,2,1,2,3,0,0,0
48265072,0,0.0,0.0,0.16420357,0.5446073,-0.03656237,0.16643107,0.54324627,-0.25651273,-0.001409516,-0.00020420589,0.013310408,0.0055211484,0.0033647085,-0.0034989999,-5.9408743e-05,0.44369808,0.11136492,0.8144572,3.0722792,0.0,0.1,-0.013310408,0.005175518,0.0035502107,0.025900802,0.017150229,inf,inf,inf,inf,1,1,1,1,2,1,2,3,0,0,0
48369075,0,0.0,0.0,0.16426499,0.54464054,-0.036566723,0.16643107,0.54324627,-0.25651273,-0.0036325543,0.001592473,0.009881942,0.0021539896,0.0033647085,-0.0034989999,-5.9408743e-05,-1.1293538,0.27836597,0.055368923,3.0721734,0.0,0.1,-0.009881942,0.0050997105,0.0034979677,0.025867332,0.017131798,inf,inf,inf,inf,1,1,1,1,2,1,2,3,0,0,0
48473069,0,0.0,0.0,0.16429552,0.54474145,-0.036591195,0.16643107,0.54324627,-0.25651273,0.0012816995,0.0010616153,0.011772067,0.0041289823,0.0033647085,-0.0034989999,-5.9408743e-05,0.65281016,0.37174276,0.18659894,3.0719023,0.0,0.1,-0.011772067,0.005003311,0.0034356553,0.0255747,0.01695762,inf,inf,inf,inf,1,1,1,1,2,1,2,3,0,0,0
48577073,0,0.0,0.0,0.16440631,0.54489934,-0.03665208,0.16643107,0.54324627,-0.25651273,-0.0018384857,0.0031505479,0.010223065,0.002620982,0.0033647085,-0.0034989999,-5.9408743e-05,-0.3172881,0.76876426,-0.24439536,3.072054,0.0,0.1,-0.010223065,0.004978684,0.0034182186,0.025558636,0.01695119,inf,inf,inf,inf,1,1,1,1,2,1,2,3,0,0,0
48681069,0,0.0,0.0,0.16446301,0.54510367,-0.03669103,0.16643107,0.54324627,-0.25651273,0.001970989,0.0031120973,0.010267714,0.0027071463,0.0033647085,-0.0034989999,-5.9408743e-05,0.7376733,-0.06370631,-0.23394082,3.0721476,0.0,0.1,-0.010267714,0.004961521,0.0034065677,0.025517292,0.01692279,inf,inf,inf,inf,1,1,1,1,2,1,2,3,0,0,0
48777074,0,0.0,0.0,0.16449092,0.5452638,-0.03669807,0.16643107,0.54324627,-0.25651273,0.003869308,0.0010937213,0.010137692,0.0026585092,0.0033647085,-0.0034989999,-5.9408743e-05,1.6602805,-0.6659913,0.22833072,3.0723329,0.0,0.1,-0.010137692,0.005010783,0.0034410092,0.02549041,0.016908212,inf,inf,inf,inf,1,1,1,1,2,1,2,3,0,0,0
48880299,0,0.0,0.0,0.16451007,0.54546577,-0.036705364,0.16643107,0.54324627,-0.25651273,0.0039566034,0.0062759225,0.008499521,0.0010851094,0.0033647085,-0.0034989999,-5.9408743e-05,1.4498599,1.7621136,-0.74398255,3.07236,0.0,0.1,-0.008499521,0.004952649,0.0034024713,0.025407797,0.016862797,inf,inf,inf,inf,1,1,1,1,2,1,2,3,0,0,0
48984344,0,0.0,0.0,0.16461743,0.5456043,-0.036746975,0.16643107,0.54324627,-0.25651273,0.00318148,0.004852552,0.010640332,0.0032937939,0.0033647085,-0.0034989999,-5.9408743e-05,0.8779871,0.35687867,0.5324108,3.072062,0.0,0.1,-0.010640332,0.005165753,0.0035410174,0.025931098,0.017169222,inf,inf,inf,inf,1,1,1,1,2,1,2,3,0,0,0
49088269,0,0.0,0.0,0.16491872,0.54582095,-0.03675808,0.16643107,0.54324627,-0.25651273,0.0009965033,0.004914013,0.009918315,0.002608024,0.0033647085,-0.0034989999,-5.9408743e-05,-0.554464,-0.58026206,-0.8460058,3.0720725,0.0,0.1,-0.009918315,0.0051426194,0.0035234797,0.026002282,0.017205294,inf,inf,inf,inf,1,1,1,1,2,1,2,3,0,0,0
49184327,0,0.0,0.0,0.16525364,0.545906,-0.036837786,0.16643107,0.54324627,-0.25651273,0.0028775004,0.0026241005,0.0101670595,0.0029014505,0.0033647085,-0.0034989999,-5.9408743e-05,-0.13120379,-0.36596772,-0.06706246,3.0722976,0.0,0.1,-0.0101670595,0.0050357594,0.0034523187,0.025824284,0.017101595,inf,inf,inf,inf,1,1,1,1,2,1,2,3,0,0,0
49288269,0,0.0,0.0,0.16563405,0.54600596,-0.036954302,0.16643107,0.54324627,-0.25651273,0.0023423329,0.0020600874,0.009612849,0.002411093,0.0033647085,-0.0034989999,-5.9408743e-05,-0.22237723,-0.8975287,-0.043422397,3.072195,0.0,0.1,-0.009612849,0.0051026577,0.0034946152,0.026005367,0.017207578,inf,inf,inf,inf,1,1,1,1,2,1,2,3,0,0,0
49392278,0,0.0,0.0,0.16596395,0.5459694,-0.03696205,0.16643107,0.54324627,-0.25651273,0.007622522,0.0033891196,0.008504346,0.0013901447,0.0033647085,-0.0034989999,-5.9408743e-05,1.4581577,0.32169494,-0.6268663,3.0722866,0.0,0.1,-0.008504346,0.0050443453,0.0034605956,0.025625082,0.01698678,inf,inf,inf,inf,1,1,1,1,2,1,2,3,0,0,0
49488318,0,0.0,0.0,0.16621022,0.54583853,-0.036939763,0.16643107,0.54324627,-0.25651273,0.004015798,0.0038984362,0.010251924,0.003225018,0.0033647085,-0.0034989999,-5.9408743e-05,0.38212624,1.1634974,0.10881511,3.0720928,0.0,0.1,-0.010251924,0.0051208613,0.0035120691,0.025741985,0.017059159,inf,inf,inf,inf,1,1,1,1,2,1,2,3,0,0,0
49592269,0,0.0,0.0,0.16638714,0.54565746,-0.03685541,0.16643107,0.54324627,-0.25651273,0.0028086782,-0.00061558397,0.008127789,0.0011988898,0.0033647085,-0.0034989999,-5.9408743e-05,-0.90828353,-0.50710624,-0.5312365,3.072142,0.0,0.1,-0.008127789,0.0053003174,0.0036294686,0.026165608,0.017305767,inf,inf,inf,inf,1,1,1,1,2,1,2,3,0,0,0
49696297,0,0.0,0.0,0.16642956,0.54539853,-0.03673235,0.16643107,0.54324627,-0.25651273,0.0042214114,0.002492177,0.012716595,0.0058541126,0.0033647085,-0.0034989999,-5.9408743e-05,0.112293795,0.11413373,0.34739593,3.0722587,0.0,0.1,-0.012716595,0.0051235408,0.0035151266,0.025782604,0.017082592,inf,inf,inf,inf,1,1,1,1,2,1,2,3,0,0,0
49792269,0,0.0,0.0,0.16637352,0.54518515,-0.036618866,0.16643107,0.54324627,-0.25651273,0.0044703493,-0.00033262308,0.012344986,0.005520585,0.0033647085,-0.0034989999,-5.9408743e-05,0.6210677,-0.20097712,0.04192492,3.0722606,0.0,0.1,-0.012344986,0.0051992424,0.0035630965,0.026035724,0.017229319,inf,inf,inf,inf,1,1,1,1,2,1,2,3,0,0,0
49896269,0,0.0,0.0,0.16619696,0.5449123,-0.036581226,0.16643107,0.54324627,-0.25651273,0.0016728301,-0.00035557363,0.010667403,0.003863887,0.0033647085,-0.0034989999,-5.9408743e-05,-0.48703337,-1.1931473,0.34450826,3.0723019,0.0,0.1,-0.010667403,0.0053572054,0.0036660533,0.026373444,0.017428089,inf,inf,inf,inf,1,1,1,1,2,1,2,3,0,0,0
50000269,0,0.0,0.0,0.16586678,0.5446283,-0.036552098,0.16643107,0.54324627,-0.25651273,0.0033797228,0.0015705389,0.010258666,0.0034541858,0.0033647085,-0.0034989999,-5.9408743e-05,1.5282655,0.89214164,-0.23533677,3.0723045,0.0,0.1,-0.010258666,0.0054722293,0.0037417144,0.026593616,0.017555594,inf,inf,inf,inf,1,1,1,1,2,1,2,3,0,0,0
50096269,0,0.0,0.0,0.16550156,0.54439443,-0.036503825,0.16643107,0.54324627,-0.25651273,-0.0034461815,-0.0004819764,0.010343091,0.003523727,0.0033647085,-0.0034989999,-5.9408743e-05,-1.9860839,0.343966,-0.8032797,3.07202,0.0,0.1,-0.010343091,0.005399891,0.0036961942,0.026390666,0.017442437,inf,inf,inf,inf,1,1,1,1,2,1,2,3,0,0,0
50199469,0,0.0,0.0,0.16526894,0.5441505,-0.036450706,0.16643107,0.54324627,-0.25651273,0.0011432656,-0.00025671383,0.011576802,0.0047379127,0.0033647085,-0.0034989999,-5.9408743e-05,0.3238142,-0.55977523,0.40377823,3.0724492,0.0,0.1,-0.011576802,0.005145236,0.0035317002,0.025782274,0.017079681,inf,inf,inf,inf,1,1,1,1,2,1,2,3,0,0,0
50303469,0,0.0,0.0,0.16515267,0.54386014,-0.036268022,0.16643107,0.54324627,-0.25651273,-0.0010486267,0.0015165678,0.01231188,0.0054656793,0.0033647085,-0.0034989999,-5.9408743e-05,-0.533891,1.6250826,0.1053525,3.0722198,0.0,0.1,-0.01231188,0.0052739377,0.0036137651,0.026148178,0.017294282,inf,inf,inf,inf,1,1,1,1,2,1,2,3,0,0,0
50407475,0,0.0,0.0,0.16504918,0.5435206,-0.036072068,0.16643107,0.54324627,-0.25651273,0.0010510393,-0.0054681236,0.011887727,0.0049954625,0.0033647085,-0.0034989999,-5.9408743e-05,0.23904474,-0.40450114,-0.43032217,3.0722604,0.0,0.1,-0.011887727,0.0051289266,0.0035176284,0.025911205,0.017152052,inf,inf,inf,inf,1,1,1,1,2,1,2,3,0,0,0
50503532,0,0.0,0.0,0.16501446,0.5433044,-0.035926636,0.16643107,0.54324627,-0.25651273,0.0021223421,-0.004517608,0.011531994,0.004579454,0.0033647085,-0.0034989999,-5.9408743e-05,0.07171526,-0.97934836,-0.55774564,3.0721102,0.0,0.1,-0.011531994,0.0049301484,0.0033871343,0.025471006,0.01689532,inf,inf,inf,inf,1,1,1,1,2,1,2,3,0,0,0
50607473,0,0.0,0.0,0.16500816,0.5430942,-0.0358127,0.16643107,0.54324627,-0.25651273,0.0027923598,-0.0021445036,0.012914257,0.0059096147,0.0033647085,-0.0034989999,-5.9408743e-05,0.6593875,0.9600305,0.44538927,3.072145,0.0,0.1,-0.012914257,0.0051214164,0.0035127394,0.025819967,0.017103886,inf,inf,inf,inf,1,1,1,1,2,1,2,3,0,0,0
50711484,0,0.0,0.0,0.16495278,0.5429696,-0.03576507,0.16643107,0.54324627,-0.25651273,0.001048517,-0.005148831,0.013156137,0.006067059,0.0033647085,-0.0034989999,-5.9408743e-05,-0.8501895,-0.8322963,-0.8452053,3.0721207,0.0,0.1,-0.013156137,0.005302367,0.003630569,0.026230168,0.017347272,inf,inf,inf,inf,1,1,1,1,2,1,2,3,0,0,0
50807474,0,0.0,0.0,0.16482078,0.5428246,-0.035697095,0.16643107,0.54324627,-0.25651273,8.094813e-05,-0.0028894995,0.01336446,0.0061996984,0.0033647085,-0.0034989999,-5.9408743e-05,-0.13559897,-0.9211815,-0.11868312,3.0722961,0.0,0.1,-0.01336446,0.005229826,0.0035864855,0.02593612,0.017172929,inf,inf,inf,inf,1,1,1,1,2,1,2,3,0,0,0
50911468,0,0.0,0.0,0.16467492,0.54279315,-0.035707813,0.16643107,0.54324627,-0.25651273,0.0012364836,-0.0025653746,0.010977828,0.0037194062,0.0033647085,-0.0034989999,-5.9408743e-05,1.2729554,-0.20808285,-0.16804618,3.0721624,0.0,0.1,-0.010977828,0.0049966113,0.003435437,0.025384985,0.016851787,inf,inf,inf,inf,1,1,1,1,2,1,2,3,0,0,0
51015477,0,0.0,0.0,0.16452152,0.54287153,-0.035826992,0.16643107,0.54324627,-0.25651273,0.0009172188,-0.0012971526,0.010528466,0.003186293,0.0033647085,-0.0034989999,-5.9408743e-05,0.3297101,-0.11849802,0.2083481,3.0721548,0.0,0.1,-0.010528466,0.0051352005,0.0035245751,0.025787534,0.017083135,inf,inf,inf,inf,1,1,1,1,2,1,2,3,0,0,0
51111477,0,0.0,0.0,0.16436777,0.5429934,-0.035994645,0.16643107,0.54324627,-0.25651273,-0.00041896163,-0.003825009,0.009851841,0.0024392703,0.0033647085,-0.0034989999,-5.9408743e-05,-0.0940069,-0.8992952,-0.078329176,3.072188,0.0,0.1,-0.009851841,0.005133524,0.0035232254,0.025789473,0.01708375,inf,inf,inf,inf,1,1,1,1,2,1,2,3,0,0,0
51215483,0,0.0,0.0,0.16421022,0.54321355,-0.036254015,0.16643107,0.54324627,-0.25651273,-0.0022344356,-0.0005380837,0.0114902975,0.004016347,0.0033647085,-0.0034989999,-5.9408743e-05,-0.38292244,1.0345539,0.9836932,3.0721903,0.0,0.1,-0.0114902975,0.0049420977,0.003398529,0.025334103,0.016820274,inf,inf,inf,inf,1,1,1,1,2,1,2,3,0,0,0
51319507,0,0.0,0.0,0.16411452,0.5434438,-0.03656931,0.16643107,0.54324627,-0.25651273,0.00043298776,0.00080096925,0.007679798,0.00018561639,0.0033647085,-0.0034989999,-5.9408743e-05,-0.15907559,-0.2531731,-0.40144232,3.0724466,0.0,0.1,-0.007679798,0.00516397,0.00354036,0.025984246,0.01719648,inf,inf,inf,inf,1,1,1,1,2,1,2,3,0,0,0
51418719,0,0.0,0.0,0.16409783,0.54364234,-0.036743965,0.16643107,0.54324627,-0.25651273,-0.0014124325,0.0012489475,0.008973835,0.0015296094,0.0033647085,-0.0034989999,-5.9408743e-05,-1.396135,0.59464806,-0.08764795,3.0721695,0.0,0.1,-0.008973835,0.0051745716,0.003548283,0.025933895,0.017170958,inf,inf,inf,inf,1,1,1,1,2,1,2,3,0,0,0
51522669,0,0.0,0.0,0.16413985,0.5439854,-0.03679335,0.16643107,0.54324627,-0.25651273,0.002227627,-0.0026901276,0.011475176,0.0041174255,0.0033647085,-0.0034989999,-5.9408743e-05,0.5552311,-1.5273225,0.5271955,3.072041,0.0,0.1,-0.011475176,0.0053266054,0.0036467651,0.026297962,0.017384361,inf,inf,inf,inf,1,1,1,1,2,1,2,3,0,0,0
51618677,0,0.0,0.0,0.16413961,0.54426414,-0.036741633,0.16643107,0.54324627,-0.25651273,-0.0020029272,0.0023611118,0.008893713,0.0016775108,0.0033647085,-0.0034989999,-5.9408743e-05,-0.68378687,0.6260962,-0.5153066,3.0719464,0.0,0.1,-0.008893713,0.0052881325,0.0036253026,0.026208496,0.017354863,inf,inf,inf,inf,1,1,1,1,2,1,2,3,0,0,0
51722712,0,0.0,0.0,0.16417877,0.5444608,-0.036608905,0.16643107,0.54324627,-0.25651273,-0.0013211241,0.0037740236,0.014100244,0.007007139,0.0033647085,-0.0034989999,-5.9408743e-05,-0.6228636,1.2710346,0.48558736,3.0719879,0.0,0.1,-0.014100244,0.005339143,0.003658834,0.026319461,0.01741942,inf,inf,inf,inf,1,1,1,1,2,1,2,3,0,0,0
51826669,0,0.0,0.0,0.16420808,0.5445496,-0.0364388,0.16643107,0.54324627,-0.25651273,0.00052947196,0.0007863829,0.0111110555,0.0040934393,0.0033647085,-0.0034989999,-5.9408743e-05,0.2693888,0.12521967,-0.5218796,3.07205,0.0,0.1,-0.0111110555,0.0054219845,0.0037121768,0.026512727,0.017528335,inf,inf,inf,inf,1,1,1,1,2,1,2,3,0,0,0
51930677,0,0.0,0.0,0.16419655,0.5446749,-0.036306128,0.16643107,0.54324627,-0.25651273,0.0005081568,0.0003608293,0.010606866,0.0036102934,0.0033647085,-0.0034989999,-5.9408743e-05,0.50486517,-1.1230657,-0.3306573,3.0721264,0.0,0.1,-0.010606866,0.0051080417,0.003510001,0.025665442,0.017019508,inf,inf,inf,inf,1,1,1,1,2,1,2,3,0,0,0
52034675,0,0.0,0.0,0.16411343,0.54467493,-0.03633174,0.16643107,0.54324627,-0.25651273,-0.0027606427,0.0030282221,0.009591204,0.0025680908,0.0033647085,-0.0034989999,-5.9408743e-05,-0.2960358,0.5757312,-0.19829884,3.0719943,0.0,0.1,-0.009591204,0.005219555,0.0035803746,0.026030893,0.017230876,inf,inf,inf,inf,1,1,1,1,2,1,2,3,0,0,0
52130669,0,0.0,0.0,0.16401574,0.54465103,-0.036395602,0.16643107,0.54324627,-0.25651273,0.0013480925,-0.00029722927,0.0106330495,0.0035404626,0.0033647085,-0.0034989999,-5.9408743e-05,1.369238,-0.39116177,0.78442216,3.0718572,0.0,0.1,-0.0106330495,0.005003144,0.003435818,0.025684558,0.017018903,inf,inf,inf,inf,1,1,1,1,2,1,2,3,0,0,0
52234669,0,0.0,0.0,0.16386789,0.54452664,-0.03653685,0.16643107,0.54324627,-0.25651273,-0.0015996459,0.0007072951,0.012301576,0.005170773,0.0033647085,-0.0034989999,-5.9408743e-05,0.31612456,-0.35241002,0.70037705,3.071864,0.0,0.1,-0.012301576,0.0049913474,0.0034254414,0.025713278,0.017035943,inf,inf,inf,inf,1,1,1,1,2,1,2,3,0,0,0
52338675,0,0.0,0.0,0.16368641,0.5444125,-0.036718633,0.16643107,0.54324627,-0.25651273,0.00031289278,-0.002249953,0.011065339,0.003952389,0.0033647085,-0.0034989999,-5.9408743e-05,1.2695539,-1.5021608,0.184434,3.0721493,0.0,0.1,-0.011065339,0.005304527,0.0036273997,0.026439266,0.017462261,inf,inf,inf,inf,1,1,1,1,2,1,2,3,0,0,0
52434679,0,0.0,0.0,0.16353579,0.544308,-0.036761012,0.16643107,0.54324627,-0.25651273,-0.0036024062,0.0024197681,0.010319138,0.003249336,0.0033647085,-0.0034989999,-5.9408743e-05,-0.34502155,1.713275,-0.2373777,3.0718904,0.0,0.1,-0.010319138,0.005327314,0.0036458632,0.02628614,0.017376693,inf,inf,inf,inf,1,1,1,1,2,1,2,3,0,0,0
52538669,0,0.0,0.0,0.16351114,0.5442886,-0.03668784,0.16643107,0.54324627,-0.25651273,-0.0020499292,0.0018866968,0.012283266,0.005267936,0.0033647085,-0.0034989999,-5.9408743e-05,-1.0011098,-0.25982013,0.62671745,3.0718353,0.0,0.1,-0.012283266,0.005161266,0.0035394693,0.02586183,0.017129611,inf,inf,inf,inf,1,1,1,1,2,1,2,3,0,0,0
52641869,0,0.0,0.0,0.16363804,0.5444178,-0.03646905,0.16643107,0.54324627,-0.25651273,-0.0010246496,0.0026951476,0.013809792,0.0068865344,0.0033647085,-0.0034989999,-5.9408743e-05,-0.15117137,-0.38367146,0.022865323,3.0718665,0.0,0.1,-0.013809792,0.0049789473,0.0034222866,0.025372526,0.0168391,inf,inf,inf,inf,1,1,1,1,2,1,2,3,0,0,0
52745869,0,0.0,0.0,0.16365813,0.5444366,-0.036258116,0.16643107,0.54324627,-0.25651273,-0.0037523266,0.0016289094,0.011559894,0.004679839,0.0033647085,-0.0034989999,-5.9408743e-05,-0.7530566,0.7563341,-0.037517704,3.0719929,0.0,0.1,-0.011559894,0.0049202265,0.003381777,0.02536574,0.016835375,inf,inf,inf,inf,1,1,1,1,2,1,2,3,0,0,0
52849875,0,0.0,0.0,0.16365713,0.5444042,-0.036051035,0.16643107,0.54324627,-0.25651273,-0.0010037754,0.0016205427,0.012742182,0.0058510117,0.0033647085,-0.0034989999,-5.9408743e-05,0.01620509,0.14501591,-0.000632556,3.0721169,0.0,0.1,-0.012742182,0.00488498,0.0033573695,0.02530895,0.016798051,inf,inf,inf,inf,1,1,1,1,2,1,2,3,0,0,0
52945892,0,0.0,0.0,0.16367656,0.54429036,-0.035908878,0.16643107,0.54324627,-0.25651273,0.00024356127,0.0002972201,0.011718342,0.0047986107,0.0033647085,-0.0034989999,-5.9408743e-05,-0.29696783,0.49938026,-0.19133028,3.0722399,0.0,0.1,-0.011718342,0.0052942093,0.0036232038,0.026275387,0.017369471,inf,inf,inf,inf,1,1,1,1,2,1,2,3,0,0,0
53049877,0,0.0,0.0,0.16375282,0.5441516,-0.03585922,0.16643107,0.54324627,-0.25651273,-0.0022705237,-0.002909249,0.011876503,0.0048887557,0.0033647085,-0.0034989999,-5.9408743e-05,-0.35461187,-0.48747894,0.07449079,3.0720346,0.0,0.1,-0.011876503,0.005450289,0.0037261941,0.026554385,0.017539116,inf,inf,inf,inf,1,1,1,1,2,1,2,3,0,0,0
53153889,0,0.0,0.0,0.16381067,0.543937,-0.035887714,0.16643107,0.54324627,-0.25651273,-0.0022987546,-0.00017427625,0.011675503,0.0045882417,0.0033647085,-0.0034989999,-5.9408743e-05,-0.44678313,0.48367298,-0.032269254,3.0719397,0.0,0.1,-0.011675503,0.0052037016,0.0035686842,0.025919152,0.017163243,inf,inf,inf,inf,1,1,1,1,2,1,2,3,0,0,0
53249869,0,0.0,0.0,0.16380219,0.5437772,-0.0360475,0.16643107,0.54324627,-0.25651273,-0.0013807819,-0.0009996659,0.011014139,0.0038420118,0.0033647085,-0.0034989999,-5.9408743e-05,0.3086822,-0.09211637,0.15801786,3.0720124,0.0,0.1,-0.011014139,0.005244301,0.0035937491,0.026098603,0.017269658,inf,inf,inf,inf,1,1,1,1,2,1,2,3,0,0,0
53353869,0,0.0,0.0,0.1637345,0.5436691,-0.036206204,0.16643107,0.54324627,-0.25651273,-0.00059433805,-0.0007119691,0.012347786,0.005101338,0.0033647085,-0.0034989999,-5.9408743e-05,0.6049682,-0.5251213,0.36716843,3.0719953,0.0,0.1,-0.012347786,0.00511273,0.0035076165,0.025826817,0.017109878,inf,inf,inf,inf,1,1,1,1,2,1,2,3,0,0,0
53457890,0,0.0,0.0,0.16363738,0.5435744,-0.036388855,0.16643107,0.54324627,-0.25651273,-0.0044884863,0.0003362956,0.007647706,0.00038659654,0.0033647085,-0.0034989999,-5.9408743e-05,-0.6527059,0.009093987,-0.7277905,3.0719182,0.0,0.1,-0.007647706,0.0053319903,0.0036487337,0.026386082,0.017437916,inf,inf,inf,inf,1,1,1,1,2,1,2,3,0,0,0
53561881,0,0.0,0.0,0.16354688,0.5434661,-0.036589116,0.16643107,0.54324627,-0.25651273,0.0010549468,-0.0025568982,0.008657081,0.0014134763,0.0033647085,-0.0034989999,-5.9408743e-05,0.7429851,-1.0990573,-0.13905457,3.0720222,0.0,0.1,-0.008657081,0.0052115023,0.0035709213,0.026084865,0.017260376,inf,inf,inf,inf,1,1,1,1,2,1,2,3,0,0,0
53657879,0,0.0,0.0,0.16345888,0.543459,-0.036769103,0.16643107,0.54324627,-0.25651273,-0.0030379111,-0.0008712697,0.009407099,0.0021937373,0.0033647085,-0.0034989999,-5.9408743e-05,0.36208704,0.18942264,-0.15269612,3.0718691,0.0,0.1,-0.009407099,0.004921982,0.0033841957,0.025301648,0.016798366,inf,inf,inf,inf,1,1,1,1,2,1,2,3,0,0,0
53757881,0,0.0,0.0,0.16335076,0.54337627,-0.036951557,0.16643107,0.54324627,-0.25651273,0.000281921,-0.0027786698,0.009480636,0.002323538,0.0033647085,-0.0034989999,-5.9408743e-05,1.0188493,-0.910263,0.10183839,3.072071,0.0,0.1,-0.009480636,0.005030374,0.003453177,0.025650447,0.017008746,inf,inf,inf,inf,1,1,1,1,2,1,2,3,0,0,0
53864308,0,0.0,0.0,0.1633286,0.543292,-0.037182737,0.16643107,0.54324627,-0.25651273,-0.001734658,-0.0009961501,0.0069177807,-0.0001352034,0.0033647085,-0.0034989999,-5.9408743e-05,0.9972582,0.61743885,-0.34529614,3.0719776,0.0,0.1,-0.0069177807,0.00496062,0.003407974,0.02544456,0.016885396,inf,inf,inf,inf,1,1,1,1,2,1,2,3,0,0,0
53961069,0,0.0,0.0,0.16315661,0.5431854,-0.0374503,0.16643107,0.54324627,-0.25651273,-0.0037573813,-0.0052598068,0.0074472325,0.00052521203,0.0033647085,-0.0034989999,-5.9408743e-05,-0.6098662,-0.7357192,0.103638135,3.0717928,0.0,0.1,-0.0074472325,0.005082937,0.0034888273,0.025878504,0.01716739,inf,inf,inf,inf,1,1,1,1,2,1,2,3,0,0,0
54064339,0,0.0,0.0,0.16287452,0.54305893,-0.037660405,0.16643107,0.54324627,-0.25651273,-0.0032476953,-0.002797593,0.0086767115,0.0019425082,0.0033647085,-0.0034989999,-5.9408743e-05,-0.09609162,0.013097417,-0.12938151,3.0720224,0.0,0.10015051,-0.0086767115,0.0052064247,0.0035727213,0.026149586,0.017335564,inf,inf,inf,inf,1,1,1,1,2,1,2,3,0,0,0
54169083,0,0.0,0.0,0.16249426,0.5430677,-0.037777867,0.16643107,0.54324627,-0.25651273,-0.00639869,-0.0022783885,0.008651309,0.0021017818,0.0033647085,-0.0034989999,-5.9408743e-05,-1.0042374,-0.63854915,0.16757266,3.071645,0.0,0.10026798,-0.008651309,0.0052855597,0.0036253138,0.026233003,0.017381193,inf,inf,inf,inf,1,1,1,1,2,1,2,3,0,0,0
54265094,0,0.0,0.0,0.16218218,0.543122,-0.037814606,0.16643107,0.54324627,-0.25651273,-0.004822857,-0.00097194524,0.0073744543,0.00097092945,0.0033647085,-0.0034989999,-5.9408743e-05,0.40012795,-0.786202,0.042930566,3.0719466,0.0,0.10030471,-0.0073744543,0.0049941577,0.003434356,0.025566328,0.016985303,inf,inf,inf,inf,1,1,1,1,2,1,2,3,0,0,0
54369075,0,0.0,0.0,0.16194956,0.54321164,-0.03773338,0.16643107,0.54324627,-0.25651273,-0.0025160117,0.002256542,0.009722499,0.003488671,0.0033647085,-0.0034989999,-5.9408743e-05,1.1565661,1.6569436,0.2060883,3.071893,0.0,0.10022348,-0.009722499,0.0054951976,0.0037588705,0.026731748,0.017664755,inf,inf,inf,inf,1,1,1,1,2,1,2,3,0,0,0
54473079,0,0.0,0.0,0.16193685,0.54336154,-0.037607063,0.16643107,0.54324627,-0.25651273,0.0006211905,-0.0014428411,0.009762649,0.0036414713,0.0033647085,-0.0034989999,-5.9408743e-05,1.4785314,0.14774548,0.23312369,3.0717788,0.0,0.100097165,-0.009762649,0.0049274103,0.0033909157,0.025299743,0.016809793,inf,inf,inf,inf,1,1,1,1,2,1,2,3,0,0,0
54577072,0,0.0,0.0,0.16209161,0.5435351,-0.037447274,0.16643107,0.54324627,-0.25651273,-0.001873099,-0.002563729,0.01041184,0.004388696,0.0033647085,-0.0034989999,-5.9408743e-05,-0.2417703,-0.5901976,0.09411157,3.0717895,0.0,0.1,-0.01041184,0.005157495,0.0035374297,0.025984284,0.017201837,inf,inf,inf,inf,1,1,1,1,2,1,2,3,0,0,0
54681069,0,0.0,0.0,0.16245808,0.5437371,-0.0371804,0.16643107,0.54324627,-0.25651273,-0.0012790919,-0.002442992,0.0107452255,0.004796197,0.0033647085,-0.0034989999,-5.9408743e-05,-0.70847607,-1.1873158,-0.25969934,3.0716767,0.0,0.1,-0.0107452255,0.0050356975,0.0034582359,0.025622534,0.016984634,inf,inf,inf,inf,1,1,1,1,2,1,2,3,0,0,0
54777114,0,0.0,0.0,0.16288322,0.5438653,-0.03688063,0.16643107,0.54324627,-0.25651273,0.0015048822,0.003635107,0.011629444,0.005722787,0.0033647085,-0.0034989999,-5.9408743e-05,1.1034137,1.4284617,0.2717688,3.071727,0.0,0.1,-0.011629444,0.005070007,0.0034806703,0.02566956,0.017014995,inf,inf,inf,inf,1,1,1,1,2,1,2,3,0,0,0
54881076,0,0.0,0.0,0.16343798,0.5439528,-0.03655415,0.16643107,0.54324627,-0.25651273,0.0014345254,0.0018458978,0.011962499,0.0060441634,0.0033647085,-0.0034989999,-5.9408743e-05,-0.35407874,0.6902755,-0.029316384,3.071404,0.0,0.1,-0.011962499,0.004945871,0.0033995826,0.025372328,0.016839474,inf,inf,inf,inf,1,1,1,1,2,1,2,3,0,0,0
54984293,0,0.0,0.0,0.16399443,0.54403555,-0.03622995,0.16643107,0.54324627,-0.25651273,0.002359093,-0.00096444855,0.013284301,0.0073053245,0.0033647085,-0.0034989999,-5.9408743e-05,1.9669498,-0.9360934,0.09874516,3.0717452,0.0,0.1,-0.013284301,0.005235856,0.0035847249,0.026222914,0.017337603,inf,inf,inf,inf,1,1,1,1,2,1,2,3,0,0,0
55079522,0,0.0,0.0,0.16428232,0.5440124,-0.03578138,0.16643107,0.54324627,-0.25651273,0.0023113233,-0.0011045643,0.014924699,0.008884236,0.0033647085,-0.0034989999,-5.9408743e-05,-1.2145301,0.27994108,0.09009259,3.0716953,0.0,0.1,-0.014924699,0.005256113,0.0036004402,0.026117757,0.017279897,inf,inf,inf,inf,1,1,1,1,2,1,2,3,0,0,0
55184320,0,0.0,0.0,0.16453362,0.54407144,-0.03533447,0.16643107,0.54324627,-0.25651273,0.0023970793,-0.00017111536,0.012995917,0.0068488363,0.0033647085,-0.0034989999,-5.9408743e-05,0.45725805,0.106377564,-0.053276736,3.071829,0.0,0.1,-0.012995917,0.0053563276,0.003667998,0.026253024,0.017360292,inf,inf,inf,inf,1,1,1,1,2,1,2,3,0,0,0
55288292,0,0.0,0.0,0.16468452,0.54414535,-0.03500166,0.16643107,0.54324627,-0.25651273,0.0008862276,4.7031976e-06,0.012902948,0.006574921,0.0033647085,-0.0034989999,-5.9408743e-05,-0.038076486,0.056247924,-0.71902895,3.0718122,0.0,0.1,-0.012902948,0.005434414,0.0037190102,0.026446981,0.017473258,inf,inf,inf,inf,1,1,1,1,2,1,2,3,0,0,0
55392268,0,0.0,0.0,0.16473718,0.54422814,-0.03488596,0.16643107,0.54324627,-0.25651273,-0.00051441975,-0.00214614,0.0119812945,0.005405449,0.0033647085,-0.0034989999,-5.9408743e-05,-0.85800844,-0.938462,-0.08729409,3.071754,0.0,0.1,-0.0119812945,0.0051223515,0.0035186189,0.025648735,0.017004425,inf,inf,inf,inf,1,1,1,1,2,1,2,3,0,0,0
55496298,0,0.0,0.0,0.16469786,0.5442537,-0.034860928,0.16643107,0.54324627,-0.25651273,0.003712445,-0.00012795391,0.013461056,0.0066113314,0.0033647085,-0.0034989999,-5.9408743e-05,1.6380435,-0.007397066,0.2215258,3.0717309,0.0,0.1,-0.013461056,0.0052029416,0.0035703348,0.025899908,0.017153392,inf,inf,inf,inf,1,1,1,1,2,1,2,3,0,0,0
55592269,0,0.0,0.0,0.16459024,0.5442108,-0.034936648,0.16643107,0.54324627,-0.25651273,-0.0011037992,0.00036641653,0.014751759,0.007655889,0.0033647085,-0.0034989999,-5.9408743e-05,-0.63855726,-0.2761841,-0.24509713,3.071788,0.0,0.1,-0.014751759,0.005158182,0.0035408167,0.025820386,0.017108168,inf,inf,inf,inf,1,1,1,1,2,1,2,3,0,0,0
55696270,0,0.0,0.0,0.16443759,0.5440884,-0.03503429,0.16643107,0.54324627,-0.25651273,-0.001972748,0.0007864179,0.014703961,0.007393758,0.0033647085,-0.0034989999,-5.9408743e-05,-1.0033668,0.0012774313,0.59759057,3.0718665,0.0,0.1,-0.014703961,0.0052373414,0.0035923463,0.026001202,0.0172112,inf,inf,inf,inf,1,1,1,1,2,1,2,3,0,0,0
55800309,0,0.0,0.0,0.16423316,0.5439392,-0.0351244,0.16643107,0.54324627,-0.25651273,0.00053877174,0.0010490095,0.012974042,0.0055140387,0.0033647085,-0.0034989999,-5.9408743e-05,0.39918497,0.7182577,0.56383085,3.0717607,0.0,0.1,-0.012974042,0.0052895835,0.0036267536,0.026109066,0.017277217,inf,inf,inf,inf,1,1,1,1,2,1,2,3,0,0,0
55896268,0,0.0,0.0,0.16408329,0.54381156,-0.03519441,0.16643107,0.54324627,-0.25651273,6.9505906e-05,-4.940674e-06,0.013053801,0.005509185,0.0033647085,-0.0034989999,-5.9408743e-05,-0.1991934,0.50660646,0.32618776,3.0716922,0.0,0.1,-0.013053801,0.005508114,0.0037692953,0.026583888,0.017556014,inf,inf,inf,inf,1,1,1,1,2,1,2,3,0,0,0
56000294,0,0.0,0.0,0.16390166,0.54369444,-0.035304166,0.16643107,0.54324627,-0.25651273,-0.0005379736,-0.0009861457,0.012956065,0.0053070346,0.0033647085,-0.0034989999,-5.9408743e-05,-0.288407,-0.016952781,0.26127657,3.0717485,0.0,0.1,-0.012956065,0.0055177435,0.0037754546,0.026634727,0.017590148,inf,inf,inf,inf,1,1,1,1,2,1,2,3,0,0,0
56104308,0,0.0,0.0,0.1637246,0.5435928,-0.035365827,0.16643107,0.54324627,-0.25651273,-0.0056380173,0.0003450433,0.015335511,0.0075927996,0.0033647085,-0.0034989999,-5.9408743e-05,-2.8318348,0.1265332,0.6039024,3.0717306,0.0,0.1,-0.015335511,0.00516493,0.0035472936,0.025796115,0.01709464,inf,inf,inf,inf,1,1,1,1,2,1,2,3,0,0,0
56207469,0,0.0,0.0,0.16362116,0.54357755,-0.035460137,0.16643107,0.54324627,-0.25651273,0.00044485737,0.0015778398,0.010332374,0.002517476,0.0033647085,-0.0034989999,-5.9408743e-05,-0.07137475,0.85713005,-0.32577038,3.0717754,0.0,0.1,-0.010332374,0.0052371183,0.003592757,0.026034225,0.017232386,inf,inf,inf,inf,1,1,1,1,2,1,2,3,0,0,0
56304327,0,0.0,0.0,0.16360396,0.54363275,-0.03557058,0.16643107,0.54324627,-0.25651273,0.0035896893,-0.0001251431,0.01018697,0.0023415475,0.0033647085,-0.0034989999,-5.9408743e-05,0.4206583,0.08374294,-0.022457207,3.0718186,0.0,0.1,-0.01018697,0.0051743626,0.0035518182,0.025877127,0.017143777,inf,inf,inf,inf,1,1,1,1,2,1,2,3,0,0,0
56407475,0,0.0,0.0,0.16370928,0.54375863,-0.03576366,0.16643107,0.54324627,-0.25651273,0.0012120627,-0.0009802763,0.010621895,0.0027543753,0.0033647085,-0.0034989999,-5.9408743e-05,-0.78721124,0.044060923,-0.17042516,3.0716977,0.0,0.1,-0.010621895,0.005275902,0.0036174736,0.026217686,0.017359467,inf,inf,inf,inf,1,1,1,1,2,1,2,3,0,0,0
56511469,0,0.0,0.0,0.16381525,0.54394037,-0.035947427,0.16643107,0.54324627,-0.25651273,-8.5878906e-05,-0.0018279796,0.0086764125,0.000792866,0.0033647085,-0.0034989999,-5.9408743e-05,-1.1053501,-1.0161278,-0.35319567,3.071797,0.0,0.1,-0.0086764125,0.005295418,0.0036305126,0.026153807,0.017306313,inf,inf,inf,inf,1,1,1,1,2,1,2,3,0,0,0
56607512,0,0.0,0.0,0.16382402,0.5440525,-0.0360639,0.16643107,0.54324627,-0.25651273,-0.0019120978,0.0021263014,0.010877205,0.0029945553,0.0033647085,-0.0034989999,-5.9408743e-05,-1.1756095,0.30504498,-0.0412425,3.071745,0.0,0.1,-0.010877205,0.0052170833,0.0035801043,0.025950091,0.017189609,inf,inf,inf,inf,1,1,1,1,2,1,2,3,0,0,0
56711476,0,0.0,0.0,0.16369365,0.54410726,-0.036187105,0.16643107,0.54324627,-0.25651273,0.0012606598,0.0004608257,0.011875346,0.004037167,0.0033647085,-0.0034989999,-5.9408743e-05,1.5388525,0.00266284,0.037536114,3.071791,0.0,0.1,-0.011875346,0.0052989116,0.003632442,0.02618485,0.01732755,inf,inf,inf,inf,1,1,1,1,2,1,2,3,0,0,0
56815496,0,0.0,0.0,0.16342044,0.54415524,-0.036257062,0.16643107,0.54324627,-0.25651273,0.0006365538,0.0012755421,0.010341858,0.0025846828,0.0033647085,-0.0034989999,-5.9408743e-05,0.3895705,-0.89835215,-0.520844,3.0717087,0.0,0.1,-0.010341858,0.005346026,0.0036639688,0.026237084,0.017361846,inf,inf,inf,inf,1,1,1,1,2,1,2,3,0,0,0
56911495,0,0.0,0.0,0.16311222,0.5441643,-0.03628453,0.16643107,0.54324627,-0.25651273,-0.0037768236,0.0014601611,0.011752603,0.00406562,0.0033647085,-0.0034989999,-5.9408743e-05,0.06564114,-0.20127654,0.44816843,3.071852,0.0,0.1,-0.011752603,0.0056218384,0.0038423385,0.026878858,0.017731449,inf,inf,inf,inf,1,1,1,1,2,1,2,3,0,0,0
57015475,0,0.0,0.0,0.16281313,0.54419315,-0.036159065,0.16643107,0.54324627,-0.25651273,0.0012700865,0.0042313477,0.013824413,0.006216228,0.0033647085,-0.0034989999,-5.9408743e-05,1.2779068,0.75723773,0.07391479,3.0717268,0.0,0.1,-0.013824413,0.00549467,0.0037640447,0.026437486,0.01748096,inf,inf,inf,inf,1,1,1,1,2,1,2,3,0,0,0
57119485,0,0.0,0.0,0.16258034,0.544155,-0.03608096,0.16643107,0.54324627,-0.25651273,0.00048064443,-0.0005310481,0.012886853,0.0053223395,0.0033647085,-0.0034989999,-5.9408743e-05,0.9735902,-0.47195357,0.34964332,3.0718353,0.0,0.1,-0.012886853,0.0051139914,0.0035162624,0.025609162,0.016991714,inf,inf,inf,inf,1,1,1,1,2,1,2,3,0,0,0
57215473,0,0.0,0.0,0.16240598,0.5441431,-0.03599537,0.16643107,0.54324627,-0.25651273,-0.0040478515,0.0021331192,0.014447618,0.0068822484,0.0033647085,-0.0034989999,-5.9408743e-05,0.45965746,0.5065511,0.22398235,3.0718853,0.0,0.1,-0.014447618,0.0051292474,0.0035216038,0.025884518,0.0171518,inf,inf,inf,inf,1,1,1,1,2,1,2,3,0,0,0
57319475,0,0.0,0.0,0.16233397,0.54404175,-0.03591288,0.16643107,0.54324627,-0.25651273,-0.0011372875,0.005026388,0.014752277,0.00718384,0.0033647085,-0.0034989999,-5.9408743e-05,1.234132,1.1991833,0.7589731,3.071849,0.0,0.1,-0.014752277,0.0053188754,0.0036418813,0.026419105,0.01746863,inf,inf,inf,inf,1,1,1,1,2,1,2,3,0,0,0
57423469,0,0.0,0.0,0.16221349,0.5439021,-0.035807602,0.16643107,0.54324627,-0.25651273,-0.0034088271,0.0013248106,0.013205279,0.005630168,0.0033647085,-0.0034989999,-5.9408743e-05,-0.05151745,-0.22493781,0.22396718,3.0718095,0.0,0.1,-0.013205279,0.0050944462,0.003498467,0.0257183,0.01705519,inf,inf,inf,inf,1,1,1,1,2,1,2,3,0,0,0
57526669,0,0.0,0.0,0.1618936,0.543722,-0.035710927,0.16643107,0.54324627,-0.25651273,-0.003504123,0.0001183561,0.013956185,0.0063543594,0.0033647085,-0.0034989999,-5.9408743e-05,-0.07778979,0.19508946,0.07580706,3.0718598,0.0,0.1,-0.013956185,0.0051841256,0.0035580054,0.025859995,0.017137565,inf,inf,inf,inf,1,1,1,1,2,1,2,3,0,0,0
57622675,0,0.0,0.0,0.16159257,0.54369146,-0.03569436,0.16643107,0.54324627,-0.25651273,-0.0028199288,0.00044424977,0.013469345,0.0058186864,0.0033647085,-0.0034989999,-5.9408743e-05,0.7350061,-0.5100093,0.3680538,3.0719097,0.0,0.1,-0.013469345,0.005107836,0.003509441,0.025609268,0.016995765,inf,inf,inf,inf,1,1,1,1,2,1,2,3,0,0,0
57726670,0,0.0,0.0,0.16137132,0.54359955,-0.035568036,0.16643107,0.54324627,-0.25651273,0.0012602767,-0.0019145764,0.0122823315,0.004580369,0.0033647085,-0.0034989999,-5.9408743e-05,0.8116649,-0.82519525,-0.35761318,3.072072,0.0,0.1,-0.0122823315,0.0051504825,0.0035381252,0.025702544,0.01705176,inf,inf,inf,inf,1,1,1,1,2,1,2,3,0,0,0
57830700,0,0.0,0.0,0.16125783,0.5435293,-0.035406366,0.16643107,0.54324627,-0.25651273,-0.0044644126,-0.0009291965,0.015089593,0.0073349737,0.0033647085,-0.0034989999,-5.9408743e-05,-0.94934386,-0.02992122,-0.2240069,3.0718982,0.0,0.1,-0.015089593,0.0052334797,0.003590782,0.026004039,0.017228106,inf,inf,inf,inf,1,1,1,1,2,1,2,3,0,0,0
57926705,0,0.0,0.0,0.16133127,0.5434917,-0.03520885,0.16643107,0.54324627,-0.25651273,-0.00046772565,-0.0008340729,0.01501275,0.007210582,0.0033647085,-0.0034989999,-5.9408743e-05,0.86347103,-0.83607745,0.13265367,3.0720575,0.0,0.1,-0.01501275,0.0051739467,0.0035520259,0.02586692,0.017147036,inf,inf,inf,inf,1,1,1,1,2,1,2,3,0,0,0
58030668,0,0.0,0.0,0.1615264,0.54334384,-0.034986567,0.16643107,0.54324627,-0.25651273,0.00036293408,-0.0010050514,0.017308395,0.009460771,0.0033647085,-0.0034989999,-5.9408743e-05,0.16159433,-0.5479311,0.42979637,3.0718062,0.0,0.1,-0.017308395,0.0052630464,0.0036095546,0.026094772,0.017279956,inf,inf,inf,inf,1,1,1,1,2,1,2,3,0,0,0
58134721,0,0.0,0.0,0.16178225,0.54324865,-0.03483988,0.16643107,0.54324627,-0.25651273,-0.0012777542,-0.0049668252,0.013426214,0.005485701,0.0033647085,-0.0034989999,-5.9408743e-05,-0.7052786,-0.45544642,-0.29284415,3.071781,0.0,0.1,-0.013426214,0.0053505413,0.003666296,0.026294883,0.01739731,inf,inf,inf,inf,1,1,1,1,2,1,2,3,0,0,0
58230699,0,0.0,0.0,0.16205299,0.54324245,-0.034782194,0.16643107,0.54324627,-0.25651273,0.0019284387,-0.0040419935,0.0151722515,0.007111846,0.0033647085,-0.0034989999,-5.9408743e-05,0.7963773,-1.935608,0.029288258,3.0721056,0.0,0.1,-0.0151722515,0.00530687,0.0036376233,0.026212668,0.017345537,inf,inf,inf,inf,1,1,1,1,2,1,2,3,0,0,0
58334668,0,0.0,0.0,0.16222951,0.5430974,-0.034765672,0.16643107,0.54324627,-0.25651273,-0.00013044821,-0.0017059797,0.014045039,0.0058542015,0.0033647085,-0.0034989999,-5.9408743e-05,-0.6079181,0.18405613,-0.2587527,3.0718248,0.0,0.1,-0.014045039,0.005356331,0.0036707367,0.0262749,0.017387703,inf,inf,inf,inf,1,1,1,1,2,1,2,3,0,0,0
58438681,0,0.0,0.0,0.16237226,0.5430034,-0.034870345,0.16643107,0.54324627,-0.25651273,-0.0014228617,-0.0011795491,0.01054628,0.0022024056,0.0033647085,-0.0034989999,-5.9408743e-05,0.5688978,1.1893569,-0.7062997,3.0718558,0.0,0.1,-0.01054628,0.00504019,0.0034665447,0.025471559,0.016916059,inf,inf,inf,inf,1,1,1,1,2,1,2,3,0,0,0
58534675,0,0.0,0.0,0.1624597,0.5429265,-0.03501835,0.16643107,0.54324627,-0.25651273,0.0014271835,-0.0032978724,0.0133486865,0.0048826695,0.0033647085,-0.0034989999,-5.9408743e-05,0.15747313,0.3645449,-0.12655894,3.071926,0.0,0.1,-0.0133486865,0.005357294,0.0036703255,0.026360173,0.017437479,inf,inf,inf,inf,1,1,1,1,2,1,2,3,0,0,0
58637883,0,0.0,0.0,0.1625559,0.54279387,-0.035199057,0.16643107,0.54324627,-0.25651273,-0.0007957364,-0.0018145544,0.01060003,0.0020537295,0.0033647085,-0.0034989999,-5.9408743e-05,-0.5792412,0.23916978,-0.25496092,3.0717328,0.0,0.1,-0.01060003,0.0054312637,0.0037184176,0.0265158,0.01752834,inf,inf,inf,inf,1,1,1,1,2,1,2,3,0,0,0
58741894,0,0.0,0.0,0.16252606,0.5428091,-0.03540282,0.16643107,0.54324627,-0.25651273,-0.0024475746,0.0010473739,0.01196484,0.0033651004,0.0033647085,-0.0034989999,-5.9408743e-05,-0.97420233,-0.21895057,0.5986658,3.0718534,0.0,0.1,-0.01196484,0.0051213778,0.0035191618,0.025676226,0.017035952,inf,inf,inf,inf,1,1,1,1,2,1,2,3,0,0,0
58845868,0,0.0,0.0,0.16248459,0.542995,-0.035603024,0.16643107,0.54324627,-0.25651273,0.0015444715,0.0024139516,0.014057381,0.0054496937,0.0033647085,-0.0034989999,-5.9408743e-05,1.6273749,-0.05334152,0.53107375,3.0717247,0.0,0.1,-0.014057381,0.0055174036,0.003776025,0.026629664,0.017598182,inf,inf,inf,inf,1,1,1,1,2,1,2,3,0,0,0
58941894,0,0.0,0.0,0.16250685,0.5431755,-0.03587617,0.16643107,0.54324627,-0.25651273,-0.0020464512,0.001844887,0.011645594,0.0030457205,0.0033647085,-0.0034989999,-5.9408743e-05,-0.7790258,0.4803698,0.26507565,3.0718615,0.0,0.1,-0.011645594,0.0053309924,0.003656616,0.026137216,0.017305281,inf,inf,inf,inf,1,1,1,1,2,1,2,3,0,0,0
59045868,0,0.0,0.0,0.16249429,0.54339856,-0.03619955,0.16643107,0.54324627,-0.25651273,-0.003198435,0.004628506,0.010451408,0.0018962239,0.0033647085,-0.0034989999,-5.9408743e-05,-0.5025821,0.33666322,0.47233692,3.071837,0.0,0.1,-0.010451408,0.005354266,0.0036709546,0.026242876,0.017367285,inf,inf,inf,inf,1,1,1,1,2,1,2,3,0,0,0
59149868,0,0.0,0.0,0.16249809,0.5435983,-0.036438867,0.16643107,0.54324627,-0.25651273,0.002289639,0.0004005735,0.011304078,0.0028369154,0.0033647085,-0.0034989999,-5.9408743e-05,1.6108997,-0.916571,-0.17281114,3.07189,0.0,0.1,-0.011304078,0.0050660945,0.0034828996,0.025603736,0.016992217,inf,inf,inf,inf,1,1,1,1,2,1,2,3,0,0,0
59245917,0,0.0,0.0,0.16247846,0.5437519,-0.036702547,0.16643107,0.54324627,-0.25651273,-0.0025719646,0.0009694066,0.010716549,0.0023721699,0.0033647085,-0.0034989999,-5.9408743e-05,-0.7044945,-1.4294295,-0.09786716,3.071821,0.0,0.1,-0.010716549,0.0053710276,0.0036795111,0.026390087,0.0174575,inf,inf,inf,inf,1,1,1,1,2,1,2,3,0,0,0
59349876,0,0.0,0.0,0.16250566,0.54386914,-0.036926877,0.16643107,0.54324627,-0.25651273,0.0034093016,-0.0017614109,0.0074051996,-0.0007901563,0.0033647085,-0.0034989999,-5.9408743e-05,1.1126425,-1.1583302,-0.54683733,3.0716958,0.0,0.1,-0.0074051996,0.005472094,0.0037442276,0.026648603,0.017606862,inf,inf,inf,inf,1,1,1,1,2,1,2,3,0,0,0
59453881,0,0.0,0.0,0.16259055,0.54398483,-0.037150376,0.16643107,0.54324627,-0.25651273,0.0030262296,0.0024876234,0.007834979,-0.00019456905,0.0033647085,-0.0034989999,-5.9408743e-05,0.37751123,0.4652988,0.2914694,3.071637,0.0,0.1,-0.007834979,0.005144283,0.0035338842,0.02575558,0.017087527,inf,inf,inf,inf,1,1,1,1,2,1,2,3,0,0,0
59549869,0,0.0,0.0,0.16261299,0.5440268,-0.037360776,0.16643107,0.54324627,-0.25651273,0.002972116,0.0060429154,0.0048344894,-0.0030280864,0.0033647085,-0.0034989999,-5.9408743e-05,0.91916656,1.7686014,-0.40018818,3.0716655,0.0,0.1,-0.0048344894,0.0054517486,0.0037317905,0.026571821,0.01756802,inf,inf,inf,inf,1,1,1,1,2,1,2,3,0,0,0
59653869,0,0.0,0.0,0.16263035,0.54403263,-0.03756892,0.16643107,0.54324627,-0.25651273,0.0030516123,0.0008445963,0.009750859,0.0020811707,0.0033647085,-0.0034989999,-5.9408743e-05,1.2584298,0.22617848,0.6626199,3.071681,0.0,0.100059025,-0.009750859,0.0051308963,0.0035255754,0.02570396,0.017055556,inf,inf,inf,inf,1,1,1,1,2,1,2,3,0,0,0
59757888,0,0.0,0.0,0.16261803,0.54403996,-0.037700597,0.16643107,0.54324627,-0.25651273,-0.00012649037,-0.001648465,0.008000051,0.0005529893,0.0033647085,-0.0034989999,-5.9408743e-05,-0.43130195,-1.6360849,-0.59998095,3.0718837,0.0,0.1001907,-0.008000051,0.0052042995,0.0035729925,0.025900882,0.017171975,inf,inf,inf,inf,1,1,1,1,2,1,2,3,0,0,0
59861069,0,0.0,0.0,0.16265123,0.5439205,-0.037816025,0.16643107,0.54324627,-0.25651273,-0.00061490026,-0.00082969194,0.0048560114,-0.0023636213,0.0033647085,-0.0034989999,-5.9408743e-05,-1.4578295,0.80893016,-0.26478103,3.0716996,0.0,0.10030613,-0.0048560114,0.0052685197,0.0036148939,0.026045047,0.017253436,inf,inf,inf,inf,1,1,1,1,2,1,2,3,0,0,0
59957069,0,0.0,0.0,0.16276634,0.5436571,-0.03793969,0.16643107,0.54324627,-0.25651273,0.002316881,-0.008385097,0.005623132,-0.0013924963,0.0033647085,-0.0034989999,-5.9408743e-05,-0.15624216,-2.00927,0.03947437,3.071511,0.0,0.100429796,-0.005623132,0.005496709,0.0037634827,0.026568338,0.017569527,inf,inf,inf,inf,1,1,1,1,2,1,2,3,0,0,0
60061083,0,0.0,0.0,0.16294622,0.54341495,-0.03815317,0.16643107,0.54324627,-0.25651273,0.0016312513,0.0037444427,0.006160139,-0.0006610818,0.0033647085,-0.0034989999,-5.9408743e-05,-1.3986659,0.2378238,0.7519022,3.0715196,0.0,0.10064328,-0.006160139,0.005468716,0.003746191,0.026476257,0.017509494,inf,inf,inf,inf,1,1,1,1,2,1,2,3,0,0,0
60165101,0,0.0,0.0,0.16314825,0.5433496,-0.038348015,0.16643107,0.54324627,-0.25651273,0.0010016428,0.0006428126,0.008002426,0.0013666545,0.0033647085,-0.0034989999,-5.9408743e-05,-0.50535303,0.033750605,0.1280524,3.0716097,0.0,0.100838125,-0.008002426,0.0051793642,0.0035566655,0.025922928,0.017186798,inf,inf,inf,inf,1,1,1,1,2,1,2,3,0,0,0
60261069,0,0.0,0.0,0.16328926,0.5433387,-0.038443685,0.16643107,0.54324627,-0.25651273,0.003024716,0.00097043725,0.010141186,0.0037201294,0.0033647085,-0.0034989999,-5.9408743e-05,-0.42986545,-0.50335217,0.21228653,3.0716214,0.0,0.10093379,-0.010141186,0.005119437,0.0035174745,0.025772925,0.017096011,inf,inf,inf,inf,1,1,1,1,2,1,2,3,0,0,0
60365069,0,0.0,0.0,0.16339195,0.54328895,-0.03835166,0.16643107,0.54324627,-0.25651273,0.0012543518,0.0003094352,0.006539154,0.00039403152,0.0033647085,-0.0034989999,-5.9408743e-05,-0.606301,0.076478735,-0.60028493,3.0716846,0.0,0.10084176,-0.006539154,0.0051905154,0.003563779,0.02591212,0.017181473,inf,inf,inf,inf,1,1,1,1,2,1,2,3,0,0,0
60469090,0,0.0,0.0,0.16343936,0.54331726,-0.038173355,0.16643107,0.54324627,-0.25651273,0.0007717674,0.0030890394,0.008024019,0.0021270139,0.0033647085,-0.0034989999,-5.9408743e-05,-0.3863204,0.61400276,-0.45254028,3.0718555,0.0,0.10066346,-0.008024019,0.005240926,0.0035969026,0.026008705,0.01723721,inf,inf,inf,inf,1,1,1,1,2,1,2,3,0,0,0
60981089,0,0.0,0.0,0.16381931,0.54343736,-0.0369296,0.16643107,0.54324627,-0.25651273,0.0049904715,-0.0039864043,0.0067349495,0.0011771951,0.0033647085,-0.0034989999,-5.9408743e-05,0.95707697,-1.8893269,-0.99810433,3.0711071,0.0,0.1,-0.0067349495,0.005451845,0.0037318012,0.026587456,0.017573224,inf,inf,inf,inf,1,1,1,1,2,1,2,3,0,0,0
61084291,0,0.0,0.0,0.16369064,0.5434684,-0.03680121,0.16643107,0.54324627,-0.25651273,0.00604,0.0022479421,0.008256934,0.0026334685,0.0033647085,-0.0034989999,-5.9408743e-05,0.56661373,0.5255919,0.08941172,3.0712552,0.0,0.1,-0.008256934,0.0051638195,0.0035461632,0.02583654,0.017132815,inf,inf,inf,inf,1,1,1,1,2,1,2,3,0,0,0
61188269,0,0.0,0.0,0.16349974,0.5434848,-0.0367125,0.16643107,0.54324627,-0.25651273,0.002376628,2.0756588e-05,0.007895379,0.0021864343,0.0033647085,-0.0034989999,-5.9408743e-05,-0.2622075,-0.42286986,-0.67262626,3.071498,0.0,0.1,-0.007895379,0.005249073,0.0036011245,0.026069637,0.017271537,inf,inf,inf,inf,1,1,1,1,2,1,2,3,0,0,0
61284326,0,0.0,0.0,0.16330639,0.54349875,-0.036738496,0.16643107,0.54324627,-0.25651273,0.0017525485,-0.0018060285,0.0070219426,0.0012348724,0.0033647085,-0.0034989999,-5.9408743e-05,-1.0454242,-0.6752592,-1.2373314,3.0711672,0.0,0.1,-0.0070219426,0.005126586,0.0035229076,0.02564727,0.017019227,inf,inf,inf,inf,1,1,1,1,2,1,2,3,0,0,0
61388271,0,0.0,0.0,0.16312724,0.54356426,-0.036826283,0.16643107,0.54324627,-0.25651273,0.0017813925,0.0012151508,0.009226082,0.003365346,0.0033647085,-0.0034989999,-5.9408743e-05,-0.25046074,-1.0177773,0.26275414,3.07146,0.0,0.1,-0.009226082,0.0051932298,0.003566361,0.025848618,0.017139243,inf,inf,inf,inf,1,1,1,1,2,1,2,3,0,0,0
61492268,0,0.0,0.0,0.16291602,0.54357016,-0.036839988,0.16643107,0.54324627,-0.25651273,0.0030353363,7.81709e-05,0.009716649,0.0038109964,0.0033647085,-0.0034989999,-5.9408743e-05,0.69271165,-0.51027256,-0.5749543,3.0712848,0.0,0.1,-0.009716649,0.005199783,0.003571847,0.025806265,0.017119834,inf,inf,inf,inf,1,1,1,1,2,1,2,3,0,0,0
61596268,0,0.0,0.0,0.16281307,0.5435709,-0.036858216,0.16643107,0.54324627,-0.25651273,0.0045220847,0.0026315772,0.010424134,0.0044946214,0.0033647085,-0.0034989999,-5.9408743e-05,0.44571728,0.14830686,0.67567325,3.0713706,0.0,0.1,-0.010424134,0.0052484293,0.0036023736,0.026005618,0.017234946,inf,inf,inf,inf,1,1,1,1,2,1,2,3,0,0,0
61692269,0,0.0,0.0,0.16279365,0.54357445,-0.036880486,0.16643107,0.54324627,-0.25651273,0.0032025382,0.0003057328,0.008591029,0.0026503801,0.0033647085,-0.0034989999,-5.9408743e-05,-0.019117258,-1.1670656,0.3870174,3.0712557,0.0,0.1,-0.008591029,0.0051437076,0.003534692,0.025732588,0.017072208,inf,inf,inf,inf,1,1,1,1,2,1,2,3,0,0,0
61796281,0,0.0,0.0,0.16275428,0.54350173,-0.03694712,0.16643107,0.54324627,-0.25651273,0.003168865,-0.0041280994,0.0062290374,0.00026910612,0.0033647085,-0.0034989999,-5.9408743e-05,0.07787021,-1.088813,-0.43479562,3.0715077,0.0,0.1,-0.0062290374,0.0052148323,0.0035796738,0.025972748,0.01721281,inf,inf,inf,inf,1,1,1,1,2,1,2,3,0,0,0
61900313,0,0.0,0.0,0.16267696,0.5434074,-0.036973063,0.16643107,0.54324627,-0.25651273,0.0032568665,0.00419285,0.008350375,0.0023827767,0.0033647085,-0.0034989999,-5.9408743e-05,0.09203648,0.23449332,0.34371507,3.0713627,0.0,0.1,-0.008350375,0.0052954843,0.0036315583,0.026179438,0.017334143,inf,inf,inf,inf,1,1,1,1,2,1,2,3,0,0,0
61996269,0,0.0,0.0,0.16255556,0.5432453,-0.036897674,0.16643107,0.54324627,-0.25651273,0.0008614502,-0.0010058071,0.012835326,0.0068848673,0.0033647085,-0.0034989999,-5.9408743e-05,-0.5622081,0.028070085,0.23765542,3.071416,0.0,0.1,-0.012835326,0.0052128145,0.0035787392,0.025920179,0.017187499,inf,inf,inf,inf,1,1,1,1,2,1,2,3,0,0,0
62100269,0,0.0,0.0,0.16244523,0.5430926,-0.03682727,0.16643107,0.54324627,-0.25651273,-0.0014213108,-0.0016146222,0.008437908,0.0025179267,0.0033647085,-0.0034989999,-5.9408743e-05,-0.17375423,0.46107286,0.09851376,3.071438,0.0,0.1,-0.008437908,0.0056000664,0.003830137,0.026812708,0.01771267,inf,inf,inf,inf,1,1,1,1,2,1,2,3,0,0,0
62204301,0,0.0,0.0,0.16235612,0.5429248,-0.036686536,0.16643107,0.54324627,-0.25651273,0.00096756296,-0.0019831902,0.013867829,0.007960715,0.0033647085,-0.0034989999,-5.9408743e-05,-0.20075575,-0.6737034,1.1662112,3.0715597,0.0,0.1,-0.013867829,0.0055770534,0.003816204,0.02674905,0.017669644,inf,inf,inf,inf,1,1,1,1,2,1,2,3,0,0,0
62306706,0,0.0,0.0,0.16217087,0.5427075,-0.03669729,0.16643107,0.54324627,-0.25651273,0.0015728134,-0.0011810752,0.007961935,0.002011895,0.0033647085,-0.0034989999,-5.9408743e-05,0.06646465,-0.101107,0.6515541,3.0713842,0.0,0.1,-0.007961935,0.0052168355,0.0035824636,0.025939757,0.017201614,inf,inf,inf,inf,1,1,1,1,2,1,2,3,0,0,0
62404337,0,0.0,0.0,0.16192122,0.54269946,-0.036713626,0.16643107,0.54324627,-0.25651273,0.00054107304,0.0016214843,0.013372078,0.0073767854,0.0033647085,-0.0034989999,-5.9408743e-05,0.32560658,-0.3895118,1.0411149,3.0713518,0.0,0.1,-0.013372078,0.00514745,0.0035363804,0.025823383,0.017127402,inf,inf,inf,inf,1,1,1,1,2,1,2,3,0,0,0
62507469,0,0.0,0.0,0.16155444,0.5429567,-0.036740504,0.16643107,0.54324627,-0.25651273,-0.004994534,0.0030225867,0.010464299,0.0044230567,0.0033647085,-0.0034989999,-5.9408743e-05,-0.82355684,0.42282736,-0.42181614,3.0712104,0.0,0.1,-0.010464299,0.0051956647,0.0035675657,0.02590437,0.017179964,inf,inf,inf,inf,1,1,1,1,2,1,2,3,0,0,0
62611497,0,0.0,0.0,0.1611102,0.5432214,-0.036804132,0.16643107,0.54324627,-0.25651273,-0.0028300385,0.00073290244,0.009233653,0.003167536,0.0033647085,-0.0034989999,-5.9408743e-05,-0.3562737,-1.1616498,0.72851247,3.0712368,0.0,0.1,-0.009233653,0.0052853087,0.0036250239,0.026166257,0.01733256,inf,inf,inf,inf,1,1,1,1,2,1,2,3,0,0,0
62707469,0,0.0,0.0,0.16075325,0.5435123,-0.036799446,0.16643107,0.54324627,-0.25651273,-0.0042074476,0.0009938247,0.013367992,0.0073015527,0.0033647085,-0.0034989999,-5.9408743e-05,-0.06520776,-0.99610615,0.23075444,3.071389,0.0,0.1,-0.013367992,0.0052094143,0.0035766973,0.025925543,0.01718708,inf,inf,inf,inf,1,1,1,1,2,1,2,3,0,0,0
62811497,0,0.0,0.0,0.16048568,0.54368234,-0.036818992,0.16643107,0.54324627,-0.25651273,0.0027439015,0.004222397,0.0077661313,0.0017058324,0.0033647085,-0.0034989999,-5.9408743e-05,1.4383408,0.606972,0.7163395,3.0713503,0.0,0.1,-0.0077661313,0.005256978,0.0036083148,0.025999432,0.017236907,inf,inf,inf,inf,1,1,1,1,2,1,2,3,0,0,0
62915475,0,0.0,0.0,0.16035047,0.5437912,-0.036786944,0.16643107,0.54324627,-0.25651273,-0.0059379186,-0.0010577342,0.010223537,0.004176643,0.0033647085,-0.0034989999,-5.9408743e-05,-0.6781871,-0.42494044,-0.6566559,3.0709214,0.0,0.1,-0.010223537,0.005309543,0.0036422305,0.026150543,0.017325398,inf,inf,inf,inf,1,1,1,1,2,1,2,3,0,0,0
63011468,0,0.0,0.0,0.1603061,0.543839,-0.036777165,0.16643107,0.54324627,-0.25651273,-0.0024789136,0.0027801548,0.008171956,0.0021265207,0.0033647085,-0.0034989999,-5.9408743e-05,-0.13509266,1.0821435,-0.2340799,3.0711195,0.0,0.1,-0.008171956,0.0052668736,0.0036133444,0.026103338,0.017302891,inf,inf,inf,inf,1,1,1,1,2,1,2,3,0,0,0
63115471,0,0.0,0.0,0.1603032,0.5437232,-0.03669803,0.16643107,0.54324627,-0.25651273,-0.0040483978,-0.00066801265,0.013862279,0.00781734,0.0033647085,-0.0034989999,-5.9408743e-05,-0.9437256,-0.7397838,0.73028,3.0709887,0.0,0.1,-0.013862279,0.005355357,0.003670402,0.026330605,0.017423058,inf,inf,inf,inf,1,1,1,1,2,1,2,3,0,0,0
63219475,0,0.0,0.0,0.16037476,0.54359347,-0.036612593,0.16643107,0.54324627,-0.25651273,0.00090428925,0.0016850103,0.010892277,0.0048394534,0.0033647085,-0.0034989999,-5.9408743e-05,0.06684165,0.41221097,0.445783,3.0710354,0.0,0.1,-0.010892277,0.005068446,0.003485084,0.025568249,0.016985225,inf,inf,inf,inf,1,1,1,1,2,1,2,3,0,0,0
63323506,0,0.0,0.0,0.16060987,0.54337144,-0.0365339,0.16643107,0.54324627,-0.25651273,-0.0034442907,0.0027733753,0.01029259,0.004230372,0.0033647085,-0.0034989999,-5.9408743e-05,-0.91386795,2.0590339,-0.16901156,3.070995,0.0,0.1,-0.01029259,0.0054932307,0.0037599758,0.02663475,0.017608661,inf,inf,inf,inf,1,1,1,1,2,1,2,3,0,0,0
63419469,0,0.0,0.0,0.16084379,0.5432105,-0.03656216,0.16643107,0.54324627,-0.25651273,0.0033404166,0.0074009066,0.009869133,0.0037757077,0.0033647085,-0.0034989999,-5.9408743e-05,0.48872155,1.5083919,0.345677,3.0712137,0.0,0.1,-0.009869133,0.005402429,0.0037015467,0.02641,0.017479952,inf,inf,inf,inf,1,1,1,1,2,1,2,3,0,0,0
63522675,0,0.0,0.0,0.16109061,0.543068,-0.036589216,0.16643107,0.54324627,-0.25651273,-0.00074446417,0.00025292215,0.0044347667,-0.001703085,0.0033647085,-0.0034989999,-5.9408743e-05,-0.12541117,0.03343286,-1.6661841,3.0714295,0.0,0.1,-0.0044347667,0.0051434934,0.0035331594,0.025804855,0.017116396,inf,inf,inf,inf,1,1,1,1,2,1,2,3,0,0,0
63626715,0,0.0,0.0,0.16134936,0.5429766,-0.03660831,0.16643107,0.54324627,-0.25651273,0.0045698164,-0.0017776308,0.012410898,0.006244342,0.0033647085,-0.0034989999,-5.9408743e-05,1.0441962,-0.0677279,0.553543,3.0713897,0.0,0.1,-0.012410898,0.0051832623,0.0035601752,0.025799982,0.017110439,inf,inf,inf,inf,1,1,1,1,2,1,2,3,0,0,0
63722669,0,0.0,0.0,0.16150612,0.54271024,-0.03660811,0.16643107,0.54324627,-0.25651273,-3.351137e-05,-0.0038130353,0.009375994,0.0031876308,0.0033647085,-0.0034989999,-5.9408743e-05,0.010256556,0.13607737,-0.028771574,3.0713594,0.0,0.1,-0.009375994,0.0050874054,0.0034981885,0.025562176,0.016972316,inf,inf,inf,inf,1,1,1,1,2,1,2,3,0,0,0
63826676,0,0.0,0.0,0.16149393,0.54246855,-0.03663389,0.16643107,0.54324627,-0.25651273,-0.0003474586,0.0003200231,0.013720489,0.007512799,0.0033647085,-0.0034989999,-5.9408743e-05,-0.5054657,1.1480633,0.548706,3.071278,0.0,0.1,-0.013720489,0.0052042585,0.003572229,0.025971703,0.017218413,inf,inf,inf,inf,1,1,1,1,2,1,2,3,0,0,0
63930669,0,0.0,0.0,0.161347,0.5422127,-0.036666296,0.16643107,0.54324627,-0.25651273,0.0005201426,-0.003378315,0.0075969514,0.0014043088,0.0033647085,-0.0034989999,-5.9408743e-05,0.7371051,-0.6791974,0.54201007,3.071117,0.0,0.1,-0.0075969514,0.0052664415,0.0036130485,0.026095068,0.017294735,inf,inf,inf,inf,1,1,1,1,2,1,2,3,0,0,0
64026678,0,0.0,0.0,0.16115373,0.5420766,-0.036704697,0.16643107,0.54324627,-0.25651273,-0.0012963156,-0.0031451203,0.009065068,0.0028771807,0.0033647085,-0.0034989999,-5.9408743e-05,0.27725628,-1.3642052,-0.13394687,3.0709593,0.0,0.1,-0.009065068,0.0051876693,0.0035627284,0.025870806,0.017158678,inf,inf,inf,inf,1,1,1,1,2,1,2,3,0,0,0
64130718,0,0.0,0.0,0.16091214,0.54198676,-0.036786318,0.16643107,0.54324627,-0.25651273,-0.000114904644,0.0018890103,0.011226401,0.005048199,0.0033647085,-0.0034989999,-5.9408743e-05,0.31619304,0.49859598,0.826608,3.071073,0.0,0.1,-0.011226401,0.0052653146,0.0036130662,0.026059968,0.01727502,inf,inf,inf,inf,1,1,1,1,2,1,2,3,0,0,0
64234668,0,0.0,0.0,0.16070472,0.54197854,-0.036841437,0.16643107,0.54324627,-0.25651273,-0.0040058275,0.0009253233,0.0074928952,0.0013245626,0.0033647085,-0.0034989999,-5.9408743e-05,-0.17842048,0.49151194,-0.042841446,3.0709822,0.0,0.1,-0.0074928952,0.005008848,0.0034460963,0.025450949,0.0169155,inf,inf,inf,inf,1,1,1,1,2,1,2,3,0,0,0
64330668,0,0.0,0.0,0.16055764,0.54211074,-0.03688863,0.16643107,0.54324627,-0.25651273,-0.0034570403,-0.0020515632,0.01125239,0.0051079164,0.0033647085,-0.0034989999,-5.9408743e-05,-0.64504594,-1.0662553,0.19385596,3.0710444,0.0,0.1,-0.01125239,0.0050461823,0.0034681754,0.025656763,0.017035356,inf,inf,inf,inf,1,1,1,1,2,1,2,3,0,0,0
64434675,0,0.0,0.0,0.16042219,0.5422286,-0.036966514,0.16643107,0.54324627,-0.25651273,0.002110715,0.0011932882,0.008403276,0.0022949227,0.0033647085,-0.0034989999,-5.9408743e-05,1.4251714,-0.76905245,0.57268536,3.0711117,0.0,0.1,-0.008403276,0.0051659704,0.0035468552,0.025870834,0.017161705,inf,inf,inf,inf,1,1,1,1,2,1,2,3,0,0,0
64538669,0,0.0,0.0,0.16037206,0.5423912,-0.036989737,0.16643107,0.54324627,-0.25651273,0.0010195886,-0.00012407717,0.006582262,0.00051013986,0.0033647085,-0.0034989999,-5.9408743e-05,1.2202176,0.08608552,-0.048845954,3.0710998,0.0,0.1,-0.006582262,0.0052689794,0.0036140599,0.026114471,0.01730507,inf,inf,inf,inf,1,1,1,1,2,1,2,3,0,0,0
64641904,0,0.0,0.0,0.16036366,0.54257387,-0.036949415,0.16643107,0.54324627,-0.25651273,-0.0043716743,-0.0051614624,0.008264105,0.002249078,0.0033647085,-0.0034989999,-5.9408743e-05,-1.3043227,-1.8690894,-0.26296893,3.0709252,0.0,0.1,-0.008264105,0.005307408,0.003640811,0.026120795,0.01730852,inf,inf,inf,inf,1,1,1,1,2,1,2,3,0,0,0
64737875,0,0.0,0.0,0.1602418,0.5425531,-0.036944117,0.16643107,0.54324627,-0.25651273,-0.0007442352,0.00060991035,0.0071356082,0.0011556272,0.0033647085,-0.0034989999,-5.9408743e-05,0.83279437,-0.60388863,0.25232086,3.070898,0.0,0.1,-0.0071356082,0.005228746,0.0035901705,0.025916457,0.017193008,inf,inf,inf,inf,1,1,1,1,2,1,2,3,0,0,0
64841868,0,0.0,0.0,0.16009988,0.5426876,-0.036808778,0.16643107,0.54324627,-0.25651273,-0.0010955869,0.0023209401,0.0073412857,0.0013736363,0.0033647085,-0.0034989999,-5.9408743e-05,0.71173245,0.67701226,-0.5253204,3.0707777,0.0,0.1,-0.0073412857,0.005290833,0.003629797,0.02610713,0.017297192,inf,inf,inf,inf,1,1,1,1,2,1,2,3,0,0,0
64945869,0,0.0,0.0,0.16010824,0.54296327,-0.036678296,0.16643107,0.54324627,-0.25651273,-0.004872643,-0.001002913,0.00976878,0.003834258,0.0033647085,-0.0034989999,-5.9408743e-05,-0.71062964,-1.1544259,-0.3361888,3.0710528,0.0,0.1,-0.00976878,0.005345838,0.0036657357,0.026259402,0.017393852,inf,inf,inf,inf,1,1,1,1,2,1,2,3,0,0,0
65041896,0,0.0,0.0,0.16012138,0.5432568,-0.036623824,0.16643107,0.54324627,-0.25651273,-0.00045008457,0.0041781827,0.0089316815,0.0029919902,0.0033647085,-0.0034989999,-5.9408743e-05,0.34928554,-0.12836935,0.4216961,3.0708537,0.0,0.1,-0.0089316815,0.0052880114,0.0036274586,0.026174229,0.017345438,inf,inf,inf,inf,1,1,1,1,2,1,2,3,0,0,0
65145876,0,0.0,0.0,0.160179,0.54360145,-0.036632366,0.16643107,0.54324627,-0.25651273,0.0014714758,0.0048286812,0.0075674513,0.0016052179,0.0033647085,-0.0034989999,-5.9408743e-05,0.9478237,0.96734226,0.066787064,3.070902,0.0,0.1,-0.0075674513,0.005345479,0.0036652815,0.02627167,0.017396387,inf,inf,inf,inf,1,1,1,1,2,1,2,3,0,0,0
65249869,0,0.0,0.0,0.16027948,0.54394704,-0.03671931,0.16643107,0.54324627,-0.25651273,-0.00075199484,0.0015293536,0.0075841467,0.0015770915,0.0033647085,-0.0034989999,-5.9408743e-05,0.83585805,-0.078189574,-0.224905,3.0708268,0.0,0.1,-0.0075841467,0.0054219924,0.0037143333,0.026486604,0.017523302,inf,inf,inf,inf,1,1,1,1,2,1,2,3,0,0,0
65345876,0,0.0,0.0,0.16040243,0.54414797,-0.036813095,0.16643107,0.54324627,-0.25651273,-0.0014242152,0.006679444,0.010299069,0.004258372,0.0033647085,-0.0034989999,-5.9408743e-05,0.00074139243,0.6779865,0.70008546,3.0708873,0.0,0.1,-0.010299069,0.0053545465,0.0036705718,0.026314916,0.017429283,inf,inf,inf,inf,1,1,1,1,2,1,2,3,0,0,0
65449885,0,0.0,0.0,0.16056393,0.54427147,-0.036896665,0.16643107,0.54324627,-0.25651273,-0.0029552102,0.008320887,0.008840498,0.0027940688,0.0033647085,-0.0034989999,-5.9408743e-05,-1.1583172,1.4803756,0.17831142,3.070831,0.0,0.1,-0.008840498,0.0050835097,0.003494906,0.025630746,0.017020144,inf,inf,inf,inf,1,1,1,1,2,1,2,3,0,0,0
65553869,0,0.0,0.0,0.16070925,0.5442934,-0.036870472,0.16643107,0.54324627,-0.25651273,-0.00093281723,0.0020948846,0.009060821,0.003040278,0.0033647085,-0.0034989999,-5.9408743e-05,-0.50622356,-0.90065646,0.5343742,3.070896,0.0,0.1,-0.009060821,0.0051590665,0.0035441723,0.02580864,0.017121438,inf,inf,inf,inf,1,1,1,1,2,1,2,3,0,0,0
65657902,0,0.0,0.0,0.16080275,0.5441449,-0.03688322,0.16643107,0.54324627,-0.25651273,-6.2473173e-06,0.008376203,0.008163196,0.002174379,0.0033647085,-0.0034989999,-5.9408743e-05,-0.5510298,1.5405787,-0.07316606,3.0704608,0.0,0.1,-0.008163196,0.0052353065,0.0035939415,0.025977833,0.017227085,inf,inf,inf,inf,1,1,1,1,2,1,2,3,0,0,0
65753878,0,0.0,0.0,0.16088814,0.54407024,-0.036878504,0.16643107,0.54324627,-0.25651273,-0.0013909996,-7.1705756e-05,0.010744407,0.004780172,0.0033647085,-0.0034989999,-5.9408743e-05,-0.31318927,-0.798518,-0.40570417,3.070582,0.0,0.1,-0.010744407,0.005139477,0.00353253,0.025704287,0.01706687,inf,inf,inf,inf,1,1,1,1,2,1,2,3,0,0,0
65857068,0,0.0,0.0,0.1608987,0.54396015,-0.03692636,0.16643107,0.54324627,-0.25651273,-0.0023519732,0.0043554413,0.010974454,0.0050241323,0.0033647085,-0.0034989999,-5.9408743e-05,-0.74769235,-0.7679873,0.47256455,3.0706477,0.0,0.1,-0.010974454,0.0052432907,0.003598521,0.026047604,0.017271884,inf,inf,inf,inf,1,1,1,1,2,1,2,3,0,0,0
65961083,0,0.0,0.0,0.16101986,0.543916,-0.036948025,0.16643107,0.54324627,-0.25651273,0.0024444957,0.0030050427,0.011286497,0.005359128,0.0033647085,-0.0034989999,-5.9408743e-05,-0.36190507,-0.30966535,0.85293496,3.0705554,0.0,0.1,-0.011286497,0.005277028,0.0036216576,0.026062883,0.017278902,inf,inf,inf,inf,1,1,1,1,2,1,2,3,0,0,0
66057069,0,0.0,0.0,0.16121092,0.54401404,-0.037037414,0.16643107,0.54324627,-0.25651273,0.0040704394,0.0069798613,0.004391035,-0.0015142501,0.0033647085,-0.0034989999,-5.9408743e-05,0.5967421,1.105233,-0.5215937,3.0706956,0.0,0.1,-0.004391035,0.0051795985,0.0035583314,0.025823062,0.017127452,inf,inf,inf,inf,1,1,1,1,2,1,2,3,0,0,0
66161068,0,0.0,0.0,0.16146109,0.54406464,-0.03722782,0.16643107,0.54324627,-0.25651273,0.0062074033,0.0033595532,0.005946056,5.478009e-05,0.0033647085,-0.0034989999,-5.9408743e-05,1.3486409,-0.017158218,0.10817479,3.0707598,0.0,0.1,-0.005946056,0.0052849706,0.0036250479,0.026190717,0.0173467,inf,inf,inf,inf,1,1,1,1,2,1,2,3,0,0,0
66265104,0,0.0,0.0,0.16166604,0.54409814,-0.037360627,0.16643107,0.54324627,-0.25651273,0.0038874054,0.0017370037,0.006338141,0.0004831858,0.0033647085,-0.0034989999,-5.9408743e-05,0.6022885,-0.44976977,0.023185892,3.0706558,0.0,0.1,-0.006338141,0.005351618,0.0036685888,0.026328791,0.01743337,inf,inf,inf,inf,1,1,1,1,2,1,2,3,0,0,0
66361071,0,0.0,0.0,0.16177186,0.5441449,-0.037462804,0.16643107,0.54324627,-0.25651273,0.002146162,-0.00019374694,0.007848585,0.002050818,0.0033647085,-0.0034989999,-5.9408743e-05,0.15987001,-0.38701808,-0.34383172,3.0709267,0.0,0.1,-0.007848585,0.0052946736,0.0036313774,0.026199069,0.01736093,inf,inf,inf,inf,1,1,1,1,2,1,2,3,0,0,0
66465069,0,0.0,0.0,0.16170856,0.5439447,-0.037506282,0.16643107,0.54324627,-0.25651273,-0.0029738469,-0.0019154666,0.010192884,0.004488476,0.0033647085,-0.0034989999,-5.9408743e-05,-1.3843061,-1.0887479,0.17022242,3.0705495,0.0,0.1,-0.010192884,0.005390121,0.0036928575,0.026444336,0.017503915,inf,inf,inf,inf,1,1,1,1,2,1,2,3,0,0,0
66569069,0,0.0,0.0,0.16158064,0.5437414,-0.037353925,0.16643107,0.54324627,-0.25651273,-0.0007670156,-0.0030318429,0.012367239,0.006766892,0.0033647085,-0.0034989999,-5.9408743e-05,-0.8250839,-0.5913149,0.059017844,3.0704656,0.0,0.1,-0.012367239,0.005423999,0.0037166297,0.026423529,0.017494706,inf,inf,inf,inf,1,1,1,1,2,1,2,3,0,0,0
66665069,0,0.0,0.0,0.16138531,0.54343665,-0.037169475,0.16643107,0.54324627,-0.25651273,-0.00046767687,0.0042297044,0.008234465,0.002708775,0.0033647085,-0.0034989999,-5.9408743e-05,-1.3117868,-0.062747516,-0.08978612,3.0706708,0.0,0.1,-0.008234465,0.0053211846,0.0036502804,0.026190432,0.017349383,inf,inf,inf,inf,1,1,1,1,2,1,2,3,0,0,0
66769104,0,0.0,0.0,0.16105382,0.5430525,-0.036896557,0.16643107,0.54324627,-0.25651273,0.0007702015,0.003147971,0.008945344,0.003472526,0.0033647085,-0.0034989999,-5.9408743e-05,-0.36376613,0.6935725,0.18351938,3.070778,0.0,0.1,-0.008945344,0.005069333,0.0034859867,0.025616644,0.017015543,inf,inf,inf,inf,1,1,1,1,2,1,2,3,0,0,0
66873077,0,0.0,0.0,0.16068834,0.54271257,-0.036647465,0.16643107,0.54324627,-0.25651273,-0.000554676,-0.00082314305,0.010549803,0.005093358,0.0033647085,-0.0034989999,-5.9408743e-05,-0.73258084,0.09011882,0.35610932,3.0707374,0.0,0.1,-0.010549803,0.0051495787,0.0035383534,0.025782611,0.01711215,inf,inf,inf,inf,1,1,1,1,2,1,2,3,0,0,0
66977114,0,0.0,0.0,0.16032432,0.5424349,-0.036497355,0.16643107,0.54324627,-0.25651273,-0.0016621033,-0.0022062021,0.011532973,0.006028612,0.0033647085,-0.0034989999,-5.9408743e-05,-0.5699905,-0.7200571,0.3887,3.0708528,0.0,0.1,-0.011532973,0.005203939,0.0035742917,0.025889965,0.017176844,inf,inf,inf,inf,1,1,1,1,2,1,2,3,0,0,0
67079486,0,0.0,0.0,0.1599797,0.54223216,-0.03639812,0.16643107,0.54324627,-0.25651273,-0.0035510478,-0.00029972912,0.009969936,0.004376129,0.0033647085,-0.0034989999,-5.9408743e-05,-0.4719639,-0.33385915,0.3752068,3.0706556,0.0,0.1,-0.009969936,0.0052602277,0.0036106564,0.026051968,0.017273458,inf,inf,inf,inf,1,1,1,1,2,1,2,3,0,0,0
67176269,0,0.0,0.0,0.15967503,0.54207206,-0.036257394,0.16643107,0.54324627,-0.25651273,-0.002401351,0.00045979768,0.009518916,0.0038298375,0.0033647085,-0.0034989999,-5.9408743e-05,0.7831239,1.4744322,0.15829085,3.0707603,0.0,0.1,-0.009518916,0.0051987143,0.0035703864,0.025916548,0.017195482,inf,inf,inf,inf,1,1,1,1,2,1,2,3,0,0,0
67280287,0,0.0,0.0,0.15936157,0.5420862,-0.036131293,0.16643107,0.54324627,-0.25651273,-0.0047541205,0.0004955603,0.00890633,0.0031100183,0.0033647085,-0.0034989999,-5.9408743e-05,0.023765998,1.3416858,-0.5901381,3.070655,0.0,0.1,-0.00890633,0.005280766,0.0036233473,0.026147958,0.017338397,inf,inf,inf,inf,1,1,1,1,2,1,2,3,0,0,0
67384307,0,0.0,0.0,0.15909964,0.5419377,-0.036027577,0.16643107,0.54324627,-0.25651273,-0.001837646,0.0059309313,0.011151379,0.005235357,0.0033647085,-0.0034989999,-5.9408743e-05,0.34711888,1.593151,0.13217475,3.0705464,0.0,0.1,-0.011151379,0.005366148,0.0036781777,0.026353978,0.017452361,inf,inf,inf,inf,1,1,1,1,2,1,2,3,0,0,0
67488289,0,0.0,0.0,0.15895359,0.5419007,-0.036047935,0.16643107,0.54324627,-0.25651273,-0.0017492841,0.0030372061,0.010365009,0.004327368,0.0033647085,-0.0034989999,-5.9408743e-05,1.5367626,2.5854604,0.31428358,3.0706794,0.0,0.1,-0.010365009,0.005419508,0.0037133747,0.026470019,0.0175241,inf,inf,inf,inf,1,1,1,1,2,1,2,3,0,0,0
67584294,0,0.0,0.0,0.15891294,0.5419519,-0.036130454,0.16643107,0.54324627,-0.25651273,-0.003776471,-0.0025479079,0.010482128,0.004345364,0.0033647085,-0.0034989999,-5.9408743e-05,-0.020238651,-0.124786004,-0.029785361,3.070625,0.0,0.1,-0.010482128,0.0053564576,0.0036720727,0.02634436,0.017451113,inf,inf,inf,inf,1,1,1,1,2,1,2,3,0,0,0
67688276,0,0.0,0.0,0.15894316,0.54198194,-0.036229596,0.16643107,0.54324627,-0.25651273,-0.00729671,0.0014680407,0.00794912,0.0017154121,0.0033647085,-0.0034989999,-5.9408743e-05,-2.02565,0.7388954,-0.9710037,3.0704923,0.0,0.1,-0.00794912,0.0050690453,0.0034864338,0.02557642,0.016995445,inf,inf,inf,inf,1,1,1,1,2,1,2,3,0,0,0
67792289,0,0.0,0.0,0.1590284,0.54203504,-0.03637842,0.16643107,0.54324627,-0.25651273,-0.0008870285,-0.0020429227,0.009820924,0.0035276932,0.0033647085,-0.0034989999,-5.9408743e-05,0.4066775,0.3830277,-0.18683892,3.0707715,0.0,0.1,-0.009820924,0.0051524844,0.00354042,0.025796425,0.017131628,inf,inf,inf,inf,1,1,1,1,2,1,2,3,0,0,0
67896269,0,0.0,0.0,0.15910114,0.54197836,-0.036533117,0.16643107,0.54324627,-0.25651273,-0.003273753,-0.00040879147,0.007965556,0.0016684269,0.0033647085,-0.0034989999,-5.9408743e-05,0.37072444,1.3717318,-0.51276195,3.0707026,0.0,0.1,-0.007965556,0.00520278,0.0035739122,0.02587897,0.01718161,inf,inf,inf,inf,1,1,1,1,2,1,2,3,0,0,0
67992275,0,0.0,0.0,0.15920436,0.5420365,-0.036614895,0.16643107,0.54324627,-0.25651273,-0.0030491964,-0.0008601801,0.010973887,0.00466742,0.0033647085,-0.0034989999,-5.9408743e-05,-0.07964309,0.05110124,0.433119,3.0706089,0.0,0.1,-0.010973887,0.005125032,0.003523466,0.025690256,0.017062139,inf,inf,inf,inf,1,1,1,1,2,1,2,3,0,0,0
68096281,0,0.0,0.0,0.15933308,0.54211026,-0.036692344,0.16643107,0.54324627,-0.25651273,-0.0049660127,-0.0025341078,0.010863142,0.004546052,0.0033647085,-0.0034989999,-5.9408743e-05,-0.7504174,-1.13345,-0.05161025,3.0702748,0.0,0.1,-0.010863142,0.004935529,0.0033975996,0.025358258,0.01686409,inf,inf,inf,inf,1,1,1,1,2,1,2,3,0,0,0
68200287,0,0.0,0.0,0.15941337,0.5422434,-0.036719255,0.16643107,0.54324627,-0.25651273,-0.0026847657,0.003163874,0.007731376,0.001437883,0.0033647085,-0.0034989999,-5.9408743e-05,0.27377233,0.9297582,-1.0705917,3.0698469,0.0,0.1,-0.007731376,0.0051001795,0.0035037228,0.025792645,0.01712448,inf,inf,inf,inf,1,1,1,1,2,1,2,3,0,0,0
68296289,0,0.0,0.0,0.15954804,0.54226476,-0.036751386,0.16643107,0.54324627,-0.25651273,-0.0014889606,0.00026414765,0.008440809,0.0021722724,0.0033647085,-0.0034989999,-5.9408743e-05,0.41149357,1.7998204,-0.3542101,3.0705667,0.0,0.1,-0.008440809,0.0051232907,0.0035188752,0.025811987,0.017129306,inf,inf,inf,inf,1,1,1,1,2,1,2,3,0,0,0
68398717,0,0.0,0.0,0.15961175,0.54236686,-0.03678489,0.16643107,0.54324627,-0.25651273,0.00064433017,0.004123859,0.008901452,0.0026579113,0.0033647085,-0.0034989999,-5.9408743e-05,-1.0214442,-0.49148327,-0.22061549,3.070355,0.0,0.1,-0.008901452,0.005248632,0.003601161,0.026061725,0.017286027,inf,inf,inf,inf,1,1,1,1,2,1,2,3,0,0,0
68503469,0,0.0,0.0,0.15972139,0.5425037,-0.036678683,0.16643107,0.54324627,-0.25651273,-0.0013811989,-0.00039717153,0.007944947,0.0017177786,0.0033647085,-0.0034989999,-5.9408743e-05,0.22551075,0.33490294,0.024943423,3.0708432,0.0,0.1,-0.007944947,0.005306033,0.003640026,0.02611888,0.017314488,inf,inf,inf,inf,1,1,1,1,2,1,2,3,0,0,0
68607469,0,0.0,0.0,0.15978293,0.5426334,-0.036502324,0.16643107,0.54324627,-0.25651273,-0.0010496761,0.002384207,0.013600582,0.0073876698,0.0033647085,-0.0034989999,-5.9408743e-05,-1.6476939,0.05345418,0.7215407,3.0703676,0.0,0.1,-0.013600582,0.0054207626,0.003713539,0.026459595,0.017520191,inf,inf,inf,inf,1,1,1,1,2,1,2,3,0,0,0
68703469,0,0.0,0.0,0.15987843,0.5428622,-0.036342625,0.16643107,0.54324627,-0.25651273,-0.0028593093,-0.0013246216,0.01419853,0.007989235,0.0033647085,-0.0034989999,-5.9408743e-05,-0.1856724,-0.33110094,0.8930973,3.070515,0.0,0.1,-0.01419853,0.0053010765,0.0036378445,0.026083793,0.017303716,inf,inf,inf,inf,1,1,1,1,2,1,2,3,0,0,0
68807467,0,0.0,0.0,0.1599579,0.54300606,-0.03620084,0.16643107,0.54324627,-0.25651273,0.00035608863,0.005401253,0.011477244,0.0052295392,0.0033647085,-0.0034989999,-5.9408743e-05,1.3670019,0.0667081,0.084119976,3.0706885,0.0,0.1,-0.011477244,0.00538537,0.0036911936,0.02638746,0.017468672,inf,inf,inf,inf,1,1,1,1,2,1,2,3,0,0,0
68911469,0,0.0,0.0,0.15993765,0.54311544,-0.036042437,0.16643107,0.54324627,-0.25651273,-0.0031792168,0.0015711893,0.010539298,0.004233274,0.0033647085,-0.0034989999,-5.9408743e-05,-0.8891791,0.875659,-0.57816136,3.0704777,0.0,0.1,-0.010539298,0.0053655608,0.0036808634,0.026212672,0.017371604,inf,inf,inf,inf,1,1,1,1,2,1,2,3,0,0,0
69015468,0,0.0,0.0,0.15979262,0.54316884,-0.0359806,0.16643107,0.54324627,-0.25651273,0.00063418946,0.004898877,0.009786762,0.0033801976,0.0033647085,-0.0034989999,-5.9408743e-05,0.3996748,-1.0190387,0.06982786,3.070351,0.0,0.1,-0.009786762,0.0053562527,0.0036748222,0.026218895,0.017368622,inf,inf,inf,inf,1,1,1,1,2,1,2,3,0,0,0
69119514,0,0.0,0.0,0.15956107,0.54320186,-0.035978273,0.16643107,0.54324627,-0.25651273,-0.004424885,0.00022128997,0.009246613,0.0027242799,0.0033647085,-0.0034989999,-5.9408743e-05,0.6493653,0.9406841,-0.79957545,3.0702782,0.0,0.1,-0.009246613,0.0054249717,0.0037171042,0.026514122,0.01755369,inf,inf,inf,inf,1,1,1,1,2,1,2,3,0,0,0
69215468,0,0.0,0.0,0.15927544,0.5432968,-0.035966866,0.16643107,0.54324627,-0.25651273,-0.0034779198,-0.0008319686,0.012106547,0.0054962137,0.0033647085,-0.0034989999,-5.9408743e-05,1.5179195,0.37966123,0.58154434,3.0704052,0.0,0.1,-0.012106547,0.005343997,0.0036641597,0.026335707,0.017440867,inf,inf,inf,inf,1,1,1,1,2,1,2,3,0,0,0
69319474,0,0.0,0.0,0.15898466,0.54335755,-0.035914414,0.16643107,0.54324627,-0.25651273,-0.009008539,0.004218396,0.015035479,0.008346341,0.0033647085,-0.0034989999,-5.9408743e-05,-2.003873,0.033152763,0.022802612,3.0703914,0.0,0.1,-0.015035479,0.005411113,0.0037075297,0.02648378,0.017532507,inf,inf,inf,inf,1,1,1,1,2,1,2,3,0,0,0
69422675,0,0.0,0.0,0.15868776,0.5433237,-0.035905067,0.16643107,0.54324627,-0.25651273,-0.0028662763,0.0047951275,0.01214491,0.005369089,0.0033647085,-0.0034989999,-5.9408743e-05,0.37762472,1.1547484,0.74356705,3.0703228,0.0,0.1,-0.01214491,0.0051347166,0.0035285947,0.025784973,0.017107729,inf,inf,inf,inf,1,1,1,1,2,1,2,3,0,0,0
69519469,0,0.0,0.0,0.15834168,0.5432414,-0.035785154,0.16643107,0.54324627,-0.25651273,-0.006367953,-0.0018111726,0.012380812,0.0055418313,0.0033647085,-0.0034989999,-5.9408743e-05,-0.5790184,-0.1948767,-0.45280367,3.0703495,0.0,0.1,-0.012380812,0.005085789,0.003496811,0.025648396,0.017032607,inf,inf,inf,inf,1,1,1,1,2,1,2,3,0,0,0
69622684,0,0.0,0.0,0.15792882,0.54308623,-0.03566237,0.16643107,0.54324627,-0.25651273,-0.0132483775,-0.0054691653,0.0101078395,0.0031933878,0.0033647085,-0.0034989999,-5.9408743e-05,-1.9236425,-0.88426024,-0.74605834,3.0703118,0.0,0.1,-0.0101078395,0.0051444457,0.003535931,0.025745286,0.017097766,inf,inf,inf,inf,1,1,1,1,2,1,2,3,0,0,0
69726675,0,0.0,0.0,0.15773462,0.54274017,-0.035823595,0.16643107,0.54324627,-0.25651273,0.0063944296,0.014238838,0.007489693,0.00043903134,0.0033647085,-0.0034989999,-5.9408743e-05,3.1252484,4.684258,0.4141503,3.069749,0.0,0.1,-0.007489693,0.005184952,0.0035626048,0.02580773,0.017133135,inf,inf,inf,inf,1,1,1,1,2,1,2,3,0,0,0
69822669,0,0.0,0.0,0.15780938,0.5426269,-0.035920322,0.16643107,0.54324627,-0.25651273,0.0026225562,0.00936782,0.011803989,0.004554474,0.0033647085,-0.0034989999,-5.9408743e-05,1.5158987,2.180375,0.4189982,3.0694876,0.0,0.1,-0.011803989,0.005130289,0.0035264918,0.025710687,0.017075013,inf,inf,inf,inf,1,1,1,1,2,1,2,3,0,0,0
69926669,0,0.0,0.0,0.15804553,0.54229474,-0.036101464,0.16643107,0.54324627,-0.25651273,-0.0078064017,0.0023753121,0.010285417,0.0028593473,0.0033647085,-0.0034989999,-5.9408743e-05,2.6420286,2.4470196,0.0041684224,3.0699856,0.0,0.1,-0.010285417,0.005191989,0.0035664956,0.025856046,0.017146382,inf,inf,inf,inf,1,1,1,1,2,1,2,3,0,0,0
70030675,0,0.0,0.0,0.15839066,0.5423452,-0.036229618,0.16643107,0.54324627,-0.25651273,-0.016704382,-0.015501324,0.0079438435,0.00042333902,0.0033647085,-0.0034989999,-5.9408743e-05,-4.662373,-3.7580042,-0.97082037,3.0696826,0.0,0.1,-0.0079438435,0.005247798,0.0036028493,0.025992317,0.017238967,inf,inf,inf,inf,1,1,1,1,2,1,2,3,0,0,0
70126697,0,0.0,0.0,0.15862995,0.5423183,-0.036324445,0.16643107,0.54324627,-0.25651273,-0.0051223165,-0.0047199177,0.008377907,0.0008307863,0.0033647085,-0.0034989999,-5.9408743e-05,1.3565806,1.6450461,0.5572952,3.0696528,0.0,0.1,-0.008377907,0.0054851947,0.003756922,0.026546977,0.017555123,inf,inf,inf,inf,1,1,1,1,2,1,2,3,0,0,0
70230668,0,0.0,0.0,0.1590515,0.54250795,-0.036322452,0.16643107,0.54324627,-0.25651273,-0.010672018,-0.0092512965,0.01081383,0.0032534013,0.0033647085,-0.0034989999,-5.9408743e-05,-3.563752,-3.608757,-2.9128907,3.0693922,0.0,0.1,-0.01081383,0.0055119,0.003773565,0.026652997,0.017637579,inf,inf,inf,inf,1,1,1,1,2,1,2,3,0,0,0
70334676,0,0.0,0.0,0.1594822,0.5425716,-0.03642861,0.16643107,0.54324627,-0.25651273,0.008538596,0.011432107,0.01740414,0.0098342,0.0033647085,-0.0034989999,-5.9408743e-05,1.3692359,0.129531,2.1256008,3.069544,0.0,0.1,-0.01740414,0.005191581,0.0035659196,0.02587482,0.017158339,inf,inf,inf,inf,1,1,1,1,2,1,2,3,0,0,0
70438669,0,0.0,0.0,0.15974009,0.5424658,-0.036400065,0.16643107,0.54324627,-0.25651273,0.011851538,0.0075130537,0.016927835,0.009329658,0.0033647085,-0.0034989999,-5.9408743e-05,5.9693823,5.0220413,1.6220144,3.0698066,0.0,0.1,-0.016927835,0.0052673626,0.0036142555,0.026098296,0.017280774,inf,inf,inf,inf,1,1,1,1,2,1,2,3,0,0,0
70534669,0,0.0,0.0,0.16001992,0.54252845,-0.036331438,0.16643107,0.54324627,-0.25651273,0.009231451,-0.0035959918,0.015020526,0.007398123,0.0033647085,-0.0034989999,-5.9408743e-05,-1.4063026,-1.907678,0.28102118,3.0685334,0.0,0.1,-0.015020526,0.0051727155,0.0035533821,0.025824562,0.017125918,inf,inf,inf,inf,1,1,1,1,2,1,2,3,0,0,0
70637891,0,0.0,0.0,0.16014273,0.5422619,-0.036377322,0.16643107,0.54324627,-0.25651273,0.013485088,0.008209369,0.015993562,0.008351791,0.0033647085,-0.0034989999,-5.9408743e-05,4.503235,-0.418266,-0.2536772,3.0688007,0.0,0.1,-0.015993562,0.0055533326,0.0038010234,0.026668394,0.017616704,inf,inf,inf,inf,1,1,1,1,2,1,2,3,0,0,0
70742669,0,0.0,0.0,0.16024153,0.542068,-0.03642731,0.16643107,0.54324627,-0.25651273,-0.0069467695,-0.010909691,0.005251301,-0.002465262,0.0033647085,-0.0034989999,-5.9408743e-05,-2.8879943,-4.247323,-4.0399446,3.0684385,0.0,0.1,-0.005251301,0.0054952777,0.0037651928,0.026479667,0.017510392,inf,inf,inf,inf,1,1,1,1,2,1,2,3,0,0,0
70838669,0,0.0,0.0,0.16003636,0.5416517,-0.03668623,0.16643107,0.54324627,-0.25651273,0.00396781,0.012390541,0.023108171,0.015290325,0.0033647085,-0.0034989999,-5.9408743e-05,-0.9147424,1.9582235,0.25716808,3.068743,0.0,0.1,-0.023108171,0.00526939,0.0036192418,0.02594541,0.017194357,inf,inf,inf,inf,1,1,1,1,2,1,2,3,0,0,0
70941921,0,0.0,0.0,0.15995535,0.54148823,-0.03691979,0.16643107,0.54324627,-0.25651273,-0.014528112,-0.014535478,0.008824794,0.000890197,0.0033647085,-0.0034989999,-5.9408743e-05,-4.8210664,-3.6647232,-3.486924,3.0687397,0.0,0.1,-0.008824794,0.005306176,0.0036408016,0.026185991,0.017366426,inf,inf,inf,inf,1,1,1,1,2,1,2,3,0,0,0
71045869,0,0.0,0.0,0.16001177,0.541175,-0.03715937,0.16643107,0.54324627,-0.25651273,0.00011502043,0.0006292313,0.012767991,0.004788914,0.0033647085,-0.0034989999,-5.9408743e-05,3.1800246,4.606518,0.100020476,3.0683413,0.0,0.1,-0.012767991,0.005356123,0.0036720408,0.026349789,0.017439498,inf,inf,inf,inf,1,1,1,1,2,1,2,3,0,0,0
71141869,0,0.0,0.0,0.16020902,0.5413446,-0.037148133,0.16643107,0.54324627,-0.25651273,0.00049777864,-0.006939066,0.0137315,0.005747518,0.0033647085,-0.0034989999,-5.9408743e-05,-0.10507837,0.63054734,1.1339984,3.068241,0.0,0.1,-0.0137315,0.005309447,0.003640672,0.026272403,0.017404404,inf,inf,inf,inf,1,1,1,1,2,1,2,3,0,0,0
71245875,0,0.0,0.0,0.16049156,0.54137325,-0.037217926,0.16643107,0.54324627,-0.25651273,0.009705597,-0.00074506085,0.016107986,0.008190964,0.0033647085,-0.0034989999,-5.9408743e-05,-0.3644364,-0.45779288,-1.0797637,3.0684762,0.0,0.1,-0.016107986,0.0053801495,0.0036864502,0.026401179,0.017464811,inf,inf,inf,inf,1,1,1,1,2,1,2,3,0,0,0
71349869,0,0.0,0.0,0.16105253,0.5417914,-0.03723435,0.16643107,0.54324627,-0.25651273,0.0108287055,0.007665407,0.009298743,0.0014433163,0.0033647085,-0.0034989999,-5.9408743e-05,4.9360504,2.825902,0.7101893,3.06994,0.0,0.1,-0.009298743,0.005460008,0.0037376278,0.026601588,0.01760046,inf,inf,inf,inf,1,1,1,1,2,1,2,3,0,0,0
71453881,0,0.0,0.0,0.16176306,0.5423037,-0.037265643,0.16643107,0.54324627,-0.25651273,-0.0025399586,-0.0013394186,0.009211924,0.00133621,0.0033647085,-0.0034989999,-5.9408743e-05,-3.3426912,-2.104039,-0.4389999,3.0690463,0.0,0.1,-0.009211924,0.0051485593,0.003537184,0.025750283,0.017079636,inf,inf,inf,inf,1,1,1,1,2,1,2,3,0,0,0
71557869,0,0.0,0.0,0.1623585,0.5431924,-0.037245706,0.16643107,0.54324627,-0.25651273,0.005974349,-0.0023683463,0.013135733,0.005193098,0.0033647085,-0.0034989999,-5.9408743e-05,-1.9245899,-1.2977135,-2.738433,3.0690215,0.0,0.1,-0.013135733,0.0052489345,0.0036010062,0.026067507,0.017260382,inf,inf,inf,inf,1,1,1,1,2,1,2,3,0,0,0
71653890,0,0.0,0.0,0.16286351,0.54367155,-0.03748751,0.16643107,0.54324627,-0.25651273,0.00012859327,-0.005669811,0.007464926,-0.00051392533,0.0033647085,-0.0034989999,-5.9408743e-05,-3.9447548,-3.2935405,-1.9842585,3.0691407,0.0,0.1,-0.007464926,0.005180867,0.0035574222,0.025859172,0.017137256,inf,inf,inf,inf,1,1,1,1,2,1,2,3,0,0,0
71757881,0,0.0,0.0,0.16307303,0.544211,-0.037766878,0.16643107,0.54324627,-0.25651273,0.016324464,0.01662224,0.013356384,0.0053287027,0.0033647085,-0.0034989999,-5.9408743e-05,2.6646578,2.725025,-0.76613,3.069309,0.0,0.10025698,-0.013356384,0.0052482784,0.003601382,0.02602486,0.01725558,inf,inf,inf,inf,1,1,1,1,2,1,2,3,0,0,0
71857878,0,0.0,0.0,0.16311473,0.54444134,-0.038075056,0.16643107,0.54324627,-0.25651273,0.004571993,0.006106217,-0.00044652453,-0.008499009,0.0033647085,-0.0034989999,-5.9408743e-05,-2.7153766,0.09119725,-2.0137486,3.0696077,0.0,0.100565165,0.00044652453,0.0051646773,0.0035476699,0.025799291,0.017124409,inf,inf,inf,inf,1,1,1,1,2,1,2,3,0,0,0
71961119,0,0.0,0.0,0.16296946,0.5449403,-0.03832761,0.16643107,0.54324627,-0.25651273,0.005871757,0.0027394989,0.004156297,-0.0038992774,0.0033647085,-0.0034989999,-5.9408743e-05,-1.9857501,-1.1281724,-2.793894,3.0693665,0.0,0.10081771,-0.004156297,0.005275635,0.0036183784,0.026164567,0.017346423,inf,inf,inf,inf,1,1,1,1,2,1,2,3,0,0,0
72064318,0,0.0,0.0,0.16286056,0.54475576,-0.038844638,0.16643107,0.54324627,-0.25651273,0.006774516,-0.0017902937,0.010383323,0.0024031927,0.0033647085,-0.0034989999,-5.9408743e-05,0.7959474,-2.5822933,-2.46049,3.067728,0.0,0.10133474,-0.010383323,0.0053162524,0.0036475088,0.026285676,0.01742945,inf,inf,inf,inf,1,1,1,1,2,1,2,3,0,0,0
72161069,0,0.0,0.0,0.1623551,0.54443854,-0.038930185,0.16643107,0.54324627,-0.25651273,0.004771791,-0.0055355504,0.010844639,0.0029299636,0.0033647085,-0.0034989999,-5.9408743e-05,1.3765081,-1.6648616,2.3979168,3.0680468,0.0,0.10142029,-0.010844639,0.005547085,0.0037984657,0.026772916,0.017721588,inf,inf,inf,inf,1,1,1,1,2,1,2,3,0,0,0
72265075,0,0.0,0.0,0.16160613,0.54394484,-0.039173782,0.16643107,0.54324627,-0.25651273,0.003961659,0.0057695876,0.0038811874,-0.0039747646,0.0033647085,-0.0034989999,-5.9408743e-05,2.8928802,0.2791938,0.4666972,3.0682728,0.0,0.10166389,-0.0038811874,0.0051574493,0.003547343,0.025770495,0.017122274,inf,inf,inf,inf,1,1,1,1,2,1,2,3,0,0,0
72369070,0,0.0,0.0,0.16101377,0.54374045,-0.039435603,0.16643107,0.54324627,-0.25651273,0.006023578,0.0064525856,0.012732906,0.0049529443,0.0033647085,-0.0034989999,-5.9408743e-05,3.66324,0.3275989,1.8700536,3.067951,0.0,0.10192571,-0.012732906,0.005130987,0.0035310762,0.025625665,0.017044894,inf,inf,inf,inf,1,1,1,1,2,1,2,3,0,0,0
72465071,0,0.0,0.0,0.16043305,0.5434296,-0.03959317,0.16643107,0.54324627,-0.25651273,-0.0074785384,-0.0063093514,0.0026085335,-0.0051543075,0.0033647085,-0.0034989999,-5.9408743e-05,-0.44276136,0.8404381,-1.0630362,3.0673811,0.0,0.10208328,-0.0026085335,0.005382038,0.0036921867,0.026357422,0.017466744,inf,inf,inf,inf,1,1,1,1,2,1,2,3,0,0,0
72569142,0,0.0,0.0,0.15984908,0.54308295,-0.039836753,0.16643107,0.54324627,-0.25651273,3.6642068e-05,-0.0021103737,0.015183128,0.007423242,0.0033647085,-0.0034989999,-5.9408743e-05,1.4873909,0.81362486,0.09543932,3.0676217,0.0,0.102326855,-0.015183128,0.0050895466,0.003500681,0.025670702,0.017057812,inf,inf,inf,inf,1,1,1,1,2,1,2,3,0,0,0
72673069,0,0.0,0.0,0.15924859,0.5430134,-0.03983353,0.16643107,0.54324627,-0.25651273,0.0016297945,-0.0036265932,0.017536651,0.00982575,0.0033647085,-0.0034989999,-5.9408743e-05,-0.7087481,-3.1623409,0.5514043,3.0673664,0.0,0.10232364,-0.017536651,0.0055209147,0.0037793836,0.026745867,0.017676912,inf,inf,inf,inf,1,1,1,1,2,1,2,3,0,0,0
72777069,0,0.0,0.0,0.15865722,0.5434781,-0.039565776,0.16643107,0.54324627,-0.25651273,0.000419716,-0.012157853,0.005490787,-0.0021211887,0.0033647085,-0.0034989999,-5.9408743e-05,-1.2149333,-3.236556,-1.822176,3.0670319,0.0,0.10205588,-0.005490787,0.005444848,0.0037334715,0.026401384,0.017479874,inf,inf,inf,inf,1,1,1,1,2,1,2,3,0,0,0
72881069,0,0.0,0.0,0.15828475,0.5433195,-0.03978125,0.16643107,0.54324627,-0.25651273,-0.0033514427,-0.010330447,0.009289689,0.0017462865,0.0033647085,-0.0034989999,-5.9408743e-05,1.7619196,0.9774095,1.1491504,3.067314,0.0,0.102271356,-0.009289689,0.005089431,0.0035020707,0.025583243,0.017001094,inf,inf,inf,inf,1,1,1,1,2,1,2,3,0,0,0
72977081,0,0.0,0.0,0.15812,0.5433639,-0.039986573,0.16643107,0.54324627,-0.25651273,-0.0068019717,0.0009337644,0.005311405,-0.002229089,0.0033647085,-0.0034989999,-5.9408743e-05,-1.0774869,-2.1766417,-0.91657346,3.0672486,0.0,0.10247668,-0.005311405,0.0053973827,0.003699242,0.026472272,0.017510267,inf,inf,inf,inf,1,1,1,1,2,1,2,3,0,0,0
73081085,0,0.0,0.0,0.15821859,0.54275846,-0.041063637,0.16643107,0.54324627,-0.25651273,0.004895759,-0.008843447,-0.0012614393,-0.008844912,0.0033647085,-0.0034989999,-5.9408743e-05,2.0520816,-0.6284778,3.48445,3.0657399,0.0,0.10355374,0.0012614393,0.005404113,0.0037056,0.026373874,0.01747636,inf,inf,inf,inf,1,1,1,1,2,1,2,3,0,0,0
73184300,0,0.0,0.0,0.15865414,0.541299,-0.04269654,0.16643107,0.54324627,-0.25651273,-0.008221905,-0.012140908,0.0039059077,-0.0038982923,0.0033647085,-0.0034989999,-5.9408743e-05,0.39080968,-0.20745389,0.7957076,3.0659232,0.0,0.10518664,-0.0039059077,0.0054072705,0.003707649,0.026383942,0.017481606,inf,inf,inf,inf,1,1,1,1,2,1,2,3,0,0,0
73280285,0,0.0,0.0,0.15871504,0.54033047,-0.043900475,0.16643107,0.54324627,-0.25651273,-0.005603087,-0.0019957628,0.006798043,-0.0013113713,0.0033647085,-0.0034989999,-5.9408743e-05,-1.1116219,-2.3150165,0.18806837,3.066078,0.0,0.10639058,-0.006798043,0.0049794493,0.003427806,0.025404349,0.01687955,inf,inf,inf,inf,1,1,1,1,2,1,2,3,0,0,0
73384330,0,0.0,0.0,0.15864812,0.54079485,-0.04479848,0.16643107,0.54324627,-0.25651273,-0.002378843,0.016647933,0.0028936486,-0.0053083575,0.0033647085,-0.0034989999,-5.9408743e-05,0.78274703,2.2194207,-0.35936812,3.065404,0.0,0.107288584,-0.0028936486,0.005124841,0.003521051,0.025833897,0.017159363,inf,inf,inf,inf,1,1,1,1,2,1,2,3,0,0,0
73488269,0,0.0,0.0,0.15872094,0.5428725,-0.045090914,0.16643107,0.54324627,-0.25651273,-0.003199788,0.014493249,0.0045459666,-0.0034037356,0.0033647085,-0.0034989999,-5.9408743e-05,-0.23915297,0.34840712,-1.6288314,3.064704,0.0,0.10758102,-0.0045459666,0.0051977844,0.00357074,0.025915118,0.017253105,inf,inf,inf,inf,1,1,1,1,2,1,2,3,0,0,0
73592284,0,0.0,0.0,0.1589188,0.546153,-0.04511734,0.16643107,0.54324627,-0.25651273,0.0034369112,0.020115552,0.014298336,0.0067731654,0.0033647085,-0.0034989999,-5.9408743e-05,1.4610356,-2.1610649,0.6168023,3.0637107,0.0,0.10760745,-0.014298336,0.005274883,0.0036234886,0.026086645,0.01736827,inf,inf,inf,inf,1,1,1,1,2,1,2,3,0,0,0
73688269,0,0.0,0.0,0.15901111,0.5493264,-0.044925,0.16643107,0.54324627,-0.25651273,-0.00010411701,0.020501824,0.022747476,0.015549402,0.0033647085,-0.0034989999,-5.9408743e-05,1.5731043,-3.5928848,1.1925123,3.062644,0.0,0.10741511,-0.022747476,0.0051901047,0.003570559,0.025846202,0.017237008,inf,inf,inf,inf,1,1,1,1,2,1,2,3,0,0,0
73792270,0,0.0,0.0,0.15882999,0.5522108,-0.043993883,0.16643107,0.54324627,-0.25651273,-0.007213244,0.03538725,0.014428533,0.00746904,0.0033647085,-0.0034989999,-5.9408743e-05,0.66684264,3.21041,2.2306325,3.0620587,0.0,0.10648399,-0.014428533,0.0052620433,0.0036192138,0.026025867,0.017348992,inf,inf,inf,inf,1,1,1,1,2,1,2,3,0,0,0
73896269,0,0.0,0.0,0.15882802,0.5538033,-0.04355885,0.16643107,0.54324627,-0.25651273,-0.0033751426,0.02124363,0.0146724405,0.007846893,0.0033647085,-0.0034989999,-5.9408743e-05,-1.3425462,2.043366,-0.5587318,3.0615878,0.0,0.10604896,-0.0146724405,0.005331717,0.0036657902,0.026226869,0.017468797,inf,inf,inf,inf,1,1,1,1,2,1,2,3,0,0,0
73992268,0,0.0,0.0,0.15915684,0.55458504,-0.043363746,0.16643107,0.54324627,-0.25651273,-0.004109747,0.031462695,0.007810063,0.000897846,0.0033647085,-0.0034989999,-5.9408743e-05,-2.3685527,1.2496616,0.61366606,3.061652,0.0,0.105853856,-0.007810063,0.005284405,0.0036344659,0.026179867,0.017416723,inf,inf,inf,inf,1,1,1,1,2,1,2,3,0,0,0
74096268,0,0.0,0.0,0.15998614,0.55430293,-0.043927427,0.16643107,0.54324627,-0.25651273,0.0050894017,0.026399944,0.0046617854,-0.0025069767,0.0033647085,-0.0034989999,-5.9408743e-05,-0.8919806,2.8969903,0.04392204,3.0600417,0.0,0.10641754,-0.0046617854,0.0053680707,0.0036882225,0.02638453,0.017538387,inf,inf,inf,inf,1,1,1,1,2,1,2,3,0,0,0
74200275,0,0.0,0.0,0.16084749,0.5529226,-0.044201523,0.16643107,0.54324627,-0.25651273,-0.0003578005,0.0047390955,0.015645301,0.0079998765,0.0033647085,-0.0034989999,-5.9408743e-05,0.17008267,1.275762,-0.25069198,3.059498,0.0,0.10669163,-0.015645301,0.005455087,0.0037442057,0.02659698,0.01766169,inf,inf,inf,inf,1,1,1,1,2,1,2,3,0,0,0
75625917,0,0.0,0.0,0.17478853,0.5591627,-0.07469833,0.16643107,0.54324627,-0.25651273,0.050014608,0.04812381,-0.024845678,-0.036502667,0.0033647085,-0.0034989999,-5.9408743e-05,1.1782528,1.2235087,-0.20674942,3.1040123,0.0,0.13718843,0.024845678,0.0052045304,0.0035737725,0.02592134,0.017161239,inf,inf,inf,inf,1,1,1,1,2,1,2,3,0,0,0
75730669,0,0.0,0.0,0.17648934,0.5644333,-0.07988558,0.16643107,0.54324627,-0.25651273,0.028025215,0.049223244,-0.025354583,-0.037253052,0.0033647085,-0.0034989999,-5.9408743e-05,-1.4669145,1.4858638,-2.6047118,3.1048365,0.0,0.14237568,0.025354583,0.005264746,0.003611524,0.026112055,0.017256785,inf,inf,inf,inf,1,1,1,1,2,1,2,3,0,0,0
75826719,0,0.0,0.0,0.17696762,0.5706658,-0.0826925,0.16643107,0.54324627,-0.25651273,0.014779592,0.04389512,0.0028076044,-0.008738954,0.0033647085,-0.0034989999,-5.9408743e-05,1.0364217,-2.0007012,1.3446397,3.1039295,0.0,0.14518261,-0.0028076044,0.005167314,0.0035480855,0.025831202,0.017084364,inf,inf,inf,inf,1,1,1,1,2,1,2,3,0,0,0
75930675,0,0.0,0.0,0.175148,0.57730097,-0.083631776,0.16643107,0.54324627,-0.25651273,-0.020689541,0.029730268,-0.0011575097,-0.011683374,0.0033647085,-0.0034989999,-5.9408743e-05,-4.0660777,-5.130309,-1.0107464,3.1004593,0.0,0.14612189,0.0011575097,0.0052737133,0.003613693,0.026198238,0.01728107,inf,inf,inf,inf,1,1,1,1,2,1,2,3,0,0,0
76034699,0,0.0,0.0,0.1705542,0.5844599,-0.0848569,0.16643107,0.54324627,-0.25651273,-0.04513365,0.05344656,-0.021837965,-0.030923665,0.0033647085,-0.0034989999,-5.9408743e-05,-2.561831,-2.8424244,-0.78641075,3.0963404,0.0,0.147347,0.021837965,0.0053592203,0.0036669981,0.026395975,0.01738671,inf,inf,inf,inf,1,1,1,1,2,1,2,3,0,0,0
76130668,0,0.0,0.0,0.16324148,0.5906483,-0.08765248,0.16643107,0.54324627,-0.25651273,-0.063400246,0.04636353,-0.03519479,-0.043342423,0.0033647085,-0.0034989999,-5.9408743e-05,-0.6366822,-0.42356017,-2.038161,3.0928142,0.0,0.15014258,0.03519479,0.005286181,0.0036184133,0.026222963,0.017271543,inf,inf,inf,inf,1,1,1,1,2,1,2,3,0,0,0
76234675,0,0.0,0.0,0.15122305,0.598491,-0.09180841,0.16643107,0.54324627,-0.25651273,-0.08002821,0.053914484,-0.03349598,-0.041652586,0.0033647085,-0.0034989999,-5.9408743e-05,4.0159287,-1.6776143,1.4032633,3.0890434,0.0,0.15429851,0.03349598,0.005372553,0.0036719032,0.026472742,0.017407745,inf,inf,inf,inf,1,1,1,1,2,1,2,3,0,0,0
76338694,0,0.0,0.0,0.13433759,0.6061902,-0.098698065,0.16643107,0.54324627,-0.25651273,-0.119918995,0.06597709,-0.05960171,-0.06856095,0.0033647085,-0.0034989999,-5.9408743e-05,-0.18633816,1.2264199,1.3787138,3.0848007,0.0,0.16118817,0.05960171,0.005458496,0.0037264237,0.02664709,0.017518872,inf,inf,inf,inf,1,1,1,1,2,1,2,3,0,0,0
76434669,0,0.0,0.0,0.11568472,0.61329895,-0.10789768,0.16643107,0.54324627,-0.25651273,-0.13139714,0.072469294,-0.09277389,-0.102847196,0.0033647085,-0.0034989999,-5.9408743e-05,-4.1361117,0.34921083,-2.2948515,3.0795393,0.0,0.17038777,0.09277389,0.0053636148,0.0036666791,0.026385278,0.01737577,inf,inf,inf,inf,1,1,1,1,2,1,2,3,0,0,0
76538675,0,0.0,0.0,0.09334304,0.62184215,-0.12006947,0.16643107,0.54324627,-0.25651273,-0.1369923,0.089722075,-0.09128892,-0.10286077,0.0033647085,-0.0034989999,-5.9408743e-05,2.4394827,3.8795667,-3.0340626,3.0736227,0.0,0.18255958,0.09128892,0.005072103,0.003479981,0.02564838,0.01693397,inf,inf,inf,inf,1,1,1,1,2,1,2,3,0,0,0
76642669,0,0.0,0.0,0.06986415,0.6304663,-0.13181612,0.16643107,0.54324627,-0.25651273,-0.15094367,0.06762718,-0.070764676,-0.08362334,0.0033647085,-0.0034989999,-5.9408743e-05,4.1034627,-1.0971732,1.3320923,3.0680985,0.0,0.19430622,0.070764676,0.0051559913,0.003533601,0.025868136,0.017074479,inf,inf,inf,inf,1,1,1,1,2,1,2,3,0,0,0
76738669,0,0.0,0.0,0.048322186,0.63748145,-0.14097783,0.16643107,0.54324627,-0.25651273,-0.16714403,0.08201302,-0.050929874,-0.06405116,0.0033647085,-0.0034989999,-5.9408743e-05,0.40636197,1.0444934,0.802423,3.063238,0.0,0.20346794,0.050929874,0.0054437784,0.0037197531,0.02654585,0.017505642,inf,inf,inf,inf,1,1,1,1,2,1,2,3,0,0,0
76841869,0,0.0,0.0,0.025878506,0.6448447,-0.14748135,0.16643107,0.54324627,-0.25651273,-0.16353077,0.07405417,-0.031250563,-0.04327779,0.0033647085,-0.0034989999,-5.9408743e-05,2.9926252,2.502796,2.4926438,3.0567455,0.0,0.20997146,0.031250563,0.0054483926,0.003726318,0.026428958,0.017444277,inf,inf,inf,inf,1,1,1,1,2,1,2,3,0,0,0
76945873,0,0.0,0.0,0.0043503055,0.6512739,-0.14943676,0.16643107,0.54324627,-0.25651273,-0.167921,0.05557749,-0.0012083217,-0.010917626,0.0033647085,-0.0034989999,-5.9408743e-05,1.733652,-0.75910693,2.3484933,3.0523398,0.0,0.21192686,0.0012083217,0.0053995247,0.0036991308,0.026274636,0.017378483,inf,inf,inf,inf,1,1,1,1,2,1,2,3,0,0,0
77049875,0,0.0,0.0,-0.016016562,0.65707153,-0.14613222,0.16643107,0.54324627,-0.25651273,-0.18377763,0.04908049,0.043820437,0.03723876,0.0033647085,-0.0034989999,-5.9408743e-05,-2.918895,-2.2865775,3.0732772,3.0501556,0.0,0.20862232,-0.043820437,0.0054684267,0.0037426245,0.02658548,0.01756369,inf,inf,inf,inf,1,1,1,1,2,1,2,3,0,0,0
77145881,0,0.0,0.0,-0.03394875,0.6618537,-0.13868639,0.16643107,0.54324627,-0.25651273,-0.18247142,0.046249695,0.058827475,0.055451132,0.0033647085,-0.0034989999,-5.9408743e-05,1.2225777,-0.43001765,1.554232,3.048539,0.0,0.2011765,-0.058827475,0.0053541074,0.0036694454,0.026292177,0.01738171,inf,inf,inf,inf,1,1,1,1,2,1,2,3,0,0,0
77249880,0,0.0,0.0,-0.052511178,0.6660474,-0.13004182,0.16643107,0.54324627,-0.25651273,-0.19356641,0.030545682,0.04096284,0.040894475,0.0033647085,-0.0034989999,-5.9408743e-05,-1.7965056,-2.126937,1.6318256,3.0461848,0.0,0.19253193,-0.04096284,0.005429453,0.003716426,0.026548602,0.017535565,inf,inf,inf,inf,1,1,1,1,2,1,2,3,0,0,0
77353878,0,0.0,0.0,-0.07004998,0.66851854,-0.12571003,0.16643107,0.54324627,-0.25651273,-0.18453148,0.032279897,-0.0045102574,-0.0026862756,0.0033647085,-0.0034989999,-5.9408743e-05,-2.5345564,0.31447184,2.4929929,3.0440319,0.0,0.18820013,0.0045102574,0.00512348,0.0035187178,0.02572991,0.017050631,inf,inf,inf,inf,1,1,1,1,2,1,2,3,0,0,0
77449883,0,0.0,0.0,-0.08619077,0.6696758,-0.12636119,0.16643107,0.54324627,-0.25651273,-0.1708653,0.011654615,-0.03120769,-0.02985915,0.0033647085,-0.0034989999,-5.9408743e-05,3.5825925,-1.5042131,0.75264996,3.0416834,0.0,0.1888513,0.03120769,0.0053577446,0.003670716,0.026258467,0.017315665,inf,inf,inf,inf,1,1,1,1,2,1,2,3,0,0,0
77553869,0,0.0,0.0,-0.10368454,0.66918665,-0.13343057,0.16643107,0.54324627,-0.25651273,-0.17151113,0.0122469505,-0.060419105,-0.06209703,0.0033647085,-0.0034989999,-5.9408743e-05,0.50949824,1.1147642,1.0016774,3.040223,0.0,0.19592068,0.060419105,0.005270019,0.003614208,0.026017206,0.017133689,inf,inf,inf,inf,1,1,1,1,2,1,2,3,0,0,0
77657873,0,0.0,0.0,-0.122173406,0.6680893,-0.14588204,0.16643107,0.54324627,-0.25651273,-0.16155182,0.00033783884,-0.10130961,-0.107579835,0.0033647085,-0.0034989999,-5.9408743e-05,1.0834618,-0.45849773,-1.8257271,3.0383658,0.0,0.20837215,0.10130961,0.005296565,0.0036254518,0.0262911,0.017244615,inf,inf,inf,inf,1,1,1,1,2,1,2,3,0,0,0
77753887,0,0.0,0.0,-0.13938239,0.6659071,-0.16175145,0.16643107,0.54324627,-0.25651273,-0.1707268,-0.006739978,-0.12692928,-0.13729288,0.0033647085,-0.0034989999,-5.9408743e-05,-4.2982283,1.9527376,0.84342307,3.0369813,0.0,0.22424155,0.12692928,0.005202745,0.0035615421,0.026093323,0.017144414,inf,inf,inf,inf,1,1,1,1,2,1,2,3,0,0,0
77857869,0,0.0,0.0,-0.15702978,0.6624373,-0.18274058,0.16643107,0.54324627,-0.25651273,-0.15876085,-0.019446444,-0.15595543,-0.16976532,0.0033647085,-0.0034989999,-5.9408743e-05,-3.2555203,0.8775524,0.3831628,3.0349376,0.0,0.24523069,0.15595543,0.005245172,0.0035874876,0.026175452,0.01718278,inf,inf,inf,inf,1,1,1,1,2,1,2,3,0,0,0
77957078,0,0.0,0.0,-0.17342453,0.6587143,-0.20350365,0.16643107,0.54324627,-0.25651273,-0.15943606,-0.02246177,-0.15779828,-0.17364937,0.0033647085,-0.0034989999,-5.9408743e-05,0.32523143,0.982744,-1.3962837,3.0339508,0.0,0.26599377,0.15779828,0.0051702606,0.0035379652,0.02600597,0.017106753,inf,inf,inf,inf,1,1,1,1,2,1,2,3,0,0,0
78061080,0,0.0,0.0,-0.19011581,0.65396714,-0.22428487,0.16643107,0.54324627,-0.25651273,-0.1542621,-0.05129143,-0.14699095,-0.16370286,0.0033647085,-0.0034989999,-5.9408743e-05,1.1460484,-1.9280059,-1.9258147,3.0329878,0.0,0.286775,0.14699095,0.0052886745,0.003612462,0.026325796,0.017316602,inf,inf,inf,inf,1,1,1,1,2,1,2,3,0,0,0
78165069,0,0.0,0.0,-0.205668,0.64806294,-0.24181099,0.16643107,0.54324627,-0.25651273,-0.1551797,-0.05618924,-0.12658069,-0.14232731,0.0033647085,-0.0034989999,-5.9408743e-05,-4.8980145,-0.6774013,0.3542191,3.0311134,0.0,0.30430108,0.12658069,0.0054375967,0.003711232,0.026750172,0.01761821,inf,inf,inf,inf,1,1,1,1,2,1,2,3,0,0,0
78261072,0,0.0,0.0,-0.21903238,0.64183104,-0.2532966,0.16643107,0.54324627,-0.25651273,-0.1550291,-0.07179852,-0.089788966,-0.1027836,0.0033647085,-0.0034989999,-5.9408743e-05,-2.7825801,-2.853348,2.7576044,3.030986,0.0,0.31578672,0.089788966,0.0053563905,0.003664868,0.026481211,0.017514853,inf,inf,inf,inf,1,1,1,1,2,1,2,3,0,0,0
78365081,0,0.0,0.0,-0.23335434,0.63390076,-0.2596256,0.16643107,0.54324627,-0.25651273,-0.1538194,-0.066042185,-0.056892134,-0.06554413,0.0033647085,-0.0034989999,-5.9408743e-05,-1.4024944,1.8025048,1.5127622,3.035501,0.0,0.32211572,0.056892134,0.005349843,0.0036640323,0.026299607,0.017401792,inf,inf,inf,inf,1,1,1,1,2,1,2,3,0,0,0
78469069,0,0.0,0.0,-0.24875462,0.6263828,-0.26010403,0.16643107,0.54324627,-0.25651273,-0.15788597,-0.06750226,-0.026094815,-0.029803103,0.0033647085,-0.0034989999,-5.9408743e-05,2.937584,0.60616034,1.9568981,3.0426097,0.0,0.32259414,0.026094815,0.00542372,0.0037128814,0.026494743,0.017511785,inf,inf,inf,inf,1,1,1,1,2,1,2,3,0,0,0
78573103,0,0.0,0.0,-0.2647262,0.61834055,-0.25681284,0.16643107,0.54324627,-0.25651273,-0.14784063,-0.07290219,-0.00025213353,0.0007537522,0.0033647085,-0.0034989999,-5.9408743e-05,3.361946,1.3354188,1.8757659,3.0511718,0.0,0.31930295,0.00025213353,0.0051210383,0.0035182543,0.025713092,0.01704924,inf,inf,inf,inf,1,1,1,1,2,1,2,3,0,0,0
78677076,0,0.0,0.0,-0.28024468,0.6107638,-0.25081363,0.16643107,0.54324627,-0.25651273,-0.1434508,-0.06196721,0.021058375,0.025630428,0.0033647085,-0.0034989999,-5.9408743e-05,1.1384885,0.3306338,0.5919762,3.0620947,0.0,0.31330374,-0.021058375,0.005204589,0.0035718908,0.025930697,0.017179813,inf,inf,inf,inf,1,1,1,1,2,1,2,3,0,0,0
78781104,0,0.0,0.0,-0.2947562,0.6049143,-0.24290603,0.16643107,0.54324627,-0.25651273,-0.1129668,-0.04745088,0.04662169,0.053240843,0.0033647085,-0.0034989999,-5.9408743e-05,2.058664,0.23973773,2.8503695,3.071891,0.0,0.30539614,-0.04662169,0.0052760663,0.0036173249,0.026093744,0.017273061,inf,inf,inf,inf,1,1,1,1,2,1,2,3,0,0,0
78877076,0,0.0,0.0,-0.3056415,0.60174423,-0.23480327,0.16643107,0.54324627,-0.25651273,-0.058909357,-0.021123296,0.06347652,0.07078106,0.0033647085,-0.0034989999,-5.9408743e-05,1.9314225,0.137534,0.7039717,3.0809915,0.0,0.29729337,-0.06347652,0.005218887,0.0035806561,0.025937714,0.01718403,inf,inf,inf,inf,1,1,1,1,2,1,2,3,0,0,0
78981069,0,0.0,0.0,-0.31470218,0.60204476,-0.22429536,0.16643107,0.54324627,-0.25651273,-0.024904694,0.020383814,0.096881606,0.10386694,0.0033647085,-0.0034989999,-5.9408743e-05,3.0882406,4.2276797,2.4930544,3.0915656,0.0,0.28678548,-0.096881606,0.0052634818,0.0036114112,0.026018169,0.017243208,inf,inf,inf,inf,1,1,1,1,2,1,2,3,0,0,0
79085069,0,0.0,0.0,-0.3184373,0.6079542,-0.21269655,0.16643107,0.54324627,-0.25651273,0.0140482485,0.04933519,0.102328576,0.10847451,0.0033647085,-0.0034989999,-5.9408743e-05,-3.3117263,-2.99119,-0.064469,3.1010985,0.0,0.27518666,-0.102328576,0.005331275,0.003656273,0.026226334,0.017398445,inf,inf,inf,inf,1,1,1,1,2,1,2,3,0,0,0
79188269,0,0.0,0.0,-0.31517267,0.6188129,-0.20171496,0.16643107,0.54324627,-0.25651273,0.06906871,0.08530083,0.09363761,0.0988759,0.0033647085,-0.0034989999,-5.9408743e-05,-0.062318277,-1.2569996,-2.038909,3.1109495,0.0,0.26420507,-0.09363761,0.0054304935,0.0037212805,0.026539223,0.017577743,inf,inf,inf,inf,1,1,1,1,2,1,2,3,0,0,0
79284312,0,0.0,0.0,-0.30514875,0.6332932,-0.19259942,0.16643107,0.54324627,-0.25651273,0.11344984,0.12220162,0.0914661,0.095540024,0.0033647085,-0.0034989999,-5.9408743e-05,0.31920406,-3.9196994,-0.8331148,3.1192408,0.0,0.25508952,-0.0914661,0.005328939,0.003656294,0.026284661,0.017412283,inf,inf,inf,inf,1,1,1,1,2,1,2,3,0,0,0
79388269,0,0.0,0.0,-0.2874099,0.65420806,-0.18455766,0.16643107,0.54324627,-0.25651273,0.14385176,0.16877712,0.073348425,0.07560885,0.0033647085,-0.0034989999,-5.9408743e-05,-1.7019837,2.1933296,-0.46390867,3.127189,0.0,0.24704777,-0.073348425,0.005387071,0.0036915147,0.026470194,0.017453875,inf,inf,inf,inf,1,1,1,1,2,1,2,3,0,0,0
79492269,0,0.0,0.0,-0.26380935,0.6790788,-0.17937998,0.16643107,0.54324627,-0.25651273,0.19153564,0.17180103,0.06277023,0.062670164,0.0033647085,-0.0034989999,-5.9408743e-05,0.08456922,-2.4374976,-1.1757059,3.1317286,0.0,0.24187009,-0.06277023,0.0051007834,0.0035032853,0.025827069,0.017058862,inf,inf,inf,inf,1,1,1,1,2,1,2,3,0,0,0
79588276,0,0.0,0.0,-0.23865275,0.704872,-0.17774826,0.16643107,0.54324627,-0.25651273,0.22539361,0.21789055,0.0365768,0.034012392,0.0033647085,-0.0034989999,-5.9408743e-05,3.1534421,3.5759766,2.1366096,3.1337495,0.0,0.24023837,-0.0365768,0.005066358,0.0034771455,0.02583264,0.017019274,inf,inf,inf,inf,1,1,1,1,2,1,2,3,0,0,0
79692268,0,0.0,0.0,-0.20948867,0.7350931,-0.18054569,0.16643107,0.54324627,-0.25651273,0.23688856,0.20661063,-0.024909047,-0.03028089,0.0033647085,-0.0034989999,-5.9408743e-05,-4.5798078,-3.6571012,-1.3812573,3.1348794,0.0,0.2430358,0.024909047,0.0051707523,0.003541319,0.026114082,0.017139873,inf,inf,inf,inf,1,1,1,1,2,1,2,3,0,0,0
79796269,0,0.0,0.0,-0.18046902,0.7646925,-0.19013683,0.16643107,0.54324627,-0.25651273,0.26322588,0.23529086,-0.07485747,-0.08337143,0.0033647085,-0.0034989999,-5.9408743e-05,2.8589985,-0.643292,-2.5857615,3.1352797,0.0,0.25262696,0.07485747,0.0052101314,0.0035646474,0.02618799,0.01715942,inf,inf,inf,inf,1,1,1,1,2,1,2,3,0,0,0
79892275,0,0.0,0.0,-0.155858,0.79248065,-0.20503235,0.16643107,0.54324627,-0.25651273,0.2617171,0.25467554,-0.12554416,-0.13745174,0.0033647085,-0.0034989999,-5.9408743e-05,3.9080646,-1.0273032,-1.7322187,3.1354077,0.0,0.26752245,0.12554416,0.0051456382,0.0035191434,0.026144003,0.017072702,inf,inf,inf,inf,1,1,1,1,2,1,2,3,0,0,0
79996268,0,0.0,0.0,-0.1324966,0.82198143,-0.22747064,0.16643107,0.54324627,-0.25651273,0.24472669,0.26880282,-0.16890484,-0.1846415,0.0033647085,-0.0034989999,-5.9408743e-05,3.2903228,1.6976649,2.7382414,3.13506,0.0,0.28996074,0.16890484,0.005202309,0.003552468,0.026278732,0.017144505,inf,inf,inf,inf,1,1,1,1,2,1,2,3,0,0,0
80100282,0,0.0,0.0,-0.11292061,0.85065174,-0.25651956,0.16643107,0.54324627,-0.25651273,0.20864376,0.26560038,-0.23164946,-0.25089747,0.0033647085,-0.0034989999,-5.9408743e-05,-4.3299356,0.39518777,1.5325251,3.1303866,0.0,0.31900966,0.23164946,0.0052979463,0.0036105935,0.026557375,0.01735373,inf,inf,inf,inf,1,1,1,1,2,1,2,3,0,0,0
80196275,0,0.0,0.0,-0.098736584,0.87598723,-0.28779516,0.16643107,0.54324627,-0.25651273,0.18970816,0.28052267,-0.27151185,-0.2933158,0.0033647085,-0.0034989999,-5.9408743e-05,-0.381453,1.5586545,1.7302144,3.124234,0.0,0.35028526,0.27151185,0.0052245473,0.0035643398,0.026338838,0.017219458,inf,inf,inf,inf,1,1,1,1,2,1,2,3,0,0,0
80300268,0,0.0,0.0,-0.08759926,0.90106434,-0.32511938,0.16643107,0.54324627,-0.25651273,0.15070729,0.26233235,-0.30297002,-0.32641676,0.0033647085,-0.0034989999,-5.9408743e-05,-3.8752906,3.2510455,-0.15476887,3.1152136,0.0,0.38760948,0.30297002,0.005256691,0.0035868695,0.026306242,0.01724281,inf,inf,inf,inf,1,1,1,1,2,1,2,3,0,0,0
80402695,0,0.0,0.0,-0.08121011,0.9235225,-0.36267084,0.16643107,0.54324627,-0.25651273,0.12778865,0.22498533,-0.31899127,-0.34280097,0.0033647085,-0.0034989999,-5.9408743e-05,-3.2658646,-3.5542183,-2.493812,3.1024888,0.0,0.42516094,0.31899127,0.005627534,0.0038270275,0.027145201,0.017742807,inf,inf,inf,inf,1,1,1,1,2,1,2,3,0,0,0
80507469,0,0.0,0.0,-0.07959328,0.94197726,-0.39997858,0.16643107,0.54324627,-0.25651273,0.09253967,0.18134989,-0.32850716,-0.35083342,0.0033647085,-0.0034989999,-5.9408743e-05,-1.1076504,-0.24706335,-1.8124868,3.0892534,0.0,0.46246868,0.32850716,0.0052280826,0.0035777173,0.02604707,0.01719821,inf,inf,inf,inf,1,1,1,1,2,1,2,3,0,0,0
80603469,0,0.0,0.0,-0.081642546,0.95489174,-0.43351415,0.16643107,0.54324627,-0.25651273,0.05360545,0.14138664,-0.3417358,-0.36142576,0.0033647085,-0.0034989999,-5.9408743e-05,-4.446966,-2.0548859,-1.37374,3.0759172,0.0,0.49600425,0.3417358,0.0051500276,0.0035312024,0.025865348,0.017157372,inf,inf,inf,inf,1,1,1,1,2,1,2,3,0,0,0
80707469,0,0.0,0.0,-0.08772231,0.963684,-0.4683358,0.16643107,0.54324627,-0.25651273,0.0065172925,0.09351828,-0.32567123,-0.34177908,0.0033647085,-0.0034989999,-5.9408743e-05,-6.3484187,-2.76152,2.6024363,3.0654178,0.0,0.5308259,0.32567123,0.005218661,0.0035796068,0.026013456,0.017261058,inf,inf,inf,inf,1,1,1,1,2,1,2,3,0,0,0
80811500,0,0.0,0.0,-0.09790146,0.96651447,-0.49903747,0.16643107,0.54324627,-0.25651273,-0.03445468,0.056310214,-0.2896107,-0.30174503,0.0033647085,-0.0034989999,-5.9408743e-05,-5.792648,0.56961215,2.7959194,3.0559146,0.0,0.5615276,0.2896107,0.0053024557,0.0036371208,0.026219893,0.017401222,inf,inf,inf,inf,1,1,1,1,2,1,2,3,0,0,0
80907491,0,0.0,0.0,-0.11024396,0.96562,-0.523516,0.16643107,0.54324627,-0.25651273,-0.03065739,0.044117324,-0.26969364,-0.27770212,0.0033647085,-0.0034989999,-5.9408743e-05,6.979369,2.165135,0.06899484,3.0486221,0.0,0.5860061,0.26969364,0.0052253865,0.0035899947,0.025991395,0.017305234,inf,inf,inf,inf,1,1,1,1,2,1,2,3,0,0,0
81011469,0,0.0,0.0,-0.12665245,0.9606136,-0.54617906,0.16643107,0.54324627,-0.25651273,-0.07774701,0.015920332,-0.2512382,-0.2544183,0.0033647085,-0.0034989999,-5.9408743e-05,2.5491724,1.653924,-2.2780502,3.0419152,0.0,0.60866916,0.2512382,0.005284735,0.003630816,0.026119934,0.017373832,inf,inf,inf,inf,1,1,1,1,2,1,2,3,0,0,0
81115474,0,0.0,0.0,-0.14509481,0.95304376,-0.5646822,0.16643107,0.54324627,-0.25651273,-0.10509704,0.0048709023,-0.2253983,-0.22388023,0.0033647085,-0.0034989999,-5.9408743e-05,1.2433887,-1.6095068,-2.749234,3.0361385,0.0,0.6271723,0.2253983,0.005361527,0.0036803763,0.026350884,0.017462691,inf,inf,inf,inf,1,1,1,1,2,1,2,3,0,0,0
81211468,0,0.0,0.0,-0.16268113,0.9452994,-0.579015,0.16643107,0.54324627,-0.25651273,-0.13363023,-0.0019462445,-0.19438389,-0.18903686,0.0033647085,-0.0034989999,-5.9408743e-05,0.46545032,2.628775,2.551362,3.0308177,0.0,0.6415051,0.19438389,0.0052611944,0.003613167,0.026094038,0.017254462,inf,inf,inf,inf,1,1,1,1,2,1,2,3,0,0,0
81315471,0,0.0,0.0,-0.18104129,0.9364883,-0.5923255,0.16643107,0.54324627,-0.25651273,-0.13345921,-0.03232097,-0.17215765,-0.16367662,0.0033647085,-0.0034989999,-5.9408743e-05,1.9164108,2.8600235,2.0236812,3.0239859,0.0,0.6548156,0.17215765,0.0053523737,0.0036674505,0.026395332,0.017397437,inf,inf,inf,inf,1,1,1,1,2,1,2,3,0,0,0
81419480,0,0.0,0.0,-0.19606984,0.9269788,-0.6043027,0.16643107,0.54324627,-0.25651273,-0.10835846,-0.079279125,-0.14403945,-0.13369946,0.0033647085,-0.0034989999,-5.9408743e-05,2.5445023,-2.5461347,3.027351,3.0187573,0.0,0.6667928,0.14403945,0.005071017,0.0034821667,0.025684714,0.01695398,inf,inf,inf,inf,1,1,1,1,2,1,2,3,0,0,0
81523469,0,0.0,0.0,-0.2061352,0.916215,-0.6137939,0.16643107,0.54324627,-0.25651273,-0.0631608,-0.112657346,-0.11236353,-0.10134769,0.0033647085,-0.0034989999,-5.9408743e-05,2.169202,1.1751233,1.0391482,3.0148864,0.0,0.676284,0.11236353,0.0051452788,0.0035265533,0.02589827,0.017047696,inf,inf,inf,inf,1,1,1,1,2,1,2,3,0,0,0
81627513,0,0.0,0.0,-0.21076375,0.9041616,-0.6207615,0.16643107,0.54324627,-0.25651273,-0.019323325,-0.15831396,-0.08170073,-0.07076167,0.0033647085,-0.0034989999,-5.9408743e-05,0.22990654,-3.370829,-1.589415,3.013973,0.0,0.6832516,0.08170073,0.0052077672,0.003564629,0.0260398,0.017124096,inf,inf,inf,inf,1,1,1,1,2,1,2,3,0,0,0
81723469,0,0.0,0.0,-0.2102872,0.8918306,-0.6248356,0.16643107,0.54324627,-0.25651273,0.01233557,-0.1888526,-0.05020811,-0.039594322,0.0033647085,-0.0034989999,-5.9408743e-05,-1.3648508,-2.2800362,2.3369224,3.0143259,0.0,0.6873257,0.05020811,0.005149553,0.0035262227,0.025912872,0.017068878,inf,inf,inf,inf,1,1,1,1,2,1,2,3,0,0,0
81826669,0,0.0,0.0,-0.20540324,0.87295717,-0.62616384,0.16643107,0.54324627,-0.25651273,0.042169057,-0.23839344,-0.017797342,-0.007521652,0.0033647085,-0.0034989999,-5.9408743e-05,1.4568232,2.6283233,0.40179387,3.0152655,0.0,0.68865395,0.017797342,0.005194962,0.0035566397,0.026009098,0.017152462,inf,inf,inf,inf,1,1,1,1,2,1,2,3,0,0,0
81930688,0,0.0,0.0,-0.19653507,0.84656817,-0.6245647,0.16643107,0.54324627,-0.25651273,0.03747505,-0.28532186,0.017777396,0.027986517,0.0033647085,-0.0034989999,-5.9408743e-05,0.6968287,-1.5183785,3.9249651,3.0172412,0.0,0.6870548,-0.017777396,0.00526354,0.0036011864,0.026189506,0.017253004,inf,inf,inf,inf,1,1,1,1,2,1,2,3,0,0,0
82026690,0,0.0,0.0,-0.18547033,0.81509984,-0.62047243,0.16643107,0.54324627,-0.25651273,0.04859335,-0.31340054,0.041417766,0.051769096,0.0033647085,-0.0034989999,-5.9408743e-05,3.4560344,-0.27223185,0.17709188,3.0226338,0.0,0.68296254,-0.041417766,0.005192907,0.0035560895,0.02599449,0.01712716,inf,inf,inf,inf,1,1,1,1,2,1,2,3,0,0,0
82130694,0,0.0,0.0,-0.17171708,0.77424014,-0.61219776,0.16643107,0.54324627,-0.25651273,0.037129316,-0.3648717,0.09085913,0.101169005,0.0033647085,-0.0034989999,-5.9408743e-05,3.4715466,-0.7947531,2.7690053,3.030305,0.0,0.67468786,-0.09085913,0.005277603,0.0036101541,0.026210224,0.017255157,inf,inf,inf,inf,1,1,1,1,2,1,2,3,0,0,0
82234675,0,0.0,0.0,-0.1587262,0.72912455,-0.59950966,0.16643107,0.54324627,-0.25651273,0.03168083,-0.37824002,0.13484605,0.14482425,0.0033647085,-0.0034989999,-5.9408743e-05,2.5364885,-3.0527136,-0.29324666,3.0373306,0.0,0.66199976,-0.13484605,0.0053327596,0.003646389,0.026298022,0.017324513,inf,inf,inf,inf,1,1,1,1,2,1,2,3,0,0,0
82338669,0,0.0,0.0,-0.15032147,0.68210953,-0.58062506,0.16643107,0.54324627,-0.25651273,0.017940776,-0.40333432,0.18894541,0.1986581,0.0033647085,-0.0034989999,-5.9408743e-05,-0.86320347,2.1177871,-1.0277797,3.0454822,0.0,0.64311516,-0.18894541,0.005440332,0.0037154183,0.02659683,0.01752488,inf,inf,inf,inf,1,1,1,1,2,1,2,3,0,0,0
82434679,0,0.0,0.0,-0.14900562,0.63829476,-0.5574842,0.16643107,0.54324627,-0.25651273,-0.010662655,-0.41179386,0.25295728,0.26274654,0.0033647085,-0.0034989999,-5.9408743e-05,-1.6374543,-1.5880215,1.8579752,3.054917,0.0,0.6199743,-0.25295728,0.0053506675,0.0036610942,0.026295522,0.017372893,inf,inf,inf,inf,1,1,1,1,2,1,2,3,0,0,0
82538675,0,0.0,0.0,-0.1544187,0.59337145,-0.5266066,0.16643107,0.54324627,-0.25651273,-0.04393619,-0.39329144,0.30679938,0.31701133,0.0033647085,-0.0034989999,-5.9408743e-05,-1.5133706,-0.7199356,1.7797102,3.0632923,0.0,0.5890967,-0.30679938,0.005335709,0.0036562143,0.026132956,0.01730929,inf,inf,inf,inf,1,1,1,1,2,1,2,3,0,0,0
82642695,0,0.0,0.0,-0.16632235,0.5522862,-0.4904144,0.16643107,0.54324627,-0.25651273,-0.07679401,-0.38682044,0.35290924,0.36359078,0.0033647085,-0.0034989999,-5.9408743e-05,-0.28957126,-2.0277243,2.3111277,3.0680723,0.0,0.5529045,-0.35290924,0.0053007863,0.0036373874,0.025983362,0.017244026,inf,inf,inf,inf,1,1,1,1,2,1,2,3,0,0,0
82746668,0,0.0,0.0,-0.18265076,0.5173084,-0.44924173,0.16643107,0.54324627,-0.25651273,-0.11648288,-0.34478495,0.4018435,0.41251937,0.0033647085,-0.0034989999,-5.9408743e-05,-0.9098041,-0.900955,3.3383884,3.0688426,0.0,0.51173186,-0.4018435,0.0053537833,0.0036715346,0.026247108,0.017407544,inf,inf,inf,inf,1,1,1,1,2,1,2,3,0,0,0
82849897,0,0.0,0.0,-0.20218234,0.49013883,-0.40394947,0.16643107,0.54324627,-0.25651273,-0.16361396,-0.29298055,0.4555627,0.46580604,0.0033647085,-0.0034989999,-5.9408743e-05,-2.6201208,0.68718207,2.6859992,3.0671268,0.0,0.46643957,-0.4555627,0.005435533,0.0037242454,0.026505938,0.017563744,inf,inf,inf,inf,1,1,1,1,2,1,2,3,0,0,0
