timestamp,ref_timestamp,ref_lat,ref_lon,x,y,z,delta_xy[0],delta_xy[1],delta_z,vx,vy,vz,z_deriv,delta_vxy[0],delta_vxy[1],delta_vz,ax,ay,az,yaw,ref_alt,dist_bottom,dist_bottom_rate,eph,epv,evh,evv,vxy_max,vz_max,hagl_min,hagl_max,xy_valid,z_valid,v_xy_valid,v_z_valid,xy_reset_counter,z_reset_counter,vxy_reset_counter,vz_reset_counter,xy_global,z_global,dist_bottom_valid
100571669,0,0.0,0.0,0.33843195,0.41283563,-0.032221407,0.34895948,0.4146086,-0.25444326,-0.0019123551,-0.00035003142,0.01523859,0.005942799,-0.001950428,-0.004030489,0.00084480835,0.008297445,0.007692592,0.020643631,-3.1136374,0.0,0.1,-0.01523859,0.0054131593,0.003719466,0.025939547,0.017172564,inf,inf,inf,inf,1,1,1,1,2,1,2,3,0,0,0
100667669,0,0.0,0.0,0.33831212,0.41277975,-0.03229944,0.34895948,0.4146086,-0.25444326,-0.0013134049,-0.00028969656,0.015039325,0.005625996,-0.001950428,-0.004030489,0.00084480835,-0.013078921,-0.01192145,0.048783273,-3.113628,0.0,0.1,-0.015039325,0.005524876,0.003785941,0.0265601,0.017533528,inf,inf,inf,inf,1,1,1,1,2,1,2,3,0,0,0
100771714,0,0.0,0.0,0.3383026,0.41271713,-0.03245366,0.34895948,0.4146086,-0.25444326,-0.0008014633,-0.00073441945,0.01426535,0.0047363117,-0.001950428,-0.004030489,0.00084480835,-0.01590277,0.00042782948,0.02663027,-3.1136732,0.0,0.1,-0.01426535,0.0051278155,0.0035238073,0.025792668,0.017078536,inf,inf,inf,inf,1,1,1,1,2,1,2,3,0,0,0
100875678,0,0.0,0.0,0.33833402,0.41264486,-0.032617327,0.34895948,0.4146086,-0.25444326,-0.0008924847,-0.0005408898,0.014259055,0.004662849,-0.001950428,-0.004030489,0.00084480835,-0.017340269,-0.01076072,0.050650172,-3.113702,0.0,0.1,-0.014259055,0.0051868972,0.0035592136,0.026001884,0.017202288,inf,inf,inf,inf,1,1,1,1,2,1,2,3,0,0,0
100971690,0,0.0,0.0,0.33837515,0.4126134,-0.032758456,0.34895948,0.4146086,-0.25444326,-0.0029163782,0.00022089011,0.014105326,0.004479221,-0.001950428,-0.004030489,0.00084480835,-0.7924858,-0.054089557,-0.09848553,-3.1135886,0.0,0.1,-0.014105326,0.0051363795,0.0035255353,0.02585523,0.017118754,inf,inf,inf,inf,1,1,1,1,2,1,2,3,0,0,0
101075675,0,0.0,0.0,0.33840668,0.41263983,-0.03291782,0.34895948,0.4146086,-0.25444326,-0.0012794855,-0.0009914553,0.013105364,0.003477434,-0.001950428,-0.004030489,0.00084480835,0.029652681,-0.45771503,-0.029107163,-3.11399,0.0,0.1,-0.013105364,0.0052368743,0.0035898953,0.026101751,0.017265854,inf,inf,inf,inf,1,1,1,1,2,1,2,3,0,0,0
101180469,0,0.0,0.0,0.3383534,0.41262266,-0.03305993,0.34895948,0.4146086,-0.25444326,-0.0019020897,0.00025113777,0.013172092,0.003583385,-0.001950428,-0.004030489,0.00084480835,0.22016217,-0.074556276,0.055411763,-3.114432,0.0,0.1,-0.013172092,0.0053292722,0.0036499808,0.026285542,0.017374491,inf,inf,inf,inf,1,1,1,1,2,1,2,3,0,0,0
101282931,0,0.0,0.0,0.33832005,0.41270483,-0.03326134,0.34895948,0.4146086,-0.25444326,-0.0013425209,-0.00032632492,0.012687206,0.0031481262,-0.001950428,-0.004030489,0.00084480835,-0.107634634,0.038534462,0.030089555,-3.1137311,0.0,0.1,-0.012687206,0.00541999,0.003708772,0.026492547,0.017497355,inf,inf,inf,inf,1,1,1,1,2,1,2,3,0,0,0
101386869,0,0.0,0.0,0.338282,0.41275588,-0.033392124,0.34895948,0.4146086,-0.25444326,-0.00092720793,0.0006782575,0.013035952,0.003578043,-0.001950428,-0.004030489,0.00084480835,0.059982836,-0.006180375,0.025135506,-3.1142137,0.0,0.1,-0.013035952,0.0054730377,0.0037442239,0.026601885,0.01756771,inf,inf,inf,inf,1,1,1,1,2,1,2,3,0,0,0
101482869,0,0.0,0.0,0.33823174,0.41278088,-0.033510834,0.34895948,0.4146086,-0.25444326,-0.0016063681,0.00031944373,0.012601816,0.0032165912,-0.001950428,-0.004030489,0.00084480835,-0.042748652,-0.12408634,0.046160948,-3.1139696,0.0,0.1,-0.012601816,0.005366882,0.003676216,0.026304804,0.017390287,inf,inf,inf,inf,1,1,1,1,2,1,2,3,0,0,0
101586888,0,0.0,0.0,0.33806223,0.41277277,-0.033644784,0.34895948,0.4146086,-0.25444326,-0.0043027145,0.002908785,0.013332601,0.004035886,-0.001950428,-0.004030489,0.00084480835,-0.1900543,-0.6694621,0.40712342,-3.1123083,0.0,0.1,-0.013332601,0.0050695296,0.0034840624,0.02555628,0.016948245,inf,inf,inf,inf,1,1,1,1,2,1,2,3,0,0,0
101690869,0,0.0,0.0,0.33787194,0.41265613,-0.033767555,0.34895948,0.4146086,-0.25444326,-0.00050564244,-0.0026872614,0.014762012,0.0055596116,-0.001950428,-0.004030489,0.00084480835,0.14038266,0.57462746,0.40325594,-3.1160347,0.0,0.1,-0.014762012,0.0051302426,0.0035235563,0.025696196,0.017031156,inf,inf,inf,inf,1,1,1,1,2,1,2,3,0,0,0
101792469,0,0.0,0.0,0.33775714,0.4129256,-0.033773642,0.34895948,0.4146086,-0.25444326,-0.0052470495,0.0022058513,0.012034566,0.0029154045,-0.001950428,-0.004030489,0.00084480835,-0.6610016,0.35962623,0.24886253,-3.114525,0.0,0.1,-0.012034566,0.0050638574,0.0034800058,0.025555084,0.016943485,inf,inf,inf,inf,1,1,1,1,2,1,2,3,0,0,0
101894073,0,0.0,0.0,0.33773893,0.41275147,-0.033860046,0.34895948,0.4146086,-0.25444326,0.00022893208,0.00293209,0.01368921,0.004677126,-0.001950428,-0.004030489,0.00084480835,0.35651726,0.014393949,0.2621512,-3.114053,0.0,0.1,-0.01368921,0.005157537,0.003540374,0.02579585,0.017086232,inf,inf,inf,inf,1,1,1,1,2,1,2,3,0,0,0
101990098,0,0.0,0.0,0.33784297,0.41272274,-0.033885024,0.34895948,0.4146086,-0.25444326,-0.0022448767,-0.002512485,0.013259391,0.0043657892,-0.001950428,-0.004030489,0.00084480835,0.1911661,-0.12585838,-0.26873776,-3.1151905,0.0,0.1,-0.013259391,0.0051826295,0.0035568443,0.026097601,0.01729805,inf,inf,inf,inf,1,1,1,1,2,1,2,3,0,0,0
102094069,0,0.0,0.0,0.3381119,0.41284662,-0.03388237,0.34895948,0.4146086,-0.25444326,-0.0013215162,0.002180265,0.013332267,0.0045494083,-0.001950428,-0.004030489,0.00084480835,0.089904934,0.4886658,0.39819807,-3.1144283,0.0,0.1,-0.013332267,0.0052082227,0.003574466,0.025996087,0.017226756,inf,inf,inf,inf,1,1,1,1,2,1,2,3,0,0,0
102198082,0,0.0,0.0,0.33833662,0.41273785,-0.03381431,0.34895948,0.4146086,-0.25444326,0.0007638323,-0.000644772,0.01192677,0.0032305955,-0.001950428,-0.004030489,0.00084480835,0.46640882,0.287323,-0.249573,-3.1147537,0.0,0.1,-0.01192677,0.0052797734,0.0036208516,0.026145253,0.017303664,inf,inf,inf,inf,1,1,1,1,2,1,2,3,0,0,0
102294071,0,0.0,0.0,0.33851925,0.41261762,-0.033819284,0.34895948,0.4146086,-0.25444326,-0.0005219276,-0.0019332801,0.011060563,0.0024256345,-0.001950428,-0.004030489,0.00084480835,0.9773631,-0.84904146,-0.108623974,-3.1148446,0.0,0.1,-0.011060563,0.005212953,0.00357712,0.025971685,0.017201105,inf,inf,inf,inf,1,1,1,1,2,1,2,3,0,0,0
102395669,0,0.0,0.0,0.33854288,0.41247356,-0.03389432,0.34895948,0.4146086,-0.25444326,-0.004294315,-0.0032427763,0.013812561,0.0052383607,-0.001950428,-0.004030489,0.00084480835,-0.7103451,-1.0641477,-0.0033928712,-3.1145954,0.0,0.1,-0.013812561,0.0052804314,0.003620667,0.02611758,0.017278401,inf,inf,inf,inf,1,1,1,1,2,1,2,3,0,0,0
102497270,0,0.0,0.0,0.33830366,0.4121714,-0.033996053,0.34895948,0.4146086,-0.25444326,-0.004932819,-0.00029218072,0.011008458,0.0024889542,-0.001950428,-0.004030489,0.00084480835,0.49165934,-0.4610948,-0.19467431,-3.1150882,0.0,0.1,-0.011008458,0.0053093955,0.0036399565,0.026140613,0.017292859,inf,inf,inf,inf,1,1,1,1,2,1,2,3,0,0,0
102601273,0,0.0,0.0,0.33804342,0.41191202,-0.03403469,0.34895948,0.4146086,-0.25444326,-0.0059286174,-0.005877647,0.0122221755,0.0037447244,-0.001950428,-0.004030489,0.00084480835,0.23398754,-0.97654283,-0.12632164,-3.1151688,0.0,0.1,-0.0122221755,0.005283937,0.0036223717,0.025985673,0.017164528,inf,inf,inf,inf,1,1,1,1,2,1,2,3,0,0,0
102705302,0,0.0,0.0,0.33768713,0.41165915,-0.034147054,0.34895948,0.4146086,-0.25444326,-0.0009263977,-0.0030600345,0.012092082,0.0036498997,-0.001950428,-0.004030489,0.00084480835,0.3343719,0.5429115,0.266926,-3.115894,0.0,0.1,-0.012092082,0.005391794,0.003689477,0.026371319,0.017396893,inf,inf,inf,inf,1,1,1,1,2,1,2,3,0,0,0
102809269,0,0.0,0.0,0.3372167,0.41121852,-0.0342784,0.34895948,0.4146086,-0.25444326,-0.006714346,-0.004330188,0.01229349,0.0038976404,-0.001950428,-0.004030489,0.00084480835,0.34945998,-0.7815713,0.046016093,-3.1178188,0.0,0.1,-0.01229349,0.005108359,0.0035066693,0.025660595,0.016989231,inf,inf,inf,inf,1,1,1,1,2,1,2,3,0,0,0
102913317,0,0.0,0.0,0.3370001,0.411103,-0.034370262,0.34895948,0.4146086,-0.25444326,-0.0071763643,-0.004238027,0.01029944,0.0019550747,-0.001950428,-0.004030489,0.00084480835,-1.313331,-0.8462826,-0.31920424,-3.115933,0.0,0.1,-0.01029944,0.0051997486,0.003565583,0.025916422,0.017148064,inf,inf,inf,inf,1,1,1,1,2,1,2,3,0,0,0
103012498,0,0.0,0.0,0.33682126,0.41088948,-0.03453253,0.34895948,0.4146086,-0.25444326,-0.005102244,-0.009076525,0.009877722,0.0016074447,-0.001950428,-0.004030489,0.00084480835,0.44456968,-0.60328007,-0.2276972,-3.11618,0.0,0.1,-0.009877722,0.0051100487,0.003509031,0.025638616,0.01698812,inf,inf,inf,inf,1,1,1,1,2,1,2,3,0,0,0
103117268,0,0.0,0.0,0.3369801,0.41083783,-0.034826286,0.34895948,0.4146086,-0.25444326,-0.003255971,0.0007008483,0.008481371,0.0002847506,-0.001950428,-0.004030489,0.00084480835,-0.4557171,0.8209863,0.101681806,-3.1160986,0.0,0.1,-0.008481371,0.005211528,0.003574113,0.025943497,0.017173447,inf,inf,inf,inf,1,1,1,1,2,1,2,3,0,0,0
103220469,0,0.0,0.0,0.3372863,0.41088107,-0.035302173,0.34895948,0.4146086,-0.25444326,-0.0031484996,-0.004854281,0.0048412425,-0.0032400328,-0.001950428,-0.004030489,0.00084480835,-0.40151203,-0.03517081,0.321865,-3.1143148,0.0,0.1,-0.0048412425,0.005393707,0.0036922966,0.026691658,0.017648643,inf,inf,inf,inf,1,1,1,1,2,1,2,3,0,0,0
103316469,0,0.0,0.0,0.33775824,0.41082558,-0.03579228,0.34895948,0.4146086,-0.25444326,-0.0063985446,-0.0075332443,0.005852449,-0.0021116252,-0.001950428,-0.004030489,0.00084480835,-1.3985797,-0.30719945,0.32762507,-3.1161892,0.0,0.100213036,-0.005852449,0.005269631,0.0036133367,0.026195906,0.017347911,inf,inf,inf,inf,1,1,1,1,2,1,2,3,0,0,0
103420475,0,0.0,0.0,0.33820775,0.41086632,-0.03637313,0.34895948,0.4146086,-0.25444326,-0.0014924363,0.0017008745,0.0024415324,-0.0053407075,-0.001950428,-0.004030489,0.00084480835,-0.69206214,0.16264768,0.054022286,-3.1173444,0.0,0.10079389,-0.0024415324,0.005323386,0.0036491426,0.026226448,0.017356971,inf,inf,inf,inf,1,1,1,1,2,1,2,3,0,0,0
103524469,0,0.0,0.0,0.33837196,0.41069898,-0.036903605,0.34895948,0.4146086,-0.25444326,-0.0041222167,-0.007851614,0.007871106,0.00030935497,-0.001950428,-0.004030489,0.00084480835,1.3165487,-0.63737816,0.13017082,-3.1171808,0.0,0.101324365,-0.007871106,0.0054145204,0.003707048,0.026484787,0.017496979,inf,inf,inf,inf,1,1,1,1,2,1,2,3,0,0,0
103628471,0,0.0,0.0,0.3383814,0.4106783,-0.037246868,0.34895948,0.4146086,-0.25444326,0.002889379,0.004805032,0.004216237,-0.003066836,-0.001950428,-0.004030489,0.00084480835,1.8367987,1.1388897,-1.2422695,-3.1166272,0.0,0.10166763,-0.004216237,0.005089233,0.003497588,0.02559246,0.016973628,inf,inf,inf,inf,1,1,1,1,2,1,2,3,0,0,0
103731678,0,0.0,0.0,0.33786574,0.4108776,-0.03744324,0.34895948,0.4146086,-0.25444326,-0.010755218,-0.009684917,0.0014186474,-0.005526693,-0.001950428,-0.004030489,0.00084480835,-0.95270556,-1.2243814,-0.30665976,-3.1166344,0.0,0.101863995,-0.0014186474,0.005157922,0.0035413424,0.025803432,0.017087698,inf,inf,inf,inf,1,1,1,1,2,1,2,3,0,0,0
103827669,0,0.0,0.0,0.33753234,0.41109225,-0.037495963,0.34895948,0.4146086,-0.25444326,-0.0014475072,0.0044242716,0.0012881788,-0.0053229975,-0.001950428,-0.004030489,0.00084480835,0.8083481,2.7691865,-0.785414,-3.1155264,0.0,0.10191672,-0.0012881788,0.0054754727,0.0037447761,0.026645815,0.017576631,inf,inf,inf,inf,1,1,1,1,2,1,2,3,0,0,0
103931675,0,0.0,0.0,0.337322,0.4115604,-0.037662834,0.34895948,0.4146086,-0.25444326,-0.01038275,-0.0035792117,0.009006073,0.0027145213,-0.001950428,-0.004030489,0.00084480835,-3.7503588,-2.1183114,0.7685374,-3.1149616,0.0,0.10208359,-0.009006073,0.005132463,0.0035244855,0.025681105,0.017017031,inf,inf,inf,inf,1,1,1,1,2,1,2,3,0,0,0
104035675,0,0.0,0.0,0.3372423,0.41177407,-0.037735514,0.34895948,0.4146086,-0.25444326,-0.0047266595,0.0037016843,0.010619503,0.004582009,-0.001950428,-0.004030489,0.00084480835,-1.2057581,-0.25962064,2.761321,-3.1157565,0.0,0.102156274,-0.010619503,0.0052239266,0.003582253,0.025991036,0.017183753,inf,inf,inf,inf,1,1,1,1,2,1,2,3,0,0,0
104131677,0,0.0,0.0,0.3371344,0.4119395,-0.037702687,0.34895948,0.4146086,-0.25444326,-0.008039832,-0.00736541,0.013140027,0.0073065604,-0.001950428,-0.004030489,0.00084480835,0.2493525,2.5759988,1.1847036,-3.1157486,0.0,0.10212345,-0.013140027,0.005154913,0.0035377503,0.0258047,0.017079167,inf,inf,inf,inf,1,1,1,1,2,1,2,3,0,0,0
104235714,0,0.0,0.0,0.33693454,0.4118717,-0.037730318,0.34895948,0.4146086,-0.25444326,-0.0045756483,0.0023516081,0.0017627069,-0.003856618,-0.001950428,-0.004030489,0.00084480835,1.9041146,2.686352,-0.45348862,-3.1157773,0.0,0.10215108,-0.0017627069,0.0052375053,0.003590987,0.026020184,0.017209096,inf,inf,inf,inf,1,1,1,1,2,1,2,3,0,0,0
104338906,0,0.0,0.0,0.3369223,0.4118155,-0.037671056,0.34895948,0.4146086,-0.25444326,-0.0034728532,-0.0075438446,0.002065708,-0.003353106,-0.001950428,-0.004030489,0.00084480835,-0.47397476,3.445974,0.76880467,-3.1153402,0.0,0.10209182,-0.002065708,0.0052702418,0.0036138354,0.02602091,0.01721188,inf,inf,inf,inf,1,1,1,1,2,1,2,3,0,0,0
104442869,0,0.0,0.0,0.33690175,0.41161206,-0.03740796,0.34895948,0.4146086,-0.25444326,0.0049777203,0.0053486857,0.004170819,-0.0010920097,-0.001950428,-0.004030489,0.00084480835,1.9505556,4.1309333,-0.32266742,-3.115029,0.0,0.101828724,-0.004170819,0.005354435,0.00366697,0.026321856,0.01738383,inf,inf,inf,inf,1,1,1,1,2,1,2,3,0,0,0
104538875,0,0.0,0.0,0.33681908,0.41134092,-0.037005458,0.34895948,0.4146086,-0.25444326,-0.003405037,-0.005480175,0.007148691,0.0019883863,-0.001950428,-0.004030489,0.00084480835,3.317252,5.1593227,-1.3269409,-3.1152582,0.0,0.101426214,-0.007148691,0.005255605,0.0036033185,0.026021618,0.017232703,inf,inf,inf,inf,1,1,1,1,2,1,2,3,0,0,0
104642869,0,0.0,0.0,0.33684435,0.41110533,-0.03644538,0.34895948,0.4146086,-0.25444326,0.00016510299,0.0013820481,0.011661341,0.006574428,-0.001950428,-0.004030489,0.00084480835,-0.27220643,-0.96917385,-1.8296983,-3.1160538,0.0,0.10086614,-0.011661341,0.0053761834,0.0036802497,0.026411822,0.017446943,inf,inf,inf,inf,1,1,1,1,2,1,2,3,0,0,0
104746917,0,0.0,0.0,0.3369107,0.4109498,-0.035797693,0.34895948,0.4146086,-0.25444326,-0.008071091,-0.018622527,0.0090341875,0.003948928,-0.001950428,-0.004030489,0.00084480835,1.4286143,0.6904792,-1.0725782,-3.115498,0.0,0.10021845,-0.0090341875,0.005090314,0.0034968918,0.025625825,0.016988836,inf,inf,inf,inf,1,1,1,1,2,1,2,3,0,0,0
104842880,0,0.0,0.0,0.33673146,0.41067556,-0.0351091,0.34895948,0.4146086,-0.25444326,-0.024498325,-0.019145165,0.01197235,0.006808892,-0.001950428,-0.004030489,0.00084480835,-1.9087229,-2.1279354,-1.5360562,-3.115431,0.0,0.1,-0.01197235,0.0053665508,0.0036759584,0.026286714,0.01738143,inf,inf,inf,inf,1,1,1,1,2,1,2,3,0,0,0
104950069,0,0.0,0.0,0.3367251,0.41052604,-0.03441475,0.34895948,0.4146086,-0.25444326,-0.010330651,-0.011270671,0.0063877273,0.0010029601,-0.001950428,-0.004030489,0.00084480835,-2.2577713,-5.426048,-3.9866798,-3.1166854,0.0,0.1,-0.0063877273,0.005102237,0.0035042102,0.025693184,0.017051002,inf,inf,inf,inf,1,1,1,1,2,1,2,3,0,0,0
105046868,0,0.0,0.0,0.33679327,0.4101537,-0.034219153,0.34895948,0.4146086,-0.25444326,-0.023839628,-0.011572331,0.016099,0.010470831,-0.001950428,-0.004030489,0.00084480835,-8.402634,-3.2922747,-1.5437391,-3.1164134,0.0,0.1,-0.016099,0.0053210054,0.003648106,0.026095964,0.017282486,inf,inf,inf,inf,1,1,1,1,2,1,2,3,0,0,0
105150069,0,0.0,0.0,0.3370577,0.41050264,-0.03441205,0.34895948,0.4146086,-0.25444326,0.0003655147,0.0068997163,0.0126272775,0.006620008,-0.001950428,-0.004030489,0.00084480835,4.083353,8.758215,0.61467457,-3.1144316,0.0,0.1,-0.0126272775,0.0053906194,0.0036941154,0.026432665,0.017495321,inf,inf,inf,inf,1,1,1,1,2,1,2,3,0,0,0
105254086,0,0.0,0.0,0.33695978,0.4101378,-0.034688804,0.34895948,0.4146086,-0.25444326,-0.017682437,-0.0050131516,0.0018561357,-0.0045739035,-0.001950428,-0.004030489,0.00084480835,-0.20712338,1.0452647,1.2644585,-3.1148903,0.0,0.1,-0.0018561357,0.0054184855,0.0037118515,0.026489114,0.017508944,inf,inf,inf,inf,1,1,1,1,2,1,2,3,0,0,0
105350069,0,0.0,0.0,0.33741128,0.41011283,-0.035041012,0.34895948,0.4146086,-0.25444326,0.0032843298,0.015437548,0.011838587,0.005091631,-0.001950428,-0.004030489,0.00084480835,4.1195927,9.988331,1.6109853,-3.1155744,0.0,0.1,-0.011838587,0.005331619,0.0036551224,0.026262775,0.017375713,inf,inf,inf,inf,1,1,1,1,2,1,2,3,0,0,0
105454069,0,0.0,0.0,0.33728358,0.40978763,-0.035158247,0.34895948,0.4146086,-0.25444326,-0.011511018,-0.01175934,0.018126674,0.011175315,-0.001950428,-0.004030489,0.00084480835,3.7626815,0.39841247,1.2109642,-3.1146998,0.0,0.1,-0.018126674,0.0053966246,0.0036968195,0.02641972,0.01747432,inf,inf,inf,inf,1,1,1,1,2,1,2,3,0,0,0
105557280,0,0.0,0.0,0.33745143,0.40922585,-0.035366282,0.34895948,0.4146086,-0.25444326,-0.0044709356,-0.0012985137,-0.00042591884,-0.007515033,-0.001950428,-0.004030489,0.00084480835,0.3099546,7.9800434,-0.6041931,-3.1146677,0.0,0.1,0.00042591884,0.005093766,0.0035008527,0.025636526,0.017020546,inf,inf,inf,inf,1,1,1,1,2,1,2,3,0,0,0
105661269,0,0.0,0.0,0.3369189,0.4083255,-0.035704177,0.34895948,0.4146086,-0.25444326,-0.016371904,-0.02749185,0.014493024,0.0073062656,-0.001950428,-0.004030489,0.00084480835,4.3131905,-0.7806285,2.0463722,-3.1139476,0.0,0.10012494,-0.014493024,0.0051430142,0.0035329282,0.025748087,0.017069055,inf,inf,inf,inf,1,1,1,1,2,1,2,3,0,0,0
105765307,0,0.0,0.0,0.3367632,0.40784514,-0.035993107,0.34895948,0.4146086,-0.25444326,-0.010000455,-0.017459579,0.024482703,0.017179467,-0.001950428,-0.004030489,0.00084480835,1.6164374,-1.9601039,4.920833,-3.1126502,0.0,0.10041387,-0.024482703,0.0051887794,0.0035619403,0.025843833,0.017116562,inf,inf,inf,inf,1,1,1,1,2,1,2,3,0,0,0
105861269,0,0.0,0.0,0.33640456,0.40683076,-0.03620226,0.34895948,0.4146086,-0.25444326,-0.005034908,-0.036256008,0.007254177,-0.00015923716,-0.001950428,-0.004030489,0.00084480835,3.780975,1.194516,-0.17244187,-3.1100755,0.0,0.10062302,-0.007254177,0.0051251864,0.0035206578,0.025688233,0.017030105,inf,inf,inf,inf,1,1,1,1,2,1,2,3,0,0,0
105965308,0,0.0,0.0,0.3361652,0.4061241,-0.0361235,0.34895948,0.4146086,-0.25444326,0.0049247816,-0.023575502,0.023084613,0.015603921,-0.001950428,-0.004030489,0.00084480835,5.4514275,0.2347424,1.7012169,-3.1113553,0.0,0.10054426,-0.023084613,0.005189489,0.0035621014,0.025868656,0.017145073,inf,inf,inf,inf,1,1,1,1,2,1,2,3,0,0,0
106069275,0,0.0,0.0,0.33610815,0.4054518,-0.036188956,0.34895948,0.4146086,-0.25444326,-0.026773997,-0.03297673,0.013970843,0.006471472,-0.001950428,-0.004030489,0.00084480835,-0.6430888,-4.9710865,-2.8007195,-3.1115437,0.0,0.10060972,-0.013970843,0.00528624,0.003624001,0.026181065,0.017325524,inf,inf,inf,inf,1,1,1,1,2,1,2,3,0,0,0
106165315,0,0.0,0.0,0.33564174,0.40514433,-0.036090948,0.34895948,0.4146086,-0.25444326,-0.0028783474,-0.016717963,0.0043016025,-0.0032181789,-0.001950428,-0.004030489,0.00084480835,-2.1780427,1.693319,-3.0147483,-3.111682,0.0,0.10051171,-0.0043016025,0.005197387,0.0035674216,0.025895571,0.017168317,inf,inf,inf,inf,1,1,1,1,2,1,2,3,0,0,0
106268497,0,0.0,0.0,0.33523855,0.4056473,-0.035934646,0.34895948,0.4146086,-0.25444326,-0.006066255,-0.014624842,0.025287893,0.017738547,-0.001950428,-0.004030489,0.00084480835,4.2754083,2.6247494,1.9846946,-3.111853,0.0,0.1003554,-0.025287893,0.0052713403,0.0036151328,0.026081603,0.017282551,inf,inf,inf,inf,1,1,1,1,2,1,2,3,0,0,0
106372486,0,0.0,0.0,0.33570656,0.40658632,-0.03602127,0.34895948,0.4146086,-0.25444326,0.000788759,-0.016465856,0.0074985675,-0.00011262145,-0.001950428,-0.004030489,0.00084480835,0.46466747,-1.6892186,-4.47327,-3.1108272,0.0,0.10044203,-0.0074985675,0.0053389007,0.0036585098,0.026230019,0.017354174,inf,inf,inf,inf,1,1,1,1,2,1,2,3,0,0,0
106476469,0,0.0,0.0,0.33612096,0.407162,-0.03617382,0.34895948,0.4146086,-0.25444326,-0.011958144,-0.01920627,0.008564797,0.000793747,-0.001950428,-0.004030489,0.00084480835,-1.3902842,-3.004982,-2.0289364,-3.1098545,0.0,0.10059458,-0.008564797,0.005454402,0.0037313676,0.026579713,0.017550485,inf,inf,inf,inf,1,1,1,1,2,1,2,3,0,0,0
106572479,0,0.0,0.0,0.33689043,0.40775996,-0.036648564,0.34895948,0.4146086,-0.25444326,-0.0003720707,-0.005682188,0.0070515694,-0.00089955784,-0.001950428,-0.004030489,0.00084480835,-2.710092,1.3049654,-1.1489954,-3.110545,0.0,0.10106932,-0.0070515694,0.005353837,0.003667634,0.026266187,0.017369198,inf,inf,inf,inf,1,1,1,1,2,1,2,3,0,0,0
106676469,0,0.0,0.0,0.33808812,0.40877566,-0.037137646,0.34895948,0.4146086,-0.25444326,-0.008097867,-0.010514534,0.009170158,0.0010079301,-0.001950428,-0.004030489,0.00084480835,-2.0435295,-4.3549275,-1.5860229,-3.109441,0.0,0.1015584,-0.009170158,0.0054405592,0.003723453,0.026529811,0.017527824,inf,inf,inf,inf,1,1,1,1,2,1,2,3,0,0,0
106780468,0,0.0,0.0,0.3398551,0.40945566,-0.038187254,0.34895948,0.4146086,-0.25444326,0.007777904,-0.015285336,-0.0037931593,-0.012135724,-0.001950428,-0.004030489,0.00084480835,-2.259442,1.0094032,-1.969954,-3.1076324,0.0,0.10260801,0.0037931593,0.0051584756,0.0035411182,0.025821712,0.01711218,inf,inf,inf,inf,1,1,1,1,2,1,2,3,0,0,0
106883675,0,0.0,0.0,0.34162316,0.40975642,-0.03914948,0.34895948,0.4146086,-0.25444326,0.005540868,-0.008806762,-0.0006647274,-0.009157359,-0.001950428,-0.004030489,0.00084480835,0.79998416,1.7291422,-2.561877,-3.1070182,0.0,0.10357024,0.0006647274,0.005206311,0.00357282,0.025909271,0.017151946,inf,inf,inf,inf,1,1,1,1,2,1,2,3,0,0,0
106987677,0,0.0,0.0,0.3429723,0.4103169,-0.04008371,0.34895948,0.4146086,-0.25444326,-0.0012938688,0.0016623596,0.01353675,0.0049492465,-0.001950428,-0.004030489,0.00084480835,-0.25058377,1.9988703,4.473556,-3.1072817,0.0,0.104504466,-0.01353675,0.005251456,0.0036019094,0.026017,0.017228495,inf,inf,inf,inf,1,1,1,1,2,1,2,3,0,0,0
107083668,0,0.0,0.0,0.34371492,0.41022944,-0.04104126,0.34895948,0.4146086,-0.25444326,0.0057978225,-0.0022324203,0.0065193754,-0.002082041,-0.001950428,-0.004030489,0.00084480835,-0.5487506,4.109323,-0.26994595,-3.1066613,0.0,0.105462015,-0.0065193754,0.005180497,0.003556136,0.025849799,0.017130952,inf,inf,inf,inf,1,1,1,1,2,1,2,3,0,0,0
107187675,0,0.0,0.0,0.3446875,0.4106787,-0.042038046,0.34895948,0.4146086,-0.25444326,0.012282051,0.0014057452,0.00013698559,-0.008377357,-0.001950428,-0.004030489,0.00084480835,2.1741896,0.6458795,0.61633766,-3.1032495,0.0,0.106458806,-0.00013698559,0.005248437,0.003600218,0.02604907,0.017251061,inf,inf,inf,inf,1,1,1,1,2,1,2,3,0,0,0
107291669,0,0.0,0.0,0.34483942,0.41100892,-0.042753976,0.34895948,0.4146086,-0.25444326,0.0065004723,-0.0043907324,0.0073197884,-0.0010489301,-0.001950428,-0.004030489,0.00084480835,1.8684632,1.2513168,-1.0135622,-3.1019986,0.0,0.10717474,-0.0073197884,0.0053287684,0.0036522106,0.026251191,0.01736853,inf,inf,inf,inf,1,1,1,1,2,1,2,3,0,0,0
107387669,0,0.0,0.0,0.34428027,0.41093406,-0.043478094,0.34895948,0.4146086,-0.25444326,0.0019239195,-0.0060038343,0.0077073774,-0.00046003284,-0.001950428,-0.004030489,0.00084480835,2.580863,3.533039,0.1289106,-3.10171,0.0,0.10789885,-0.0077073774,0.005247631,0.0036000973,0.026033593,0.01724968,inf,inf,inf,inf,1,1,1,1,2,1,2,3,0,0,0
107490868,0,0.0,0.0,0.34295273,0.41079873,-0.04385213,0.34895948,0.4146086,-0.25444326,-0.010621987,-0.0065773027,0.00064516277,-0.0072172214,-0.001950428,-0.004030489,0.00084480835,-2.5227778,-0.97727513,-0.94867754,-3.1020539,0.0,0.108272895,-0.00064516277,0.0053281607,0.0036525147,0.02625457,0.017382853,inf,inf,inf,inf,1,1,1,1,2,1,2,3,0,0,0
107594889,0,0.0,0.0,0.34145704,0.41067666,-0.044383883,0.34895948,0.4146086,-0.25444326,-0.0112401545,-0.012768535,0.003513032,-0.003953484,-0.001950428,-0.004030489,0.00084480835,0.5654767,-0.08033487,0.5377897,-3.100565,0.0,0.10880464,-0.003513032,0.0054009976,0.0037000985,0.026409242,0.017480355,inf,inf,inf,inf,1,1,1,1,2,1,2,3,0,0,0
107698890,0,0.0,0.0,0.34143502,0.41066504,-0.04500204,0.34895948,0.4146086,-0.25444326,0.0063975323,-0.0037040652,0.0009957928,-0.006117187,-0.001950428,-0.004030489,0.00084480835,-3.1468961,0.36305255,-0.23166354,-3.0989766,0.0,0.1094228,-0.0009957928,0.005132637,0.0035265305,0.025782164,0.017118825,inf,inf,inf,inf,1,1,1,1,2,1,2,3,0,0,0
107802869,0,0.0,0.0,0.34139776,0.4113342,-0.045738652,0.34895948,0.4146086,-0.25444326,-0.0015021076,0.006349684,0.009495106,0.0025844425,-0.001950428,-0.004030489,0.00084480835,3.3263638,-0.21556716,0.38891295,-3.097089,0.0,0.11015941,-0.009495106,0.0051633255,0.0035476298,0.025754869,0.017071612,inf,inf,inf,inf,1,1,1,1,2,1,2,3,0,0,0
107898879,0,0.0,0.0,0.3409601,0.41297475,-0.04580303,0.34895948,0.4146086,-0.25444326,-0.0004616438,0.003221961,-0.0051308814,-0.01190342,-0.001950428,-0.004030489,0.00084480835,2.9215598,0.5040031,-1.2047652,-3.0945654,0.0,0.110223785,0.0051308814,0.0050932895,0.0035009936,0.025635198,0.016998352,inf,inf,inf,inf,1,1,1,1,2,1,2,3,0,0,0
108002875,0,0.0,0.0,0.34136218,0.41402176,-0.047465548,0.34895948,0.4146086,-0.25444326,-0.0029779244,-0.009825564,-0.007986832,-0.0144515205,-0.001950428,-0.004030489,0.00084480835,-2.8722305,-3.3080933,0.7206892,-3.0920627,0.0,0.11188631,0.007986832,0.005195444,0.0035659198,0.025940165,0.017210757,inf,inf,inf,inf,1,1,1,1,2,1,2,3,0,0,0
108107676,0,0.0,0.0,0.3425269,0.41465738,-0.04948232,0.34895948,0.4146086,-0.25444326,0.0041948794,-0.00049817783,-0.01792169,-0.02420407,-0.001950428,-0.004030489,0.00084480835,-2.0467713,-0.7264158,-1.2505125,-3.091913,0.0,0.113903075,0.01792169,0.0052754637,0.0036180113,0.02614364,0.017296711,inf,inf,inf,inf,1,1,1,1,2,1,2,3,0,0,0
108202068,0,0.0,0.0,0.343409,0.41519848,-0.051327713,0.34895948,0.4146086,-0.25444326,-0.0012999099,0.0059982417,-0.017177738,-0.02343285,-0.001950428,-0.004030489,0.00084480835,-2.0833335,-0.56548333,-0.38395503,-3.089497,0.0,0.11574847,0.017177738,0.0051598824,0.00354433,0.02577266,0.01708331,inf,inf,inf,inf,1,1,1,1,2,1,2,3,0,0,0
108306075,0,0.0,0.0,0.3440076,0.41652438,-0.052984364,0.34895948,0.4146086,-0.25444326,-0.0028663839,0.01752256,-0.010823786,-0.017000588,-0.001950428,-0.004030489,0.00084480835,-0.8602229,1.4168231,-2.3630414,-3.083884,0.0,0.117405124,0.010823786,0.005215034,0.003579618,0.02592179,0.017175768,inf,inf,inf,inf,1,1,1,1,2,1,2,3,0,0,0
108410078,0,0.0,0.0,0.3445419,0.41890088,-0.05455311,0.34895948,0.4146086,-0.25444326,-0.0048529585,0.011737126,-0.009774739,-0.01567707,-0.001950428,-0.004030489,0.00084480835,-1.6004208,0.24629897,0.6782552,-3.0746255,0.0,0.118973866,0.009774739,0.005313139,0.003642396,0.026231565,0.017370576,inf,inf,inf,inf,1,1,1,1,2,1,2,3,0,0,0
108514073,0,0.0,0.0,0.34524673,0.42224053,-0.055865806,0.34895948,0.4146086,-0.25444326,0.005648067,0.03809194,-0.010722633,-0.016204424,-0.001950428,-0.004030489,0.00084480835,2.1704004,5.1476717,1.0451092,-3.0630136,0.0,0.12028657,0.010722633,0.0054114885,0.0037053085,0.026494062,0.017512301,inf,inf,inf,inf,1,1,1,1,2,1,2,3,0,0,0
108618083,0,0.0,0.0,0.34696597,0.42731014,-0.059024766,0.34895948,0.4146086,-0.25444326,0.009105004,0.033783976,-0.039042108,-0.04417469,-0.001950428,-0.004030489,0.00084480835,0.6186354,0.07816926,0.38159522,-3.0548468,0.0,0.123445526,0.039042108,0.005106192,0.0035083771,0.025677321,0.017026594,inf,inf,inf,inf,1,1,1,1,2,1,2,3,0,0,0
108713291,0,0.0,0.0,0.34934792,0.43229383,-0.06425278,0.34895948,0.4146086,-0.25444326,0.014526657,0.044208188,-0.057590242,-0.062846355,-0.001950428,-0.004030489,0.00084480835,0.027354838,2.6145031,0.9410405,-3.0508518,0.0,0.12867354,0.057590242,0.00537568,0.0036816022,0.026372356,0.01739837,inf,inf,inf,inf,1,1,1,1,2,1,2,3,0,0,0
108817275,0,0.0,0.0,0.35288396,0.43861404,-0.07203245,0.34895948,0.4146086,-0.25444326,0.024987986,0.058341987,-0.063566744,-0.069765806,-0.001950428,-0.004030489,0.00084480835,0.80090344,1.5124835,-0.2168008,-3.0537746,0.0,0.13645321,0.063566744,0.0050883284,0.003493538,0.025713021,0.016976057,inf,inf,inf,inf,1,1,1,1,2,1,2,3,0,0,0
108921276,0,0.0,0.0,0.3574545,0.445611,-0.08153228,0.34895948,0.4146086,-0.25444326,0.032731775,0.03633472,-0.07307925,-0.080628134,-0.001950428,-0.004030489,0.00084480835,-1.3314667,-4.959246,-0.1856044,-3.0616784,0.0,0.14595303,0.07307925,0.005154721,0.0035333007,0.025896115,0.017037269,inf,inf,inf,inf,1,1,1,1,2,1,2,3,0,0,0
109025317,0,0.0,0.0,0.36269474,0.4527074,-0.09183753,0.34895948,0.4146086,-0.25444326,0.023201691,0.055566907,-0.07686413,-0.0855898,-0.001950428,-0.004030489,0.00084480835,-2.6419058,-1.2799926,-0.17082739,-3.0728934,0.0,0.15625829,0.07686413,0.005226022,0.0035762559,0.026070409,0.017130496,inf,inf,inf,inf,1,1,1,1,2,1,2,3,0,0,0
109129279,0,0.0,0.0,0.36693403,0.4602421,-0.10284698,0.34895948,0.4146086,-0.25444326,0.0053977445,0.051143073,-0.09736916,-0.10676691,-0.001950428,-0.004030489,0.00084480835,-5.0197873,0.59694034,-0.8445548,-3.0848625,0.0,0.16726774,0.09736916,0.005309934,0.003627696,0.026297357,0.01726928,inf,inf,inf,inf,1,1,1,1,2,1,2,3,0,0,0
109225297,0,0.0,0.0,0.36901912,0.4667912,-0.115168974,0.34895948,0.4146086,-0.25444326,0.0022240947,0.054430857,-0.12499632,-0.13464507,-0.001950428,-0.004030489,0.00084480835,-1.3863178,-2.8445735,0.5757952,-3.097952,0.0,0.17958973,0.12499632,0.005241371,0.0035843453,0.026062042,0.017154424,inf,inf,inf,inf,1,1,1,1,2,1,2,3,0,0,0
109333268,0,0.0,0.0,0.36800697,0.47319674,-0.13312738,0.34895948,0.4146086,-0.25444326,-0.022884764,0.046999075,-0.16306837,-0.17315276,-0.001950428,-0.004030489,0.00084480835,-0.94127595,-0.68880945,0.41939133,-3.1127133,0.0,0.19754814,0.16306837,0.005334155,0.0036438315,0.026342537,0.017330883,inf,inf,inf,inf,1,1,1,1,2,1,2,3,0,0,0
109428469,0,0.0,0.0,0.3642753,0.47739562,-0.15286307,0.34895948,0.4146086,-0.25444326,-0.005452837,0.040840514,-0.19637224,-0.20758201,-0.001950428,-0.004030489,0.00084480835,6.1702976,-0.38713554,-1.5335901,-3.1264691,0.0,0.21728383,0.19637224,0.0052722385,0.003605143,0.026184158,0.017229918,inf,inf,inf,inf,1,1,1,1,2,1,2,3,0,0,0
109532475,0,0.0,0.0,0.35883942,0.47955993,-0.1772087,0.34895948,0.4146086,-0.25444326,-0.015710328,0.030066842,-0.19531353,-0.20832469,-0.001950428,-0.004030489,0.00084480835,4.07989,3.6718488,1.2025645,-3.1413462,0.0,0.24162947,0.19531353,0.0053777276,0.0036738166,0.026618281,0.01748801,inf,inf,inf,inf,1,1,1,1,2,1,2,3,0,0,0
109636502,0,0.0,0.0,0.35309115,0.47864845,-0.2015711,0.34895948,0.4146086,-0.25444326,-0.025567714,-0.005998552,-0.18733606,-0.20197926,-0.001950428,-0.004030489,0.00084480835,-2.7325475,0.45064673,-1.1610478,3.1286306,0.0,0.26599187,0.18733606,0.005447617,0.0037181329,0.026732279,0.017543197,inf,inf,inf,inf,1,1,1,1,2,1,2,3,0,0,0
109732510,0,0.0,0.0,0.34797028,0.47431317,-0.22132124,0.34895948,0.4146086,-0.25444326,-0.0060948166,-0.032910414,-0.16268156,-0.17774045,-0.001950428,-0.004030489,0.00084480835,2.8086934,0.84329504,-0.53141737,3.1163712,0.0,0.28574198,0.16268156,0.005357144,0.0036613531,0.026418254,0.017376823,inf,inf,inf,inf,1,1,1,1,2,1,2,3,0,0,0
109836504,0,0.0,0.0,0.34387872,0.4657462,-0.23810218,0.34895948,0.4146086,-0.25444326,0.01266033,-0.055253606,-0.1227222,-0.1365029,-0.001950428,-0.004030489,0.00084480835,-4.2651215,-0.95376825,0.6993202,3.1049786,0.0,0.30252296,0.1227222,0.005430677,0.0037092082,0.026576202,0.017468559,inf,inf,inf,inf,1,1,1,1,2,1,2,3,0,0,0
109939668,0,0.0,0.0,0.3424018,0.4535129,-0.24899545,0.34895948,0.4146086,-0.25444326,0.03534805,-0.085493326,-0.095566966,-0.10627566,-0.001950428,-0.004030489,0.00084480835,0.9559933,-0.5700166,0.7822074,3.0976384,0.0,0.3134162,0.095566966,0.0051576146,0.0035335333,0.025945144,0.017070958,inf,inf,inf,inf,1,1,1,1,2,1,2,3,0,0,0
110043675,0,0.0,0.0,0.3452495,0.43782327,-0.2546518,0.34895948,0.4146086,-0.25444326,0.044867925,-0.119003125,-0.060528968,-0.06716272,-0.001950428,-0.004030489,0.00084480835,-2.3426669,0.85547197,-0.29595923,3.0932267,0.0,0.31907257,0.060528968,0.0051981937,0.0035588692,0.02604046,0.017083513,inf,inf,inf,inf,1,1,1,1,2,1,2,3,0,0,0
110147668,0,0.0,0.0,0.35304135,0.419401,-0.2553553,0.34895948,0.4146086,-0.25444326,0.07239834,-0.14837281,-0.023031302,-0.025453208,-0.001950428,-0.004030489,0.00084480835,3.6620364,-2.7847648,-1.2533354,3.0925996,0.0,0.31977606,0.023031302,0.0052561453,0.0035915775,0.026265567,0.017160881,inf,inf,inf,inf,1,1,1,1,2,1,2,3,0,0,0
110243669,0,0.0,0.0,0.3637125,0.40144372,-0.25204933,0.34895948,0.4146086,-0.25444326,0.08807949,-0.15087442,-0.00022402476,0.0006402979,-0.001950428,-0.004030489,0.00084480835,2.1060615,-2.5498607,-0.6373219,3.0950046,0.0,0.3164701,0.00022402476,0.005195124,0.003548544,0.026157735,0.017083865,inf,inf,inf,inf,1,1,1,1,2,1,2,3,0,0,0
110347729,0,0.0,0.0,0.3782953,0.38143203,-0.24576609,0.34895948,0.4146086,-0.25444326,0.08771278,-0.15811145,0.039201286,0.042636335,-0.001950428,-0.004030489,0.00084480835,1.9110866,0.9412311,1.7775259,3.1012063,0.0,0.31018686,-0.039201286,0.005288735,0.0036042985,0.026422104,0.017216988,inf,inf,inf,inf,1,1,1,1,2,1,2,3,0,0,0
110451685,0,0.0,0.0,0.3939369,0.36120677,-0.23675652,0.34895948,0.4146086,-0.25444326,0.07921344,-0.1702459,0.06891346,0.07369743,-0.001950428,-0.004030489,0.00084480835,-5.847677,-0.9077049,-0.9112987,3.110631,0.0,0.30117726,-0.06891346,0.005365456,0.003651391,0.026575826,0.017319685,inf,inf,inf,inf,1,1,1,1,2,1,2,3,0,0,0
110554885,0,0.0,0.0,0.40875214,0.34124646,-0.22537443,0.34895948,0.4146086,-0.25444326,0.10268736,-0.16327779,0.096689336,0.101846896,-0.001950428,-0.004030489,0.00084480835,0.42492366,0.4668042,0.06825957,3.1212704,0.0,0.2897952,-0.096689336,0.005435019,0.0036957783,0.026713109,0.017427543,inf,inf,inf,inf,1,1,1,1,2,1,2,3,0,0,0
110650154,0,0.0,0.0,0.42125586,0.32313353,-0.21401471,0.34895948,0.4146086,-0.25444326,0.08961323,-0.17295374,0.10354244,0.10847365,-0.001950428,-0.004030489,0.00084480835,-1.6808245,2.885788,0.22770046,3.1303048,0.0,0.27843547,-0.10354244,0.0053529325,0.003646444,0.02642526,0.017305702,inf,inf,inf,inf,1,1,1,1,2,1,2,3,0,0,0
110754869,0,0.0,0.0,0.43320706,0.30499744,-0.20119022,0.34895948,0.4146086,-0.25444326,0.07712534,-0.15849902,0.11865406,0.12265519,-0.001950428,-0.004030489,0.00084480835,2.472854,-0.096570835,-1.1094663,3.1407716,0.0,0.265611,-0.11865406,0.005412808,0.0036884856,0.026495486,0.017388012,inf,inf,inf,inf,1,1,1,1,2,1,2,3,0,0,0
110858880,0,0.0,0.0,0.44234392,0.2887888,-0.18854938,0.34895948,0.4146086,-0.25444326,0.06000988,-0.14917018,0.13465728,0.13689703,-0.001950428,-0.004030489,0.00084480835,-3.8788655,5.1686087,1.1046456,-3.1323125,0.0,0.25297016,-0.13465728,0.0050957995,0.0034897013,0.025645621,0.016925933,inf,inf,inf,inf,1,1,1,1,2,1,2,3,0,0,0
110962869,0,0.0,0.0,0.44844234,0.27478045,-0.17603104,0.34895948,0.4146086,-0.25444326,0.06427812,-0.12542647,0.13800518,0.1379777,-0.001950428,-0.004030489,0.00084480835,5.831189,1.1362251,-0.6693804,-3.123876,0.0,0.2404518,-0.13800518,0.0051776157,0.0035449,0.025857113,0.017074907,inf,inf,inf,inf,1,1,1,1,2,1,2,3,0,0,0
111058871,0,0.0,0.0,0.4507223,0.26474392,-0.1650622,0.34895948,0.4146086,-0.25444326,0.01665999,-0.1074277,0.13924117,0.13692075,-0.001950428,-0.004030489,0.00084480835,1.0838524,0.4887733,1.4719228,-3.116053,0.0,0.22948296,-0.13924117,0.0051302826,0.0035166366,0.025732901,0.017020546,inf,inf,inf,inf,1,1,1,1,2,1,2,3,0,0,0
111162869,0,0.0,0.0,0.4493902,0.25719988,-0.15513834,0.34895948,0.4146086,-0.25444326,-0.023996525,-0.07138465,0.11241546,0.10749641,-0.001950428,-0.004030489,0.00084480835,0.21644042,3.152654,-0.64877516,-3.1080167,0.0,0.2195591,-0.11241546,0.005175496,0.0035488652,0.02578437,0.017055046,inf,inf,inf,inf,1,1,1,1,2,1,2,3,0,0,0
111266869,0,0.0,0.0,0.44396672,0.2536407,-0.15016134,0.34895948,0.4146086,-0.25444326,-0.04592126,-0.059861813,0.05887822,0.050996065,-0.001950428,-0.004030489,0.00084480835,0.7983211,-3.6999094,-1.1424984,-3.1005633,0.0,0.2145821,-0.05887822,0.0052416283,0.0035922423,0.02600708,0.01718416,inf,inf,inf,inf,1,1,1,1,2,1,2,3,0,0,0
111370093,0,0.0,0.0,0.43385828,0.25367397,-0.15343754,0.34895948,0.4146086,-0.25444326,-0.09871741,0.00040015922,-0.0050522275,-0.016671736,-0.001950428,-0.004030489,0.00084480835,-1.4103444,5.6695495,0.09284543,-3.0948608,0.0,0.2178583,0.0050522275,0.005293325,0.0036248672,0.026164353,0.017233102,inf,inf,inf,inf,1,1,1,1,2,1,2,3,0,0,0
111466075,0,0.0,0.0,0.4199196,0.25760385,-0.1643054,0.34895948,0.4146086,-0.25444326,-0.13305408,0.032696053,-0.07128081,-0.08740965,-0.001950428,-0.004030489,0.00084480835,-0.7354874,4.356345,-0.12171992,-3.0918484,0.0,0.22872616,0.07128081,0.005241119,0.0035887246,0.0261768,0.017180672,inf,inf,inf,inf,1,1,1,1,2,1,2,3,0,0,0
111570069,0,0.0,0.0,0.40108886,0.26499408,-0.18467575,0.34895948,0.4146086,-0.25444326,-0.14348519,0.04484757,-0.1335525,-0.15540329,-0.001950428,-0.004030489,0.00084480835,1.585851,-2.6726115,-1.4624801,-3.0899513,0.0,0.24909651,0.1335525,0.005298871,0.0036206436,0.02641596,0.017269734,inf,inf,inf,inf,1,1,1,1,2,1,2,3,0,0,0
111674069,0,0.0,0.0,0.3792461,0.276969,-0.21226153,0.34895948,0.4146086,-0.25444326,-0.16917875,0.1185531,-0.17499922,-0.20269108,-0.001950428,-0.004030489,0.00084480835,1.6238492,2.4343524,0.41230294,-3.0940075,0.0,0.2766823,0.17499922,0.0050609075,0.0034627293,0.025897743,0.01691131,inf,inf,inf,inf,1,1,1,1,2,1,2,3,0,0,0
111770078,0,0.0,0.0,0.3575022,0.29022124,-0.24125542,0.34895948,0.4146086,-0.25444326,-0.17218496,0.13097072,-0.20563984,-0.2375527,-0.001950428,-0.004030489,0.00084480835,5.087469,1.6946616,0.4897735,-3.1007633,0.0,0.30567616,0.20563984,0.0053360304,0.003635471,0.026522819,0.017279126,inf,inf,inf,inf,1,1,1,1,2,1,2,3,0,0,0
111874072,0,0.0,0.0,0.33354115,0.30701348,-0.275274,0.34895948,0.4146086,-0.25444326,-0.18766107,0.15437631,-0.24407749,-0.27856186,-0.001950428,-0.004030489,0.00084480835,-2.5430648,2.0123286,-0.9864046,-3.1113765,0.0,0.33969477,0.24407749,0.0054359226,0.0036971173,0.026728721,0.017446576,inf,inf,inf,inf,1,1,1,1,2,1,2,3,0,0,0
111977277,0,0.0,0.0,0.31009728,0.32478258,-0.31030735,0.34895948,0.4146086,-0.25444326,-0.17668939,0.16350158,-0.26963106,-0.30437052,-0.001950428,-0.004030489,0.00084480835,-1.8215955,-0.010796969,-0.76550025,-3.1239648,0.0,0.3747281,0.26963106,0.005120233,0.0035000076,0.025794733,0.01695781,inf,inf,inf,inf,1,1,1,1,2,1,2,3,0,0,0
112081319,0,0.0,0.0,0.2881028,0.34310398,-0.34446734,0.34895948,0.4146086,-0.25444326,-0.18051238,0.16863975,-0.2733153,-0.30648962,-0.001950428,-0.004030489,0.00084480835,-1.9550126,1.8501153,-0.41810971,-3.138492,0.0,0.4088881,0.2733153,0.005571995,0.0037891883,0.026937393,0.017635887,inf,inf,inf,inf,1,1,1,1,2,1,2,3,0,0,0
112185314,0,0.0,0.0,0.26877475,0.3612088,-0.37582633,0.34895948,0.4146086,-0.25444326,-0.1765271,0.17975397,-0.25642845,-0.28638777,-0.001950428,-0.004030489,0.00084480835,-1.6344776,0.82956237,0.34816122,3.1316214,0.0,0.4402471,0.25642845,0.0052091023,0.0035633098,0.025914896,0.017082758,inf,inf,inf,inf,1,1,1,1,2,1,2,3,0,0,0
112289283,0,0.0,0.0,0.2521818,0.3795003,-0.40272078,0.34895948,0.4146086,-0.25444326,-0.17967081,0.1874461,-0.23552224,-0.26108524,-0.001950428,-0.004030489,0.00084480835,-3.1835706,-1.7909327,1.4411435,3.120554,0.0,0.46714154,0.23552224,0.0052903267,0.0036175079,0.026144557,0.017235983,inf,inf,inf,inf,1,1,1,1,2,1,2,3,0,0,0
112385309,0,0.0,0.0,0.23814775,0.39592677,-0.42203343,0.34895948,0.4146086,-0.25444326,-0.16056745,0.1904927,-0.189629,-0.21034877,-0.001950428,-0.004030489,0.00084480835,1.421497,-1.3797826,0.4700245,3.1136005,0.0,0.4864542,0.189629,0.005209148,0.0035683769,0.025891427,0.01710919,inf,inf,inf,inf,1,1,1,1,2,1,2,3,0,0,0
112492497,0,0.0,0.0,0.22309256,0.41389483,-0.4369912,0.34895948,0.4146086,-0.25444326,-0.15281634,0.20714141,-0.14190063,-0.156698,-0.001950428,-0.004030489,0.00084480835,1.7342691,0.4904944,0.50481284,3.1091814,0.0,0.501412,0.14190063,0.00532833,0.0036449379,0.026295146,0.017340757,inf,inf,inf,inf,1,1,1,1,2,1,2,3,0,0,0
112588496,0,0.0,0.0,0.20959161,0.43001622,-0.4444512,0.34895948,0.4146086,-0.25444326,-0.1692555,0.19734395,-0.10284865,-0.112068005,-0.001950428,-0.004030489,0.00084480835,-3.0001478,-1.4712018,-0.41768575,3.105456,0.0,0.508872,0.10284865,0.0053000352,0.003627125,0.02624042,0.017299104,inf,inf,inf,inf,1,1,1,1,2,1,2,3,0,0,0
112692469,0,0.0,0.0,0.19421476,0.44699454,-0.44665724,0.34895948,0.4146086,-0.25444326,-0.17266417,0.20042099,-0.05711415,-0.060473837,-0.001950428,-0.004030489,0.00084480835,-4.8863916,-0.7442773,0.3266995,3.1049445,0.0,0.511078,0.05711415,0.005463012,0.0037327153,0.026750062,0.017629828,inf,inf,inf,inf,1,1,1,1,2,1,2,3,0,0,0
112796469,0,0.0,0.0,0.17856635,0.4641642,-0.4432039,0.34895948,0.4146086,-0.25444326,-0.1612134,0.20139329,-0.009470305,-0.007662564,-0.001950428,-0.004030489,0.00084480835,-0.64772713,1.208399,0.6977235,3.1056457,0.0,0.5076246,0.009470305,0.00510265,0.003502773,0.025699195,0.016989212,inf,inf,inf,inf,1,1,1,1,2,1,2,3,0,0,0
112892469,0,0.0,0.0,0.1638727,0.48007515,-0.4359417,0.34895948,0.4146086,-0.25444326,-0.18647103,0.19007938,0.038319387,0.0438122,-0.001950428,-0.004030489,0.00084480835,-4.742483,-4.070143,1.1812716,3.107801,0.0,0.50036246,-0.038319387,0.005372384,0.0036755218,0.0263759,0.017370582,inf,inf,inf,inf,1,1,1,1,2,1,2,3,0,0,0
112996469,0,0.0,0.0,0.14699018,0.4971304,-0.4231105,0.34895948,0.4146086,-0.25444326,-0.19054447,0.18187185,0.08527695,0.09344016,-0.001950428,-0.004030489,0.00084480835,-2.9773016,-3.280149,-1.1016403,3.1106148,0.0,0.48753127,-0.08527695,0.0050893635,0.0034914396,0.025687313,0.016955363,inf,inf,inf,inf,1,1,1,1,2,1,2,3,0,0,0
113100479,0,0.0,0.0,0.1284769,0.51266384,-0.4058096,0.34895948,0.4146086,-0.25444326,-0.19125615,0.18060341,0.14821844,0.15791902,-0.001950428,-0.004030489,0.00084480835,-3.0516276,-0.5025762,-0.13840482,3.112012,0.0,0.47023037,-0.14821844,0.0054267757,0.0037101146,0.026390424,0.017364573,inf,inf,inf,inf,1,1,1,1,2,1,2,3,0,0,0
113203691,0,0.0,0.0,0.108686805,0.5266969,-0.382522,0.34895948,0.4146086,-0.25444326,-0.18338643,0.1566322,0.21107894,0.2215104,-0.001950428,-0.004030489,0.00084480835,4.4076443,0.86113113,-1.4119052,3.1089394,0.0,0.44694275,-0.21107894,0.0054287105,0.0037109456,0.026417788,0.01738778,inf,inf,inf,inf,1,1,1,1,2,1,2,3,0,0,0
113299677,0,0.0,0.0,0.08922591,0.5372306,-0.3557903,0.34895948,0.4146086,-0.25444326,-0.20183629,0.144586,0.2752048,0.28606233,-0.001950428,-0.004030489,0.00084480835,-2.3238144,1.5049553,1.7918038,3.1047065,0.0,0.42021105,-0.2752048,0.0053148656,0.003637224,0.026184093,0.017261196,inf,inf,inf,inf,1,1,1,1,2,1,2,3,0,0,0
113403675,0,0.0,0.0,0.067618445,0.5467853,-0.3217559,0.34895948,0.4146086,-0.25444326,-0.19846301,0.11470787,0.31091407,0.32220697,-0.001950428,-0.004030489,0.00084480835,7.057862,1.2803191,-1.3287421,3.099531,0.0,0.38617665,-0.31091407,0.00538554,0.0036806213,0.02644416,0.017405601,inf,inf,inf,inf,1,1,1,1,2,1,2,3,0,0,0
113507669,0,0.0,0.0,0.04640852,0.55287033,-0.28510705,0.34895948,0.4146086,-0.25444326,-0.21713921,0.0790962,0.33862594,0.34999,-0.001950428,-0.004030489,0.00084480835,-2.785738,0.64019954,2.585945,3.096299,0.0,0.3495278,-0.33862594,0.0050800946,0.0034851271,0.025624376,0.016937481,inf,inf,inf,inf,1,1,1,1,2,1,2,3,0,0,0
113603675,0,0.0,0.0,0.027471868,0.5555435,-0.25036746,0.34895948,0.4146086,-0.25444326,-0.20598419,0.05181135,0.35232574,0.3628723,-0.001950428,-0.004030489,0.00084480835,2.2444658,1.6958668,0.32107142,3.096604,0.0,0.31478822,-0.35232574,0.005399653,0.0036895482,0.026481405,0.017442198,inf,inf,inf,inf,1,1,1,1,2,1,2,3,0,0,0
113707688,0,0.0,0.0,0.006788484,0.5548292,-0.2134078,0.34895948,0.4146086,-0.25444326,-0.20862225,0.008027718,0.34985164,0.3581272,-0.001950428,-0.004030489,0.00084480835,1.4331825,-1.6585022,-0.89755,3.0997064,0.0,0.27782857,-0.34985164,0.0054866355,0.0037459522,0.026677972,0.01754995,inf,inf,inf,inf,1,1,1,1,2,1,2,3,0,0,0
113810869,0,0.0,0.0,-0.013890505,0.54989386,-0.18019792,0.34895948,0.4146086,-0.25444326,-0.20279783,-0.03621212,0.31693265,0.32147342,-0.001950428,-0.004030489,0.00084480835,1.5939174,-2.712046,-2.111619,3.1042507,0.0,0.24461868,-0.31693265,0.005189525,0.003556015,0.025905356,0.017096357,inf,inf,inf,inf,1,1,1,1,2,1,2,3,0,0,0
113914894,0,0.0,0.0,-0.034333374,0.5410461,-0.15276751,0.34895948,0.4146086,-0.25444326,-0.21740432,-0.06356727,0.2841367,0.2836439,-0.001950428,-0.004030489,0.00084480835,-2.292292,-1.6031595,-1.2971802,3.1091197,0.0,0.21718827,-0.2841367,0.005237574,0.003587083,0.026030153,0.01714414,inf,inf,inf,inf,1,1,1,1,2,1,2,3,0,0,0
114018868,0,0.0,0.0,-0.053677443,0.5279096,-0.13253213,0.34895948,0.4146086,-0.25444326,-0.19251609,-0.0995185,0.23649454,0.22984494,-0.001950428,-0.004030489,0.00084480835,3.1560667,2.2208955,-1.6574857,3.112623,0.0,0.1969529,-0.23649454,0.005303223,0.003626614,0.026277041,0.017253868,inf,inf,inf,inf,1,1,1,1,2,1,2,3,0,0,0
114114871,0,0.0,0.0,-0.070523225,0.5134928,-0.11974817,0.34895948,0.4146086,-0.25444326,-0.19160339,-0.12548305,0.18998292,0.17727108,-0.001950428,-0.004030489,0.00084480835,-1.8875971,2.2553682,-0.39963672,3.1127248,0.0,0.18416893,-0.18998292,0.005225081,0.003574519,0.026115682,0.017128104,inf,inf,inf,inf,1,1,1,1,2,1,2,3,0,0,0
114218868,0,0.0,0.0,-0.08708865,0.4948142,-0.112985566,0.34895948,0.4146086,-0.25444326,-0.18382826,-0.14958818,0.13908182,0.1199859,-0.001950428,-0.004030489,0.00084480835,2.8678443,-0.578789,0.45293513,3.1134472,0.0,0.17740633,-0.13908182,0.0053083263,0.0036244344,0.026377618,0.017250823,inf,inf,inf,inf,1,1,1,1,2,1,2,3,0,0,0
114322868,0,0.0,0.0,-0.10276787,0.47513822,-0.11304168,0.34895948,0.4146086,-0.25444326,-0.16623911,-0.17966196,0.06838122,0.043674164,-0.001950428,-0.004030489,0.00084480835,3.8456397,-2.1058671,-1.0319602,3.112165,0.0,0.17746243,-0.06838122,0.0054195477,0.003691437,0.026717339,0.017438622,inf,inf,inf,inf,1,1,1,1,2,1,2,3,0,0,0
114425339,0,0.0,0.0,-0.11772244,0.45447648,-0.12076898,0.34895948,0.4146086,-0.25444326,-0.16429694,-0.17314367,-0.0041475226,-0.033429515,-0.001950428,-0.004030489,0.00084480835,-2.4105105,2.640742,-1.1110365,3.109861,0.0,0.18518974,0.0041475226,0.0054657813,0.0037206197,0.026758108,0.017440563,inf,inf,inf,inf,1,1,1,1,2,1,2,3,0,0,0
114522071,0,0.0,0.0,-0.13192447,0.4350106,-0.13479882,0.34895948,0.4146086,-0.25444326,-0.15177102,-0.17603838,-0.07443607,-0.10732235,-0.001950428,-0.004030489,0.00084480835,-1.0184118,4.4001155,-0.9156396,3.109405,0.0,0.19921958,0.07443607,0.005369079,0.0036573836,0.02657722,0.017318595,inf,inf,inf,inf,1,1,1,1,2,1,2,3,0,0,0
114626069,0,0.0,0.0,-0.14690337,0.41395664,-0.1573575,0.34895948,0.4146086,-0.25444326,-0.14282034,-0.20901933,-0.15090375,-0.18699524,-0.001950428,-0.004030489,0.00084480835,3.8430836,-4.02193,-0.6623747,3.1106799,0.0,0.22177826,0.15090375,0.005062054,0.003460683,0.025781294,0.016855326,inf,inf,inf,inf,1,1,1,1,2,1,2,3,0,0,0
114730069,0,0.0,0.0,-0.1604035,0.39325422,-0.18806328,0.34895948,0.4146086,-0.25444326,-0.1327099,-0.19651714,-0.23438734,-0.27299494,-0.001950428,-0.004030489,0.00084480835,-1.1869577,1.7921587,-1.5114546,3.1139562,0.0,0.25248402,0.23438734,0.005144546,0.0035110435,0.026025178,0.016995972,inf,inf,inf,inf,1,1,1,1,2,1,2,3,0,0,0
114834069,0,0.0,0.0,-0.17282778,0.37246504,-0.22528116,0.34895948,0.4146086,-0.25444326,-0.13317113,-0.20955333,-0.28425506,-0.3246645,-0.001950428,-0.004030489,0.00084480835,-2.6688101,1.6349812,0.48906985,3.1200778,0.0,0.28970194,0.28425506,0.0052303635,0.0035642523,0.026286658,0.01711924,inf,inf,inf,inf,1,1,1,1,2,1,2,3,0,0,0
114930092,0,0.0,0.0,-0.18377395,0.35323122,-0.26331156,0.34895948,0.4146086,-0.25444326,-0.12521334,-0.20792975,-0.32697153,-0.3680117,-0.001950428,-0.004030489,0.00084480835,-0.944519,0.57016635,1.06322,3.1262484,0.0,0.32773232,0.32697153,0.0055364496,0.0037566365,0.027042342,0.017560655,inf,inf,inf,inf,1,1,1,1,2,1,2,3,0,0,0
115034069,0,0.0,0.0,-0.19563317,0.33095,-0.30662325,0.34895948,0.4146086,-0.25444326,-0.11268459,-0.2532735,-0.3544296,-0.39449742,-0.001950428,-0.004030489,0.00084480835,3.116854,-0.90318006,0.49015406,3.1338737,0.0,0.371044,0.3544296,0.005187968,0.003539648,0.025991263,0.01702985,inf,inf,inf,inf,1,1,1,1,2,1,2,3,0,0,0
115134069,0,0.0,0.0,-0.20855136,0.30798414,-0.3478096,0.34895948,0.4146086,-0.25444326,-0.13307498,-0.25001472,-0.35767782,-0.39546028,-0.001950428,-0.004030489,0.00084480835,-1.2657913,1.8387146,-0.73459,3.1397681,0.0,0.41223037,0.35767782,0.0051595825,0.0035224494,0.025960945,0.017049195,inf,inf,inf,inf,1,1,1,1,2,1,2,3,0,0,0
115237269,0,0.0,0.0,-0.2242005,0.28155747,-0.38632184,0.34895948,0.4146086,-0.25444326,-0.15135522,-0.2949155,-0.33390516,-0.36756763,-0.001950428,-0.004030489,0.00084480835,0.73252887,-2.7831612,-1.9300729,-3.1374526,0.0,0.4507426,0.33390516,0.005235921,0.0035752521,0.026096104,0.01716509,inf,inf,inf,inf,1,1,1,1,2,1,2,3,0,0,0
115341284,0,0.0,0.0,-0.24244797,0.25175834,-0.41796866,0.34895948,0.4146086,-0.25444326,-0.17710388,-0.3086592,-0.28166953,-0.30910537,-0.001950428,-0.004030489,0.00084480835,-4.9090757,2.0929036,0.40861425,-3.134644,0.0,0.48238942,0.28166953,0.005349363,0.0036530606,0.026387056,0.017416194,inf,inf,inf,inf,1,1,1,1,2,1,2,3,0,0,0
115445307,0,0.0,0.0,-0.26377395,0.21850646,-0.44145542,0.34895948,0.4146086,-0.25444326,-0.1857006,-0.33693868,-0.24316621,-0.26244855,-0.001950428,-0.004030489,0.00084480835,1.128032,0.43212974,-0.45084155,-3.13215,0.0,0.5058762,0.24316621,0.0053954404,0.0036897904,0.026374567,0.017434891,inf,inf,inf,inf,1,1,1,1,2,1,2,3,0,0,0
115549289,0,0.0,0.0,-0.28811625,0.18156615,-0.4561047,0.34895948,0.4146086,-0.25444326,-0.22040214,-0.36663982,-0.17646582,-0.18660162,-0.001950428,-0.004030489,0.00084480835,-2.0930095,0.8448182,2.4921994,-3.1300037,0.0,0.52052546,0.17646582,0.0051055863,0.0035063713,0.0256424,0.01701134,inf,inf,inf,inf,1,1,1,1,2,1,2,3,0,0,0
115652500,0,0.0,0.0,-0.31588435,0.1410152,-0.46188623,0.34895948,0.4146086,-0.25444326,-0.23465417,-0.390187,-0.110130146,-0.11165031,-0.001950428,-0.004030489,0.00084480835,2.3695586,3.9446278,-0.29881284,-3.1276784,0.0,0.526307,0.110130146,0.0051799584,0.003555291,0.025837343,0.01710697,inf,inf,inf,inf,1,1,1,1,2,1,2,3,0,0,0
115748468,0,0.0,0.0,-0.3439392,0.10046609,-0.46110272,0.34895948,0.4146086,-0.25444326,-0.25237355,-0.42127615,-0.06358927,-0.058045585,-0.001950428,-0.004030489,0.00084480835,2.6855323,0.029366445,0.49883398,-3.1263378,0.0,0.5255235,0.06358927,0.005113726,0.0035122053,0.025675088,0.017000832,inf,inf,inf,inf,1,1,1,1,2,1,2,3,0,0,0
115852478,0,0.0,0.0,-0.3767901,0.056661837,-0.45334378,0.34895948,0.4146086,-0.25444326,-0.2894255,-0.37669381,0.004166764,0.015937867,-0.001950428,-0.004030489,0.00084480835,4.168631,0.21943544,0.9346888,-3.124247,0.0,0.51776457,-0.004166764,0.0051847366,0.0035572862,0.025862036,0.017100347,inf,inf,inf,inf,1,1,1,1,2,1,2,3,0,0,0
115956468,0,0.0,0.0,-0.41061443,0.01802529,-0.44061154,0.34895948,0.4146086,-0.25444326,-0.3248573,-0.36199513,0.06148685,0.077768765,-0.001950428,-0.004030489,0.00084480835,-4.883149,-0.56727785,0.85015696,-3.1260736,0.0,0.5050323,-0.06148685,0.005258116,0.0036027676,0.026074192,0.017205965,inf,inf,inf,inf,1,1,1,1,2,1,2,3,0,0,0
116060513,0,0.0,0.0,-0.44617236,-0.017546644,-0.42263663,0.34895948,0.4146086,-0.25444326,-0.32742128,-0.3114087,0.11794533,0.13692158,-0.001950428,-0.004030489,0.00084480835,0.21299554,2.3790433,0.6767652,-3.1281798,0.0,0.4870574,-0.11794533,0.005315127,0.0036384764,0.026175477,0.017264877,inf,inf,inf,inf,1,1,1,1,2,1,2,3,0,0,0
116164469,0,0.0,0.0,-0.48319814,-0.047665086,-0.40000048,0.34895948,0.4146086,-0.25444326,-0.34229454,-0.27927646,0.16723076,0.18730724,-0.001950428,-0.004030489,0.00084480835,4.5179963,1.5264701,0.07237538,-3.130349,0.0,0.46442124,-0.16723076,0.0053898995,0.0036857561,0.026390586,0.01740696,inf,inf,inf,inf,1,1,1,1,2,1,2,3,0,0,0
116260484,0,0.0,0.0,-0.5186836,-0.07065145,-0.377727,0.34895948,0.4146086,-0.25444326,-0.35375595,-0.24613553,0.18637016,0.20644954,-0.001950428,-0.004030489,0.00084480835,2.9484246,2.7188168,-1.0701916,-3.1341674,0.0,0.44214776,-0.18637016,0.005322894,0.0036432582,0.026227739,0.017318998,inf,inf,inf,inf,1,1,1,1,2,1,2,3,0,0,0
116363711,0,0.0,0.0,-0.5582255,-0.088908665,-0.35370526,0.34895948,0.4146086,-0.25444326,-0.37206843,-0.21607994,0.20486784,0.22368853,-0.001950428,-0.004030489,0.00084480835,1.622233,1.4015304,1.3237914,-3.1401818,0.0,0.41812602,-0.20486784,0.0053780577,0.0036799673,0.026323771,0.017374633,inf,inf,inf,inf,1,1,1,1,2,1,2,3,0,0,0
116467675,0,0.0,0.0,-0.5985128,-0.10039167,-0.3296401,0.34895948,0.4146086,-0.25444326,-0.37762743,-0.19224651,0.22485137,0.24079874,-0.001950428,-0.004030489,0.00084480835,0.21639867,-3.1563709,-0.45977902,3.135201,0.0,0.39406085,-0.22485137,0.005101183,0.0035014686,0.025640665,0.016974844,inf,inf,inf,inf,1,1,1,1,2,1,2,3,0,0,0
116563677,0,0.0,0.0,-0.6347845,-0.10647508,-0.30735132,0.34895948,0.4146086,-0.25444326,-0.36110273,-0.15261418,0.25015023,0.26242113,-0.001950428,-0.004030489,0.00084480835,3.9832034,-0.9088203,0.27848154,3.1273804,0.0,0.37177208,-0.25015023,0.005361194,0.0036692717,0.026256246,0.017326022,inf,inf,inf,inf,1,1,1,1,2,1,2,3,0,0,0
116667692,0,0.0,0.0,-0.6713195,-0.108908065,-0.2842218,0.34895948,0.4146086,-0.25444326,-0.3429573,-0.11121258,0.24477097,0.2524802,-0.001950428,-0.004030489,0.00084480835,0.014688041,-1.6288122,-0.4235419,3.1194146,0.0,0.34864256,-0.24477097,0.0050819814,0.0034887788,0.025585856,0.016939553,inf,inf,inf,inf,1,1,1,1,2,1,2,3,0,0,0
116771675,0,0.0,0.0,-0.704264,-0.10861464,-0.2622586,0.34895948,0.4146086,-0.25444326,-0.3110623,-0.028075263,0.24645838,0.24961978,-0.001950428,-0.004030489,0.00084480835,1.6090416,4.5985966,-0.27015248,3.1160278,0.0,0.32667935,-0.24645838,0.005155176,0.003536185,0.025776839,0.017052667,inf,inf,inf,inf,1,1,1,1,2,1,2,3,0,0,0
116875705,0,0.0,0.0,-0.7331862,-0.10553407,-0.24212305,0.34895948,0.4146086,-0.25444326,-0.2812345,-0.006329596,0.23240912,0.23107514,-0.001950428,-0.004030489,0.00084480835,0.20116311,-1.9935287,0.030179579,3.1153762,0.0,0.30654383,-0.23240912,0.005252823,0.0035985557,0.02606191,0.01721325,inf,inf,inf,inf,1,1,1,1,2,1,2,3,0,0,0
116970877,0,0.0,0.0,-0.7555637,-0.1016514,-0.22652067,0.34895948,0.4146086,-0.25444326,-0.24684352,0.036727063,0.21139304,0.20590661,-0.001950428,-0.004030489,0.00084480835,1.5165367,-4.0221786,-0.59608436,3.1190782,0.0,0.29094142,-0.21139304,0.0051491745,0.003532823,0.025742035,0.017013028,inf,inf,inf,inf,1,1,1,1,2,1,2,3,0,0,0
117074875,0,0.0,0.0,-0.7747566,-0.09425413,-0.21301815,0.34895948,0.4146086,-0.25444326,-0.19913511,0.09058347,0.17691502,0.16687706,-0.001950428,-0.004030489,0.00084480835,-0.78664166,0.33139968,-0.47975546,3.1248372,0.0,0.2774389,-0.17691502,0.0052318214,0.003584208,0.026031882,0.017167721,inf,inf,inf,inf,1,1,1,1,2,1,2,3,0,0,0
117178869,0,0.0,0.0,-0.78785855,-0.082939036,-0.20301674,0.34895948,0.4146086,-0.25444326,-0.14910488,0.12852448,0.15793355,0.14363782,-0.001950428,-0.004030489,0.00084480835,2.3843312,3.5291827,0.35254276,3.1316633,0.0,0.26743752,-0.15793355,0.0052987942,0.0036253792,0.026232017,0.017256893,inf,inf,inf,inf,1,1,1,1,2,1,2,3,0,0,0
117274900,0,0.0,0.0,-0.7940197,-0.068603985,-0.19652985,0.34895948,0.4146086,-0.25444326,-0.10171583,0.12751321,0.1333338,0.11552403,-0.001950428,-0.004030489,0.00084480835,1.8690753,0.6768981,0.035024334,3.1333635,0.0,0.26095062,-0.1333338,0.0052251155,0.0035765383,0.026056284,0.017146429,inf,inf,inf,inf,1,1,1,1,2,1,2,3,0,0,0
117378875,0,0.0,0.0,-0.79604465,-0.050324626,-0.19210681,0.34895948,0.4146086,-0.25444326,-0.070884414,0.14192775,0.10386929,0.0829858,-0.001950428,-0.004030489,0.00084480835,-0.0977938,-1.3791666,0.24297017,3.1300228,0.0,0.25652757,-0.10386929,0.0053048404,0.003626389,0.026255276,0.017258229,inf,inf,inf,inf,1,1,1,1,2,1,2,3,0,0,0
117482868,0,0.0,0.0,-0.7949115,-0.030834936,-0.19122626,0.34895948,0.4146086,-0.25444326,-0.032593075,0.15007861,0.054702822,0.031506527,-0.001950428,-0.004030489,0.00084480835,0.5763777,0.7882004,-1.2641423,3.1237469,0.0,0.255647,-0.054702822,0.0053585754,0.0036606907,0.026369445,0.017322853,inf,inf,inf,inf,1,1,1,1,2,1,2,3,0,0,0
117578869,0,0.0,0.0,-0.7912786,-0.013799344,-0.1940664,0.34895948,0.4146086,-0.25444326,-0.008400477,0.15482967,0.017390573,-0.007436833,-0.001950428,-0.004030489,0.00084480835,-0.94417167,-0.46191567,-0.2233084,3.1167674,0.0,0.25848716,-0.017390573,0.005279533,0.0036095954,0.026195556,0.017216766,inf,inf,inf,inf,1,1,1,1,2,1,2,3,0,0,0
117682890,0,0.0,0.0,-0.784669,0.0032266951,-0.20085561,0.34895948,0.4146086,-0.25444326,0.024902245,0.16112326,-0.012296622,-0.03859545,-0.001950428,-0.004030489,0.00084480835,0.13967568,-1.0548385,-0.15449892,3.1086586,0.0,0.26527637,0.012296622,0.005369413,0.0036651257,0.026498735,0.01737292,inf,inf,inf,inf,1,1,1,1,2,1,2,3,0,0,0
117786073,0,0.0,0.0,-0.77566105,0.017776424,-0.20970103,0.34895948,0.4146086,-0.25444326,0.055495765,0.1554576,-0.03877084,-0.06620973,-0.001950428,-0.004030489,0.00084480835,0.19022231,-0.0792545,-0.6123639,3.1018708,0.0,0.2741218,0.03877084,0.0054340465,0.003704996,0.02663369,0.01744362,inf,inf,inf,inf,1,1,1,1,2,1,2,3,0,0,0
117890075,0,0.0,0.0,-0.7658554,0.030003324,-0.2207215,0.34895948,0.4146086,-0.25444326,0.07985866,0.15970616,-0.05779269,-0.08566661,-0.001950428,-0.004030489,0.00084480835,0.32887253,2.8378034,-0.17007397,3.0978847,0.0,0.28514224,0.05779269,0.0051441826,0.003520496,0.025837926,0.017005693,inf,inf,inf,inf,1,1,1,1,2,1,2,3,0,0,0
117986069,0,0.0,0.0,-0.757655,0.03925787,-0.23161928,0.34895948,0.4146086,-0.25444326,0.07671853,0.13236426,-0.068516605,-0.096030876,-0.001950428,-0.004030489,0.00084480835,-2.7185664,-3.297226,-0.44745842,3.0943437,0.0,0.29604006,0.068516605,0.0050770864,0.0034780554,0.02566568,0.016907593,inf,inf,inf,inf,1,1,1,1,2,1,2,3,0,0,0
118090069,0,0.0,0.0,-0.75045097,0.046804786,-0.24316977,0.34895948,0.4146086,-0.25444326,0.076388195,0.1278809,-0.0694923,-0.09578707,-0.001950428,-0.004030489,0.00084480835,-0.6827671,-5.3349752,0.06520367,3.0921028,0.0,0.30759054,0.0694923,0.0051460825,0.0035229207,0.025840107,0.017018309,inf,inf,inf,inf,1,1,1,1,2,1,2,3,0,0,0
118194084,0,0.0,0.0,-0.74535584,0.05429481,-0.2530769,0.34895948,0.4146086,-0.25444326,0.05699425,0.12122658,-0.0632426,-0.08742866,-0.001950428,-0.004030489,0.00084480835,-2.020102,-2.2547317,0.09986358,3.0929935,0.0,0.31749767,0.0632426,0.005189897,0.0035527523,0.025895739,0.0170663,inf,inf,inf,inf,1,1,1,1,2,1,2,3,0,0,0
118289287,0,0.0,0.0,-0.7425091,0.060487814,-0.26014107,0.34895948,0.4146086,-0.25444326,0.054129157,0.116204716,-0.055902787,-0.07739464,-0.001950428,-0.004030489,0.00084480835,1.4695948,0.38291654,1.081384,3.096749,0.0,0.32456183,0.055902787,0.0054993327,0.0037505084,0.02672555,0.017565763,inf,inf,inf,inf,1,1,1,1,2,1,2,3,0,0,0
118393269,0,0.0,0.0,-0.7407639,0.068006895,-0.26615888,0.34895948,0.4146086,-0.25444326,0.03552643,0.12525749,-0.053249158,-0.07126353,-0.001950428,-0.004030489,0.00084480835,-0.8160692,2.7256231,2.393431,3.102001,0.0,0.33057964,0.053249158,0.0052270745,0.0035795365,0.026143987,0.01727205,inf,inf,inf,inf,1,1,1,1,2,1,2,3,0,0,0
118497307,0,0.0,0.0,-0.74078363,0.076183334,-0.27114093,0.34895948,0.4146086,-0.25444326,0.021860756,0.13140637,-0.05908955,-0.07357929,-0.001950428,-0.004030489,0.00084480835,0.56393826,-0.7614184,-0.15016696,3.1064649,0.0,0.3355617,0.05908955,0.0051851775,0.0035538657,0.025841465,0.017072327,inf,inf,inf,inf,1,1,1,1,2,1,2,3,0,0,0
118601269,0,0.0,0.0,-0.7428869,0.085482106,-0.2763737,0.34895948,0.4146086,-0.25444326,0.00986521,0.1247425,-0.07347082,-0.085104614,-0.001950428,-0.004030489,0.00084480835,1.237129,-1.6389484,-1.059847,3.1115224,0.0,0.34079447,0.07347082,0.005298344,0.0036254732,0.026206234,0.017281545,inf,inf,inf,inf,1,1,1,1,2,1,2,3,0,0,0
118697290,0,0.0,0.0,-0.74652165,0.094769396,-0.2830026,0.34895948,0.4146086,-0.25444326,-0.0021340866,0.12719324,-0.07839033,-0.088291265,-0.001950428,-0.004030489,0.00084480835,-1.2791224,0.014611658,2.7938044,3.1155112,0.0,0.34742334,0.07839033,0.0052535436,0.0035966316,0.0260881,0.017214663,inf,inf,inf,inf,1,1,1,1,2,1,2,3,0,0,0
118801317,0,0.0,0.0,-0.7503881,0.106806934,-0.2921246,0.34895948,0.4146086,-0.25444326,0.014290675,0.12038569,-0.090503834,-0.09966478,-0.001950428,-0.004030489,0.00084480835,3.09594,-3.4040456,-0.2841128,3.1163552,0.0,0.35654536,0.090503834,0.005335266,0.0036493186,0.026281035,0.017316043,inf,inf,inf,inf,1,1,1,1,2,1,2,3,0,0,0
118900483,0,0.0,0.0,-0.7537357,0.1190582,-0.3011736,0.34895948,0.4146086,-0.25444326,-0.0052797226,0.13263461,-0.079370946,-0.08866095,-0.001950428,-0.004030489,0.00084480835,-2.3784199,-0.5422779,0.2907242,3.1153183,0.0,0.36559436,0.079370946,0.005267888,0.003605869,0.026106942,0.017212303,inf,inf,inf,inf,1,1,1,1,2,1,2,3,0,0,0
119004469,0,0.0,0.0,-0.75668406,0.13294739,-0.31006035,0.34895948,0.4146086,-0.25444326,-0.0026015402,0.13472523,-0.07122572,-0.08083766,-0.001950428,-0.004030489,0.00084480835,-2.1772375,-1.1519673,-0.46959168,3.1143637,0.0,0.3744811,0.07122572,0.0053913034,0.0036837219,0.026456103,0.017421737,inf,inf,inf,inf,1,1,1,1,2,1,2,3,0,0,0
119108469,0,0.0,0.0,-0.7583817,0.1468708,-0.31804937,0.34895948,0.4146086,-0.25444326,0.0056226384,0.1251283,-0.06952941,-0.07880997,-0.001950428,-0.004030489,0.00084480835,-3.00503,-2.671966,-0.76432437,3.1130004,0.0,0.38247013,0.06952941,0.0051641352,0.0035408477,0.026041992,0.017243449,inf,inf,inf,inf,1,1,1,1,2,1,2,3,0,0,0
119212470,0,0.0,0.0,-0.7578891,0.15975805,-0.32469928,0.34895948,0.4146086,-0.25444326,0.023256319,0.11771749,-0.056846917,-0.06515685,-0.001950428,-0.004030489,0.00084480835,0.41325003,-4.115516,-1.4089123,3.1123548,0.0,0.38912004,0.056846917,0.005191728,0.0035611752,0.02591644,0.017163679,inf,inf,inf,inf,1,1,1,1,2,1,2,3,0,0,0
119308478,0,0.0,0.0,-0.7551171,0.17008841,-0.32893574,0.34895948,0.4146086,-0.25444326,0.025690291,0.10016289,-0.031636924,-0.038788747,-0.001950428,-0.004030489,0.00084480835,2.4246137,0.76422524,-0.12203932,3.112343,0.0,0.3933565,0.031636924,0.005105844,0.0035067548,0.02563643,0.01699695,inf,inf,inf,inf,1,1,1,1,2,1,2,3,0,0,0
119412468,0,0.0,0.0,-0.75035256,0.17947184,-0.33021036,0.34895948,0.4146086,-0.25444326,0.02959606,0.08015196,-0.0057797297,-0.011578182,-0.001950428,-0.004030489,0.00084480835,0.8258475,0.36049518,1.0250938,3.1128407,0.0,0.39463112,0.0057797297,0.0051794033,0.0035541258,0.025829552,0.017102797,inf,inf,inf,inf,1,1,1,1,2,1,2,3,0,0,0
119515669,0,0.0,0.0,-0.7438842,0.18661016,-0.32829434,0.34895948,0.4146086,-0.25444326,0.04390022,0.06755422,0.019621653,0.015332304,-0.001950428,-0.004030489,0.00084480835,-0.90135676,-1.4386461,-0.036723305,3.1143184,0.0,0.3927151,-0.019621653,0.0052409475,0.0035942649,0.025945557,0.017171025,inf,inf,inf,inf,1,1,1,1,2,1,2,3,0,0,0
119619669,0,0.0,0.0,-0.73651654,0.19267076,-0.3228886,0.34895948,0.4146086,-0.25444326,0.051174607,0.06620291,0.055749234,0.053046446,-0.001950428,-0.004030489,0.00084480835,0.66096824,-1.5846683,-0.6437774,3.1163764,0.0,0.38730937,-0.055749234,0.005266226,0.0036117167,0.025958976,0.017184574,inf,inf,inf,inf,1,1,1,1,2,1,2,3,0,0,0
119723675,0,0.0,0.0,-0.7290076,0.198079,-0.3129105,0.34895948,0.4146086,-0.25444326,0.057710998,0.06138388,0.09098747,0.08977089,-0.001950428,-0.004030489,0.00084480835,-0.5281685,-0.9474639,-0.032841753,3.1168456,0.0,0.37733126,-0.09098747,0.0053318,0.003652948,0.02617835,0.017300004,inf,inf,inf,inf,1,1,1,1,2,1,2,3,0,0,0
119819671,0,0.0,0.0,-0.7222509,0.20273502,-0.3006959,0.34895948,0.4146086,-0.25444326,0.059626706,0.054696184,0.12149182,0.12161209,-0.001950428,-0.004030489,0.00084480835,0.9408579,-2.1158967,0.5114424,3.1181712,0.0,0.36511666,-0.12149182,0.005259636,0.0036055888,0.026027415,0.017214816,inf,inf,inf,inf,1,1,1,1,2,1,2,3,0,0,0
119923721,0,0.0,0.0,-0.7153981,0.20661956,-0.28621003,0.34895948,0.4146086,-0.25444326,0.052380398,0.049056713,0.13305618,0.13441627,-0.001950428,-0.004030489,0.00084480835,-1.684275,3.1148667,1.6083103,3.1234198,0.0,0.3506308,-0.13305618,0.005361605,0.0036705947,0.026307814,0.017383665,inf,inf,inf,inf,1,1,1,1,2,1,2,3,0,0,0
120027713,0,0.0,0.0,-0.7094785,0.21060742,-0.2704222,0.34895948,0.4146086,-0.25444326,0.03494781,0.041770786,0.14568415,0.14738883,-0.001950428,-0.004030489,0.00084480835,-1.141453,2.250044,0.20590013,3.1310952,0.0,0.33484295,-0.14568415,0.0054287384,0.0037142495,0.026461795,0.017469777,inf,inf,inf,inf,1,1,1,1,2,1,2,3,0,0,0
120123669,0,0.0,0.0,-0.7055437,0.21374887,-0.25516158,0.34895948,0.4146086,-0.25444326,0.015107599,0.013897263,0.1561101,0.1572367,-0.001950428,-0.004030489,0.00084480835,0.47817892,1.6353786,0.43137556,3.1400886,0.0,0.31958234,-0.1561101,0.0053568226,0.00366753,0.026294772,0.017361445,inf,inf,inf,inf,1,1,1,1,2,1,2,3,0,0,0
120226128,0,0.0,0.0,-0.7032417,0.21668607,-0.24102305,0.34895948,0.4146086,-0.25444326,-0.0059985924,0.0045439615,0.12800567,0.12785667,-0.001950428,-0.004030489,0.00084480835,-0.3827232,0.10512731,-0.48136055,-3.1310372,0.0,0.30544382,-0.12800567,0.005420362,0.0037085174,0.026414953,0.017429013,inf,inf,inf,inf,1,1,1,1,2,1,2,3,0,0,0
120330869,0,0.0,0.0,-0.7038805,0.21840984,-0.22988144,0.34895948,0.4146086,-0.25444326,-0.04523588,0.0035758878,0.11475378,0.11235334,-0.001950428,-0.004030489,0.00084480835,-3.343577,0.12684686,-0.11717541,-3.1182828,0.0,0.2943022,-0.11475378,0.005103075,0.0035035843,0.025615793,0.016942443,inf,inf,inf,inf,1,1,1,1,2,1,2,3,0,0,0
120434869,0,0.0,0.0,-0.7086821,0.21796335,-0.22252026,0.34895948,0.4146086,-0.25444326,-0.08079897,-0.031716548,0.10097642,0.09536409,-0.001950428,-0.004030489,0.00084480835,-1.5046471,-0.31832132,0.463251,-3.1037602,0.0,0.28694102,-0.10097642,0.0052157547,0.0035729539,0.026053851,0.017164964,inf,inf,inf,inf,1,1,1,1,2,1,2,3,0,0,0
120530868,0,0.0,0.0,-0.7172095,0.21557555,-0.21902409,0.34895948,0.4146086,-0.25444326,-0.09796307,-0.034251146,0.06609868,0.05716851,-0.001950428,-0.004030489,0.00084480835,3.144082,-1.4559926,-0.32025868,-3.0901499,0.0,0.28344485,-0.06609868,0.005156033,0.003533017,0.025903232,0.017057737,inf,inf,inf,inf,1,1,1,1,2,1,2,3,0,0,0
120634869,0,0.0,0.0,-0.7301996,0.21153212,-0.22139199,0.34895948,0.4146086,-0.25444326,-0.12756673,-0.05031111,0.0028680859,-0.009711597,-0.001950428,-0.004030489,0.00084480835,-2.9934947,-3.8411705,-0.061915394,-3.079229,0.0,0.28581274,-0.0028680859,0.0052056527,0.0035641857,0.025988247,0.017078983,inf,inf,inf,inf,1,1,1,1,2,1,2,3,0,0,0
120738868,0,0.0,0.0,-0.7463228,0.20604882,-0.23207162,0.34895948,0.4146086,-0.25444326,-0.13025275,-0.042464662,-0.06363091,-0.08016104,-0.001950428,-0.004030489,0.00084480835,-0.15474233,1.217383,0.08694678,-3.0755405,0.0,0.2964924,0.06363091,0.00526147,0.0035968928,0.026229633,0.01715835,inf,inf,inf,inf,1,1,1,1,2,1,2,3,0,0,0
120834869,0,0.0,0.0,-0.7623233,0.20025784,-0.24846368,0.34895948,0.4146086,-0.25444326,-0.1422902,-0.05462281,-0.11904228,-0.13967599,-0.001950428,-0.004030489,0.00084480835,-4.774854,-1.3075744,0.36679858,-3.0833366,0.0,0.31288445,0.11904228,0.0052069784,0.0035565917,0.026248364,0.017095413,inf,inf,inf,inf,1,1,1,1,2,1,2,3,0,0,0
120938088,0,0.0,0.0,-0.77960014,0.1925982,-0.27195302,0.34895948,0.4146086,-0.25444326,-0.12221061,-0.06450155,-0.16082068,-0.18587737,-0.001950428,-0.004030489,0.00084480835,4.1250052,0.24948415,-1.3480766,-3.0965989,0.0,0.33637378,0.16082068,0.005316017,0.0036185128,0.026640045,0.017269906,inf,inf,inf,inf,1,1,1,1,2,1,2,3,0,0,0
121042071,0,0.0,0.0,-0.7952284,0.18543369,-0.29988387,0.34895948,0.4146086,-0.25444326,-0.1389013,-0.055233993,-0.18428531,-0.21276985,-0.001950428,-0.004030489,0.00084480835,-0.16816996,1.1123184,1.6782225,-3.1163762,0.0,0.36430463,0.18428531,0.005385991,0.003658878,0.026757758,0.017334694,inf,inf,inf,inf,1,1,1,1,2,1,2,3,0,0,0
121138068,0,0.0,0.0,-0.80795527,0.17902358,-0.32685888,0.34895948,0.4146086,-0.25444326,-0.12437861,-0.05549442,-0.2111014,-0.2412703,-0.001950428,-0.004030489,0.00084480835,-0.27522966,1.9561903,-1.3059291,-3.1344323,0.0,0.39127964,0.2111014,0.0053007966,0.0036045252,0.026455667,0.01719807,inf,inf,inf,inf,1,1,1,1,2,1,2,3,0,0,0
121242104,0,0.0,0.0,-0.8198593,0.1733328,-0.35294726,0.34895948,0.4146086,-0.25444326,-0.12679021,-0.0618026,-0.17740144,-0.20737974,-0.001950428,-0.004030489,0.00084480835,1.099895,2.7713628,-0.8646805,3.1304533,0.0,0.41736802,0.17740144,0.005386082,0.0036608386,0.02655438,0.01734212,inf,inf,inf,inf,1,1,1,1,2,1,2,3,0,0,0
121346071,0,0.0,0.0,-0.82950366,0.16882718,-0.37354317,0.34895948,0.4146086,-0.25444326,-0.12084011,-0.069148436,-0.14309934,-0.17025289,-0.001950428,-0.004030489,0.00084480835,-0.40631893,1.1826468,-1.5724727,3.1133223,0.0,0.43796393,0.14309934,0.0054376973,0.0037002594,0.026545467,0.017429056,inf,inf,inf,inf,1,1,1,1,2,1,2,3,0,0,0
121450075,0,0.0,0.0,-0.8379826,0.16350357,-0.38788643,0.34895948,0.4146086,-0.25444326,-0.11722944,-0.079021476,-0.11907649,-0.1409447,-0.001950428,-0.004030489,0.00084480835,0.9439214,-2.460563,2.4161625,3.1034145,0.0,0.4523072,0.11907649,0.005109282,0.0034999335,0.025608378,0.016951025,inf,inf,inf,inf,1,1,1,1,2,1,2,3,0,0,0
121553330,0,0.0,0.0,-0.8459698,0.15854119,-0.39559045,0.34895948,0.4146086,-0.25444326,-0.1202841,-0.08910419,-0.086918876,-0.10223781,-0.001950428,-0.004030489,0.00084480835,0.6797008,-1.622448,0.93297815,3.0980172,0.0,0.4600112,0.086918876,0.00517804,0.003549897,0.025794804,0.017099483,inf,inf,inf,inf,1,1,1,1,2,1,2,3,0,0,0
121649268,0,0.0,0.0,-0.85370505,0.15260105,-0.39805302,0.34895948,0.4146086,-0.25444326,-0.1285932,-0.09554229,-0.04949336,-0.058864105,-0.001950428,-0.004030489,0.00084480835,-1.2383443,0.7284274,2.5388632,3.0967064,0.0,0.46247378,0.04949336,0.0050831623,0.0034919498,0.025534306,0.016926225,inf,inf,inf,inf,1,1,1,1,2,1,2,3,0,0,0
121753268,0,0.0,0.0,-0.8628165,0.14608991,-0.39649066,0.34895948,0.4146086,-0.25444326,-0.12882835,-0.099296495,-0.030753214,-0.034569953,-0.001950428,-0.004030489,0.00084480835,-1.14403,-0.31819487,0.26361513,3.0972967,0.0,0.46091142,0.030753214,0.00516823,0.0035474452,0.025812618,0.017092206,inf,inf,inf,inf,1,1,1,1,2,1,2,3,0,0,0
121857269,0,0.0,0.0,-0.8724558,0.13876247,-0.39328414,0.34895948,0.4146086,-0.25444326,-0.1129354,-0.08481567,-0.01976369,-0.019485487,-0.001950428,-0.004030489,0.00084480835,-1.2078952,0.021686226,-0.9978919,3.100856,0.0,0.4577049,0.01976369,0.0052571124,0.0036039688,0.02607363,0.017231459,inf,inf,inf,inf,1,1,1,1,2,1,2,3,0,0,0
121961269,0,0.0,0.0,-0.88051605,0.13231367,-0.38929847,0.34895948,0.4146086,-0.25444326,-0.089789435,-0.07945694,0.0006780952,0.0032588048,-0.001950428,-0.004030489,0.00084480835,-0.5017839,2.9526532,-0.28730237,3.1058927,0.0,0.45371923,-0.0006780952,0.0053143045,0.0036403958,0.026187997,0.017280508,inf,inf,inf,inf,1,1,1,1,2,1,2,3,0,0,0
122056493,0,0.0,0.0,-0.88601786,0.12637162,-0.38481852,0.34895948,0.4146086,-0.25444326,-0.06448003,-0.07161014,0.022978881,0.026093923,-0.001950428,-0.004030489,0.00084480835,2.8659406,-4.185295,-1.3247657,3.113135,0.0,0.44923928,-0.022978881,0.005256387,0.0036010335,0.026082303,0.017210927,inf,inf,inf,inf,1,1,1,1,2,1,2,3,0,0,0
122160468,0,0.0,0.0,-0.888224,0.11978828,-0.37986973,0.34895948,0.4146086,-0.25444326,-0.022572983,-0.07029778,0.032654565,0.035317976,-0.001950428,-0.004030489,0.00084480835,1.2516167,-1.7485689,-0.53099835,3.12192,0.0,0.4442905,-0.032654565,0.0052991915,0.0036286665,0.026135916,0.017252998,inf,inf,inf,inf,1,1,1,1,2,1,2,3,0,0,0
122264475,0,0.0,0.0,-0.8849397,0.11439616,-0.37707254,0.34895948,0.4146086,-0.25444326,0.032408405,-0.07052026,0.027140412,0.02866228,-0.001950428,-0.004030489,0.00084480835,0.6235344,-3.648413,-0.113962434,3.129849,0.0,0.4414933,-0.027140412,0.0053692525,0.0036731353,0.026351217,0.017391143,inf,inf,inf,inf,1,1,1,1,2,1,2,3,0,0,0
122360495,0,0.0,0.0,-0.87646496,0.10988342,-0.37535813,0.34895948,0.4146086,-0.25444326,0.08636878,-0.042836674,0.024968302,0.024786364,-0.001950428,-0.004030489,0.00084480835,-1.7212907,3.072648,1.7672616,3.1382332,0.0,0.4397789,-0.024968302,0.0052751224,0.003612661,0.026090033,0.017215744,inf,inf,inf,inf,1,1,1,1,2,1,2,3,0,0,0
122464468,0,0.0,0.0,-0.86020124,0.10718111,-0.3742075,0.34895948,0.4146086,-0.25444326,0.14973393,-0.043862686,0.03495693,0.032465708,-0.001950428,-0.004030489,0.00084480835,0.012407978,-3.2487118,-0.513418,-3.138394,0.0,0.43862826,-0.03495693,0.0053473013,0.0036596186,0.026263403,0.017329227,inf,inf,inf,inf,1,1,1,1,2,1,2,3,0,0,0
122568489,0,0.0,0.0,-0.8368061,0.10653152,-0.3732544,0.34895948,0.4146086,-0.25444326,0.20939545,-0.034984548,0.047935825,0.04312199,-0.001950428,-0.004030489,0.00084480835,2.4082003,1.6751226,-0.30701816,-3.1314497,0.0,0.43767515,-0.047935825,0.0050630313,0.0034764335,0.025552887,0.016913135,inf,inf,inf,inf,1,1,1,1,2,1,2,3,0,0,0
122664469,0,0.0,0.0,-0.81004035,0.10724463,-0.37192664,0.34895948,0.4146086,-0.25444326,0.24200365,-0.02093202,0.03074438,0.024223875,-0.001950428,-0.004030489,0.00084480835,-0.8151104,-1.5069082,-0.72830164,-3.1246116,0.0,0.4363474,-0.03074438,0.0053674635,0.0036721162,0.026345601,0.017375024,inf,inf,inf,inf,1,1,1,1,2,1,2,3,0,0,0
122771672,0,0.0,0.0,-0.77509797,0.10921147,-0.37392887,0.34895948,0.4146086,-0.25444326,0.27755266,-0.012459385,-0.023957886,-0.03177079,-0.001950428,-0.004030489,0.00084480835,-0.27912626,0.00036568288,-1.5406632,-3.1138263,0.0,0.43834963,0.023957886,0.005117513,0.0035108272,0.025737366,0.01702691,inf,inf,inf,inf,1,1,1,1,2,1,2,3,0,0,0
122867669,0,0.0,0.0,-0.7402837,0.1120532,-0.3818497,0.34895948,0.4146086,-0.25444326,0.30544657,-0.0028647864,-0.07925983,-0.08854891,-0.001950428,-0.004030489,0.00084480835,5.255447,1.9929621,-1.8343135,-3.1009924,0.0,0.44627047,0.07925983,0.0050805775,0.003486364,0.025649916,0.01694898,inf,inf,inf,inf,1,1,1,1,2,1,2,3,0,0,0
122971690,0,0.0,0.0,-0.70178854,0.11529337,-0.39816794,0.34895948,0.4146086,-0.25444326,0.2821602,-0.003615076,-0.13826996,-0.15049611,-0.001950428,-0.004030489,0.00084480835,-1.647948,-0.18011725,1.1738559,-3.0835452,0.0,0.4625887,0.13826996,0.005204885,0.003565885,0.02618253,0.017220825,inf,inf,inf,inf,1,1,1,1,2,1,2,3,0,0,0
123075672,0,0.0,0.0,-0.666152,0.11885299,-0.42280382,0.34895948,0.4146086,-0.25444326,0.26287898,0.008206345,-0.21012327,-0.22665043,-0.001950428,-0.004030489,0.00084480835,-2.755824,-0.08064977,-0.7823938,-3.0653687,0.0,0.48722458,0.21012327,0.0052351067,0.0035827304,0.026248978,0.017181577,inf,inf,inf,inf,1,1,1,1,2,1,2,3,0,0,0
123171668,0,0.0,0.0,-0.63822,0.12243576,-0.4539674,0.34895948,0.4146086,-0.25444326,0.23999333,0.013673028,-0.27351135,-0.2945599,-0.001950428,-0.004030489,0.00084480835,-1.9377453,-2.6983447,-0.14914131,-3.0520651,0.0,0.51838815,0.27351135,0.00515133,0.0035242422,0.026064824,0.017033368,inf,inf,inf,inf,1,1,1,1,2,1,2,3,0,0,0
123275669,0,0.0,0.0,-0.61462307,0.12672375,-0.49518925,0.34895948,0.4146086,-0.25444326,0.20765649,0.03756075,-0.3245588,-0.35047334,-0.001950428,-0.004030489,0.00084480835,1.0472621,2.1523533,1.7846979,-3.0392077,0.0,0.55961,0.3245588,0.0052523757,0.0035819232,0.026458962,0.01719393,inf,inf,inf,inf,1,1,1,1,2,1,2,3,0,0,0
123379669,0,0.0,0.0,-0.59816986,0.13160399,-0.5412609,0.34895948,0.4146086,-0.25444326,0.17747009,0.047963027,-0.36221507,-0.39208606,-0.001950428,-0.004030489,0.00084480835,-1.2022289,-2.464633,-0.7395343,-3.030611,0.0,0.60568166,0.36221507,0.0053377566,0.0036306896,0.02669197,0.017287416,inf,inf,inf,inf,1,1,1,1,2,1,2,3,0,0,0
123482868,0,0.0,0.0,-0.5883016,0.13734914,-0.58814806,0.34895948,0.4146086,-0.25444326,0.14682359,0.057651065,-0.36522228,-0.39700356,-0.001950428,-0.004030489,0.00084480835,-2.4666078,-2.754588,0.8508789,-3.0287838,0.0,0.6525688,0.36522228,0.0053887595,0.003660376,0.026749212,0.017314536,inf,inf,inf,inf,1,1,1,1,2,1,2,3,0,0,0
123586869,0,0.0,0.0,-0.5847498,0.14406893,-0.6325926,0.34895948,0.4146086,-0.25444326,0.111030646,0.06718087,-0.36383045,-0.39468685,-0.001950428,-0.004030489,0.00084480835,-2.5029335,-2.7997813,-0.8151274,-3.0319343,0.0,0.6970134,0.36383045,0.0054671206,0.003707225,0.026976692,0.017450733,inf,inf,inf,inf,1,1,1,1,2,1,2,3,0,0,0
123682868,0,0.0,0.0,-0.5853962,0.15162142,-0.6702416,0.34895948,0.4146086,-0.25444326,0.09992184,0.08444054,-0.35635248,-0.38416559,-0.001950428,-0.004030489,0.00084480835,2.3431704,0.26400933,-0.4453799,-3.038128,0.0,0.73466235,0.35635248,0.00539284,0.0036604458,0.026750859,0.017355716,inf,inf,inf,inf,1,1,1,1,2,1,2,3,0,0,0
123786869,0,0.0,0.0,-0.58841,0.16065387,-0.70683306,0.34895948,0.4146086,-0.25444326,0.06779857,0.08340564,-0.3244506,-0.34743312,-0.001950428,-0.004030489,0.00084480835,-0.20126921,-0.36733863,1.522745,-3.048269,0.0,0.7712538,0.3244506,0.005128836,0.0034959577,0.026013764,0.016975597,inf,inf,inf,inf,1,1,1,1,2,1,2,3,0,0,0
123890869,0,0.0,0.0,-0.5917668,0.16977482,-0.7366877,0.34895948,0.4146086,-0.25444326,0.050524928,0.098520756,-0.28210324,-0.2992809,-0.001950428,-0.004030489,0.00084480835,1.3867793,1.8207768,0.106155746,-3.0584035,0.0,0.8011085,0.28210324,0.0051608267,0.0035203442,0.025952158,0.016973902,inf,inf,inf,inf,1,1,1,1,2,1,2,3,0,0,0
123994882,0,0.0,0.0,-0.5937763,0.17845057,-0.75918406,0.34895948,0.4146086,-0.25444326,0.039826196,0.08678515,-0.23870519,-0.24929464,-0.001950428,-0.004030489,0.00084480835,2.1331382,6.2876472,0.1753263,-3.067419,0.0,0.8236048,0.23870519,0.0052153068,0.003558011,0.026043337,0.017077766,inf,inf,inf,inf,1,1,1,1,2,1,2,3,0,0,0
124098076,0,0.0,0.0,-0.59333575,0.18610424,-0.7756518,0.34895948,0.4146086,-0.25444326,0.033653364,0.065628745,-0.20146194,-0.20541799,-0.001950428,-0.004030489,0.00084480835,4.4409313,1.5475429,-0.36048973,-3.0774364,0.0,0.8400726,0.20146194,0.005248501,0.0035839784,0.026042167,0.017125135,inf,inf,inf,inf,1,1,1,1,2,1,2,3,0,0,0
124194088,0,0.0,0.0,-0.59004045,0.19252218,-0.7863245,0.34895948,0.4146086,-0.25444326,0.056873035,0.07026182,-0.14930287,-0.14774856,-0.001950428,-0.004030489,0.00084480835,4.925366,1.9757885,-0.15313959,-3.0861223,0.0,0.85074526,0.14930287,0.005164146,0.0035332942,0.025831902,0.017040242,inf,inf,inf,inf,1,1,1,1,2,1,2,3,0,0,0
124298097,0,0.0,0.0,-0.5841628,0.19813292,-0.79082596,0.34895948,0.4146086,-0.25444326,0.034350578,0.042479157,-0.07462684,-0.06854769,-0.001950428,-0.004030489,0.00084480835,0.96857345,-1.4587989,1.6746206,-3.0930119,0.0,0.8552467,0.07462684,0.005252061,0.0035917785,0.026076427,0.017204482,inf,inf,inf,inf,1,1,1,1,2,1,2,3,0,0,0
124402075,0,0.0,0.0,-0.5771543,0.20199375,-0.7878431,0.34895948,0.4146086,-0.25444326,0.028927736,0.03749664,-0.009125012,0.0004977474,-0.001950428,-0.004030489,0.00084480835,-5.641989,-0.23081931,0.43213436,-3.099827,0.0,0.85226387,0.009125012,0.005331848,0.003646369,0.026231661,0.017324394,inf,inf,inf,inf,1,1,1,1,2,1,2,3,0,0,0
124498069,0,0.0,0.0,-0.5698427,0.20428005,-0.7797847,0.34895948,0.4146086,-0.25444326,0.040379383,0.024718536,0.04129488,0.053870305,-0.001950428,-0.004030489,0.00084480835,-1.0813289,-1.3476124,-0.20306748,-3.1058736,0.0,0.84420544,-0.04129488,0.005250704,0.0035973238,0.026002098,0.017210195,inf,inf,inf,inf,1,1,1,1,2,1,2,3,0,0,0
124602069,0,0.0,0.0,-0.5599041,0.20527343,-0.766319,0.34895948,0.4146086,-0.25444326,0.06717364,0.009462432,0.08490888,0.10001076,-0.001950428,-0.004030489,0.00084480835,-0.28739876,-1.3727074,-0.13143846,-3.1122465,0.0,0.83073974,-0.08490888,0.0053475196,0.0036611399,0.026278576,0.017383106,inf,inf,inf,inf,1,1,1,1,2,1,2,3,0,0,0
124705308,0,0.0,0.0,-0.54780376,0.20533371,-0.7489182,0.34895948,0.4146086,-0.25444326,0.089465946,0.007936797,0.13246189,0.14883551,-0.001950428,-0.004030489,0.00084480835,2.0241027,1.2661026,-0.10573541,-3.1160872,0.0,0.81333894,-0.13246189,0.005391719,0.0036919988,0.026331345,0.017416395,inf,inf,inf,inf,1,1,1,1,2,1,2,3,0,0,0
124805315,0,0.0,0.0,-0.5329409,0.20459402,-0.7296323,0.34895948,0.4146086,-0.25444326,0.12564443,-0.009119331,0.16954155,0.18588315,-0.001950428,-0.004030489,0.00084480835,0.53601176,1.600107,0.712263,-3.116851,0.0,0.7940531,-0.16954155,0.0053069824,0.0036377767,0.02611517,0.017279737,inf,inf,inf,inf,1,1,1,1,2,1,2,3,0,0,0
124909289,0,0.0,0.0,-0.5134274,0.2025013,-0.70736367,0.34895948,0.4146086,-0.25444326,0.16070572,-0.014732785,0.20098495,0.21615677,-0.001950428,-0.004030489,0.00084480835,0.44861186,1.1524119,0.76388025,-3.115245,0.0,0.7717844,-0.20098495,0.0050858776,0.0034939544,0.025641412,0.017015068,inf,inf,inf,inf,1,1,1,1,2,1,2,3,0,0,0
125013268,0,0.0,0.0,-0.49018282,0.19935307,-0.682719,0.34895948,0.4146086,-0.25444326,0.19714977,-0.028294567,0.2472869,0.2603037,-0.001950428,-0.004030489,0.00084480835,3.5760202,0.5557146,-0.9360368,-3.1125324,0.0,0.74713975,-0.2472869,0.0052123475,0.0035774875,0.02603645,0.017281849,inf,inf,inf,inf,1,1,1,1,2,1,2,3,0,0,0
125117275,0,0.0,0.0,-0.46490747,0.19527996,-0.65567327,0.34895948,0.4146086,-0.25444326,0.19307849,-0.051309388,0.26594752,0.27616808,-0.001950428,-0.004030489,0.00084480835,0.60308176,-2.3077164,-0.32563415,-3.1096668,0.0,0.720094,-0.26594752,0.00527928,0.0036218336,0.026139388,0.017328264,inf,inf,inf,inf,1,1,1,1,2,1,2,3,0,0,0
125213283,0,0.0,0.0,-0.43969986,0.19045301,-0.6312716,0.34895948,0.4146086,-0.25444326,0.22035575,-0.05375612,0.26234844,0.26996526,-0.001950428,-0.004030489,0.00084480835,2.1864989,0.7692819,0.97543156,-3.1080518,0.0,0.69569236,-0.26234844,0.0051922714,0.0035661978,0.02584665,0.017149674,inf,inf,inf,inf,1,1,1,1,2,1,2,3,0,0,0
125318081,0,0.0,0.0,-0.4106873,0.18483461,-0.6064652,0.34895948,0.4146086,-0.25444326,0.21321031,-0.061928,0.2574043,0.2618127,-0.001950428,-0.004030489,0.00084480835,3.5922072,-0.58992666,-0.9241777,-3.1070237,0.0,0.670886,-0.2574043,0.0052489387,0.0036025075,0.0259906,0.017216893,inf,inf,inf,inf,1,1,1,1,2,1,2,3,0,0,0
125420477,0,0.0,0.0,-0.3823594,0.1788031,-0.5839505,0.34895948,0.4146086,-0.25444326,0.17920278,-0.07700684,0.25622836,0.25664136,-0.001950428,-0.004030489,0.00084480835,-0.6284507,-1.1548158,1.7485652,-3.105401,0.0,0.6483713,-0.25622836,0.0053067054,0.0036382491,0.026159588,0.017283231,inf,inf,inf,inf,1,1,1,1,2,1,2,3,0,0,0
125516474,0,0.0,0.0,-0.35827208,0.17248823,-0.56479686,0.34895948,0.4146086,-0.25444326,0.18322222,-0.08273719,0.24464492,0.24092413,-0.001950428,-0.004030489,0.00084480835,4.649182,0.052231863,-0.35140845,-3.1051173,0.0,0.6292176,-0.24464492,0.0052015763,0.0035688495,0.025899617,0.017116338,inf,inf,inf,inf,1,1,1,1,2,1,2,3,0,0,0
125620470,0,0.0,0.0,-0.33635023,0.1639099,-0.5471293,0.34895948,0.4146086,-0.25444326,0.14927593,-0.10678795,0.22375846,0.21556576,-0.001950428,-0.004030489,0.00084480835,0.9146162,0.15959686,1.6539788,-3.1059935,0.0,0.61155003,-0.22375846,0.005287505,0.003621585,0.02616911,0.01726087,inf,inf,inf,inf,1,1,1,1,2,1,2,3,0,0,0
125724474,0,0.0,0.0,-0.32002935,0.15300311,-0.53152233,0.34895948,0.4146086,-0.25444326,0.11372472,-0.12746602,0.21062627,0.1983518,-0.001950428,-0.004030489,0.00084480835,-5.431151,-3.8332317,1.1508752,-3.1066873,0.0,0.5959431,-0.21062627,0.0054190415,0.0037027409,0.026597554,0.017492134,inf,inf,inf,inf,1,1,1,1,2,1,2,3,0,0,0
125828468,0,0.0,0.0,-0.3085724,0.13968337,-0.518342,0.34895948,0.4146086,-0.25444326,0.12391637,-0.13223703,0.1773272,0.16157064,-0.001950428,-0.004030489,0.00084480835,-0.616358,0.2950145,-0.32565105,-3.105347,0.0,0.5827628,-0.1773272,0.005109245,0.0035040723,0.02570882,0.016967406,inf,inf,inf,inf,1,1,1,1,2,1,2,3,0,0,0
125932514,0,0.0,0.0,-0.29971966,0.12482535,-0.50984937,0.34895948,0.4146086,-0.25444326,0.12830435,-0.13904935,0.13289852,0.11416807,-0.001950428,-0.004030489,0.00084480835,5.7115517,3.3771274,-0.16320147,-3.103075,0.0,0.5742701,-0.13289852,0.0051712263,0.0035433387,0.02586516,0.017055959,inf,inf,inf,inf,1,1,1,1,2,1,2,3,0,0,0
126027684,0,0.0,0.0,-0.29322678,0.11045071,-0.50587535,0.34895948,0.4146086,-0.25444326,0.12413705,-0.13709053,0.09530816,0.07393628,-0.001950428,-0.004030489,0.00084480835,2.5935085,-0.09581255,-1.6047134,-3.1003098,0.0,0.5702961,-0.09530816,0.005471266,0.003733968,0.02670633,0.017512217,inf,inf,inf,inf,1,1,1,1,2,1,2,3,0,0,0
126131669,0,0.0,0.0,-0.28745002,0.095027134,-0.50529623,0.34895948,0.4146086,-0.25444326,0.09658568,-0.1232951,0.06699437,0.042762697,-0.001950428,-0.004030489,0.00084480835,1.6235696,0.8236565,0.904093,-3.0987365,0.0,0.569717,-0.06699437,0.0051567364,0.0035314995,0.025876144,0.017027194,inf,inf,inf,inf,1,1,1,1,2,1,2,3,0,0,0
126235682,0,0.0,0.0,-0.2819624,0.07998641,-0.50796235,0.34895948,0.4146086,-0.25444326,0.08469064,-0.12718584,0.03135018,0.0047998005,-0.001950428,-0.004030489,0.00084480835,-1.1076866,-3.203032,-1.3444487,-3.0972838,0.0,0.5723831,-0.03135018,0.005194962,0.003555464,0.025931638,0.017056402,inf,inf,inf,inf,1,1,1,1,2,1,2,3,0,0,0
126339669,0,0.0,0.0,-0.27625734,0.06522346,-0.5134493,0.34895948,0.4146086,-0.25444326,0.06718359,-0.11685788,0.011400546,-0.016576018,-0.001950428,-0.004030489,0.00084480835,-1.3621399,0.055203702,1.5026516,-3.096414,0.0,0.5778701,-0.011400546,0.0052923737,0.0036158233,0.026263306,0.01725196,inf,inf,inf,inf,1,1,1,1,2,1,2,3,0,0,0
126443669,0,0.0,0.0,-0.2702041,0.051295884,-0.5205007,0.34895948,0.4146086,-0.25444326,0.05822243,-0.12359883,-0.021055387,-0.04931463,-0.001950428,-0.004030489,0.00084480835,3.9022508,-0.24275821,-0.8910022,-3.0934784,0.0,0.5849215,0.021055387,0.005391338,0.0036786022,0.026543975,0.017412366,inf,inf,inf,inf,1,1,1,1,2,1,2,3,0,0,0
126539675,0,0.0,0.0,-0.26428762,0.03920996,-0.5283259,0.34895948,0.4146086,-0.25444326,0.03908396,-0.12889825,-0.044675212,-0.07222471,-0.001950428,-0.004030489,0.00084480835,-2.9090729,1.7811204,-0.29238182,-3.0898368,0.0,0.5927467,0.044675212,0.0052986857,0.003621189,0.026225176,0.017246896,inf,inf,inf,inf,1,1,1,1,2,1,2,3,0,0,0
126642869,0,0.0,0.0,-0.25863877,0.026698224,-0.53726816,0.34895948,0.4146086,-0.25444326,0.032667194,-0.15255204,-0.035566427,-0.06162375,-0.001950428,-0.004030489,0.00084480835,2.9801157,-0.08545564,0.17101683,-3.0850596,0.0,0.6016889,0.035566427,0.0053667543,0.0036657834,0.026377844,0.017334867,inf,inf,inf,inf,1,1,1,1,2,1,2,3,0,0,0
126746897,0,0.0,0.0,-0.25631666,0.01197807,-0.53869665,0.34895948,0.4146086,-0.25444326,-0.007644591,-0.16650279,0.04497828,0.021102611,-0.001950428,-0.004030489,0.00084480835,0.37621996,-0.35376227,0.5214823,-3.0763729,0.0,0.6031174,-0.04497828,0.0050741495,0.0034785992,0.025638735,0.01691468,inf,inf,inf,inf,1,1,1,1,2,1,2,3,0,0,0
126850869,0,0.0,0.0,-0.25723356,-0.004627102,-0.5328313,0.34895948,0.4146086,-0.25444326,-0.0207989,-0.18810791,0.07338857,0.053554237,-0.001950428,-0.004030489,0.00084480835,3.3263676,0.38256586,-0.8869107,-3.0700145,0.0,0.5972521,-0.07338857,0.005147092,0.0035265454,0.025741575,0.017038189,inf,inf,inf,inf,1,1,1,1,2,1,2,3,0,0,0
126954869,0,0.0,0.0,-0.26153105,-0.025661744,-0.5231978,0.34895948,0.4146086,-0.25444326,-0.06038804,-0.22133209,0.061955903,0.048127223,-0.001950428,-0.004030489,0.00084480835,-0.39153132,-0.263854,2.0628357,-3.0623941,0.0,0.5876186,-0.061955903,0.005197808,0.003563924,0.025814328,0.01709853,inf,inf,inf,inf,1,1,1,1,2,1,2,3,0,0,0
127050875,0,0.0,0.0,-0.26904282,-0.049120273,-0.51389825,0.34895948,0.4146086,-0.25444326,-0.07695377,-0.23953979,0.041278377,0.0329269,-0.001950428,-0.004030489,0.00084480835,2.1196933,-0.42003298,-3.163584,-3.0541716,0.0,0.578319,-0.041278377,0.0055318596,0.003779172,0.026742755,0.017635858,inf,inf,inf,inf,1,1,1,1,2,1,2,3,0,0,0
127154875,0,0.0,0.0,-0.2807603,-0.07905749,-0.5079597,0.34895948,0.4146086,-0.25444326,-0.1181619,-0.27034536,-0.0075918376,-0.01228349,-0.001950428,-0.004030489,0.00084480835,-2.386581,1.027553,0.5591487,-3.0434337,0.0,0.5723805,0.0075918376,0.005190146,0.0035606988,0.025849326,0.017091313,inf,inf,inf,inf,1,1,1,1,2,1,2,3,0,0,0
127258888,0,0.0,0.0,-0.29561386,-0.113203906,-0.50942785,0.34895948,0.4146086,-0.25444326,-0.14293708,-0.29246014,-0.0605334,-0.06478216,-0.001950428,-0.004030489,0.00084480835,-0.8351545,-0.29704195,0.2936658,-3.0323093,0.0,0.5738486,0.0605334,0.005265646,0.0036074328,0.02613618,0.01721514,inf,inf,inf,inf,1,1,1,1,2,1,2,3,0,0,0
127354075,0,0.0,0.0,-0.3115588,-0.14704242,-0.519251,0.34895948,0.4146086,-0.25444326,-0.16465852,-0.31274498,-0.11869293,-0.12536341,-0.001950428,-0.004030489,0.00084480835,2.5849957,0.029995613,-0.12666951,-3.023095,0.0,0.58367175,0.11869293,0.0052030412,0.0035638753,0.02605358,0.01711313,inf,inf,inf,inf,1,1,1,1,2,1,2,3,0,0,0
127458069,0,0.0,0.0,-0.33059043,-0.1849121,-0.54002506,0.34895948,0.4146086,-0.25444326,-0.1751454,-0.29448453,-0.20302497,-0.2143429,-0.001950428,-0.004030489,0.00084480835,1.8694804,-1.9881698,-2.363227,-3.0131638,0.0,0.6044458,0.20302497,0.0056474977,0.0038430819,0.027233822,0.017729856,inf,inf,inf,inf,1,1,1,1,2,1,2,3,0,0,0
127562069,0,0.0,0.0,-0.3484198,-0.21625462,-0.5718418,0.34895948,0.4146086,-0.25444326,-0.15264742,-0.24977249,-0.2565862,-0.27384263,-0.001950428,-0.004030489,0.00084480835,2.0284727,-0.38343146,-0.11567591,-3.0117335,0.0,0.63626254,0.2565862,0.0052165375,0.0035656071,0.026123218,0.017049026,inf,inf,inf,inf,1,1,1,1,2,1,2,3,0,0,0
127666068,0,0.0,0.0,-0.36332628,-0.24282132,-0.6105693,0.34895948,0.4146086,-0.25444326,-0.127102,-0.20406309,-0.28426954,-0.30762193,-0.001950428,-0.004030489,0.00084480835,0.02879669,-0.90111727,1.6403232,-3.0110495,0.0,0.67499006,0.28426954,0.005253725,0.0035836902,0.026330205,0.017131377,inf,inf,inf,inf,1,1,1,1,2,1,2,3,0,0,0
127770077,0,0.0,0.0,-0.3762424,-0.2637388,-0.6498014,0.34895948,0.4146086,-0.25444326,-0.104934834,-0.15403841,-0.27309662,-0.30096385,-0.001950428,-0.004030489,0.00084480835,4.3863683,3.1375701,1.0697211,-3.0064793,0.0,0.71422213,0.27309662,0.0053272755,0.0036256532,0.026561413,0.01726567,inf,inf,inf,inf,1,1,1,1,2,1,2,3,0,0,0
127865331,0,0.0,0.0,-0.38626555,-0.27972782,-0.68403184,0.34895948,0.4146086,-0.25444326,-0.09054521,-0.14092426,-0.2772896,-0.30663082,-0.001950428,-0.004030489,0.00084480835,1.3671616,1.9126062,-1.9691255,-3.005364,0.0,0.7484526,0.2772896,0.0055849785,0.003789232,0.027048359,0.017620092,inf,inf,inf,inf,1,1,1,1,2,1,2,3,0,0,0
127973275,0,0.0,0.0,-0.39506856,-0.2912454,-0.71895087,0.34895948,0.4146086,-0.25444326,-0.08282048,-0.12800139,-0.2828373,-0.3099711,-0.001950428,-0.004030489,0.00084480835,-0.03488811,-2.4372194,-1.0509304,-3.0070894,0.0,0.7833716,0.2828373,0.0051980526,0.0035504021,0.025975723,0.017065838,inf,inf,inf,inf,1,1,1,1,2,1,2,3,0,0,0
128069269,0,0.0,0.0,-0.39968714,-0.2972031,-0.7464432,0.34895948,0.4146086,-0.25444326,-0.08834816,-0.12227922,-0.27047047,-0.29309332,-0.001950428,-0.004030489,0.00084480835,-0.8151854,2.394099,-0.2791857,-3.0058594,0.0,0.810864,0.27047047,0.005122453,0.003505582,0.025868995,0.01704634,inf,inf,inf,inf,1,1,1,1,2,1,2,3,0,0,0
128173287,0,0.0,0.0,-0.40150025,-0.2986687,-0.77273625,0.34895948,0.4146086,-0.25444326,-0.09783677,-0.109697096,-0.26152837,-0.27831596,-0.001950428,-0.004030489,0.00084480835,-5.1029606,-0.9074097,-0.13843802,-3.006881,0.0,0.837157,0.26152837,0.005198686,0.0035568916,0.026095092,0.017207492,inf,inf,inf,inf,1,1,1,1,2,1,2,3,0,0,0
128277269,0,0.0,0.0,-0.40224862,-0.29855204,-0.79516953,0.34895948,0.4146086,-0.25444326,-0.092838414,-0.073976174,-0.2277879,-0.23905516,-0.001950428,-0.004030489,0.00084480835,-1.0410284,4.235743,1.6854321,-3.0083265,0.0,0.8595903,0.2277879,0.0052589425,0.0035979096,0.026173962,0.01725554,inf,inf,inf,inf,1,1,1,1,2,1,2,3,0,0,0
128373269,0,0.0,0.0,-0.4048617,-0.29691094,-0.81263703,0.34895948,0.4146086,-0.25444326,-0.082337715,-0.056285802,-0.21566458,-0.22263111,-0.001950428,-0.004030489,0.00084480835,1.8589268,-1.4758177,-0.87236017,-3.0145445,0.0,0.8770578,0.21566458,0.005170207,0.0035427546,0.025878312,0.017090527,inf,inf,inf,inf,1,1,1,1,2,1,2,3,0,0,0
128477275,0,0.0,0.0,-0.41093865,-0.29626256,-0.8304253,0.34895948,0.4146086,-0.25444326,-0.085225105,-0.015342172,-0.20313211,-0.2063013,-0.001950428,-0.004030489,0.00084480835,0.68512374,3.9109395,1.9553163,-3.022675,0.0,0.8948461,0.20313211,0.00522642,0.0035802976,0.025982149,0.017158024,inf,inf,inf,inf,1,1,1,1,2,1,2,3,0,0,0
128581269,0,0.0,0.0,-0.42131007,-0.29492804,-0.84857804,0.34895948,0.4146086,-0.25444326,-0.11021063,0.01264044,-0.2133122,-0.213825,-0.001950428,-0.004030489,0.00084480835,-1.154612,-0.3339782,-0.67625767,-3.0303738,0.0,0.9129988,0.2133122,0.005303508,0.0036300507,0.026216934,0.017308591,inf,inf,inf,inf,1,1,1,1,2,1,2,3,0,0,0
128684469,0,0.0,0.0,-0.4358793,-0.2932628,-0.86844575,0.34895948,0.4146086,-0.25444326,-0.117740504,0.016304433,-0.23343033,-0.23288383,-0.001950428,-0.004030489,0.00084480835,-0.1539033,-3.2815466,-0.82087874,-3.0396488,0.0,0.9328665,0.23343033,0.005406991,0.0036965355,0.026504343,0.017470768,inf,inf,inf,inf,1,1,1,1,2,1,2,3,0,0,0
128788469,0,0.0,0.0,-0.45190766,-0.29047635,-0.8908801,0.34895948,0.4146086,-0.25444326,-0.124951385,0.036128577,-0.22706285,-0.22688532,-0.001950428,-0.004030489,0.00084480835,-0.10855874,1.214284,-1.3461317,-3.0493546,0.0,0.95530087,0.22706285,0.0054620616,0.0037325951,0.026587918,0.017512377,inf,inf,inf,inf,1,1,1,1,2,1,2,3,0,0,0
128884511,0,0.0,0.0,-0.46655148,-0.2859379,-0.9109791,0.34895948,0.4146086,-0.25444326,-0.1282767,0.055233154,-0.18587632,-0.18694848,-0.001950428,-0.004030489,0.00084480835,1.5940021,3.1750307,1.9679191,-3.060032,0.0,0.97539985,0.18587632,0.0053952625,0.0036893708,0.026452731,0.017439686,inf,inf,inf,inf,1,1,1,1,2,1,2,3,0,0,0
128988496,0,0.0,0.0,-0.4808021,-0.27945575,-0.92951775,0.34895948,0.4146086,-0.25444326,-0.10747896,0.05339016,-0.15489653,-0.15706259,-0.001950428,-0.004030489,0.00084480835,5.1872807,-0.84636307,0.38666984,-3.0748322,0.0,0.9939385,0.15489653,0.0054671117,0.0037361586,0.026589224,0.017532079,inf,inf,inf,inf,1,1,1,1,2,1,2,3,0,0,0
129092469,0,0.0,0.0,-0.4912293,-0.27120134,-0.9434628,0.34895948,0.4146086,-0.25444326,-0.09518319,0.06768591,-0.109417126,-0.11129547,-0.001950428,-0.004030489,0.00084480835,-1.7640922,-0.52967125,0.9819556,-3.0925643,0.0,1.0078835,0.109417126,0.0051515265,0.003535161,0.025732514,0.01706103,inf,inf,inf,inf,1,1,1,1,2,1,2,3,0,0,0
129188475,0,0.0,0.0,-0.49668407,-0.26319438,-0.95157856,0.34895948,0.4146086,-0.25444326,-0.03321262,0.07266235,-0.07921243,-0.07968088,-0.001950428,-0.004030489,0.00084480835,4.904572,-1.1250685,-0.48473272,-3.1071773,0.0,1.0159993,0.07921243,0.005087984,0.003495246,0.025587153,0.016980039,inf,inf,inf,inf,1,1,1,1,2,1,2,3,0,0,0
129291675,0,0.0,0.0,-0.49625263,-0.2541284,-0.95537186,0.34895948,0.4146086,-0.25444326,0.019312313,0.10255497,-0.043410692,-0.041659497,-0.001950428,-0.004030489,0.00084480835,-4.5904427,3.1269097,0.9068,-3.120643,0.0,1.0197926,0.043410692,0.0051434436,0.0035326725,0.025719019,0.017062498,inf,inf,inf,inf,1,1,1,1,2,1,2,3,0,0,0
129395669,0,0.0,0.0,-0.48774323,-0.24457386,-0.9548229,0.34895948,0.4146086,-0.25444326,0.09784803,0.088343695,0.0064179697,0.010300861,-0.001950428,-0.004030489,0.00084480835,1.0861714,-3.7304037,-1.2361623,-3.1323154,0.0,1.0192437,-0.0064179697,0.0051874355,0.0035616285,0.025841542,0.017114269,inf,inf,inf,inf,1,1,1,1,2,1,2,3,0,0,0
129499734,0,0.0,0.0,-0.47142163,-0.23706478,-0.94888556,0.34895948,0.4146086,-0.25444326,0.16122647,0.07563227,0.05030076,0.05568148,-0.001950428,-0.004030489,0.00084480835,2.4266088,1.5599496,0.019519234,-3.1400924,0.0,1.0133064,-0.05030076,0.005284779,0.00362265,0.02617975,0.017298458,inf,inf,inf,inf,1,1,1,1,2,1,2,3,0,0,0
129595685,0,0.0,0.0,-0.44987425,-0.23257373,-0.9399872,0.34895948,0.4146086,-0.25444326,0.206494,0.061527736,0.06543258,0.071773075,-0.001950428,-0.004030489,0.00084480835,1.6908333,4.133614,-0.837154,3.1369996,0.0,1.0044079,-0.06543258,0.0051914435,0.0035627896,0.025884293,0.017132713,inf,inf,inf,inf,1,1,1,1,2,1,2,3,0,0,0
129699677,0,0.0,0.0,-0.42009297,-0.2304679,-0.92967147,0.34895948,0.4146086,-0.25444326,0.23402902,0.038121846,0.07942606,0.08640228,-0.001950428,-0.004030489,0.00084480835,-0.16629928,1.724706,-0.10222697,3.1329339,0.0,0.9940922,-0.07942606,0.005269418,0.0036119635,0.026158733,0.017283857,inf,inf,inf,inf,1,1,1,1,2,1,2,3,0,0,0
129803677,0,0.0,0.0,-0.3850623,-0.23064224,-0.91984445,0.34895948,0.4146086,-0.25444326,0.26476946,-0.0082287425,0.079727195,0.08639039,-0.001950428,-0.004030489,0.00084480835,3.8048398,-3.5819168,-0.9171438,3.1316779,0.0,0.9842652,-0.079727195,0.0053808554,0.0036804345,0.026548149,0.017453428,inf,inf,inf,inf,1,1,1,1,2,1,2,3,0,0,0
129902932,0,0.0,0.0,-0.34870175,-0.23376465,-0.9107857,0.34895948,0.4146086,-0.25444326,0.27264187,-0.037323568,0.09749139,0.10267747,-0.001950428,-0.004030489,0.00084480835,0.65481526,-1.8000058,0.035874084,3.133233,0.0,0.97520643,-0.09749139,0.0053308336,0.0036453668,0.026434798,0.017354043,inf,inf,inf,inf,1,1,1,1,2,1,2,3,0,0,0
130006880,0,0.0,0.0,-0.3105449,-0.24157788,-0.90029615,0.34895948,0.4146086,-0.25444326,0.26812705,-0.062007084,0.12082492,0.12347512,-0.001950428,-0.004030489,0.00084480835,-2.2432468,1.0605265,0.15003823,3.139668,0.0,0.9647169,-0.12082492,0.0054473896,0.003716109,0.02674934,0.017518418,inf,inf,inf,inf,1,1,1,1,2,1,2,3,0,0,0
130102868,0,0.0,0.0,-0.2784837,-0.25296184,-0.89003175,0.34895948,0.4146086,-0.25444326,0.2507494,-0.09662461,0.12579273,0.12603335,-0.001950428,-0.004030489,0.00084480835,-3.3969636,-0.67119944,0.044714913,-3.1361656,0.0,0.9544525,-0.12579273,0.005390168,0.0036801386,0.026623508,0.017477753,inf,inf,inf,inf,1,1,1,1,2,1,2,3,0,0,0
130206868,0,0.0,0.0,-0.24948974,-0.2709919,-0.8797376,0.34895948,0.4146086,-0.25444326,0.23435147,-0.13653396,0.12455287,0.12256887,-0.001950428,-0.004030489,0.00084480835,-2.6713426,-0.22590615,1.0400907,-3.1279564,0.0,0.9441584,-0.12455287,0.0054379636,0.0037111843,0.026668059,0.017507778,inf,inf,inf,inf,1,1,1,1,2,1,2,3,0,0,0
130310869,0,0.0,0.0,-0.2277213,-0.29399148,-0.87030643,0.34895948,0.4146086,-0.25444326,0.20975882,-0.1752737,0.11316465,0.10910473,-0.001950428,-0.004030489,0.00084480835,3.1080265,-0.5032026,-0.3948375,-3.1196256,0.0,0.9347272,-0.11316465,0.005150171,0.0035269759,0.025927573,0.017081914,inf,inf,inf,inf,1,1,1,1,2,1,2,3,0,0,0
130406895,0,0.0,0.0,-0.21343172,-0.318607,-0.8625895,0.34895948,0.4146086,-0.25444326,0.15616667,-0.20521717,0.112156145,0.106157,-0.001950428,-0.004030489,0.00084480835,-2.613638,1.6529821,0.440201,-3.1144574,0.0,0.92701024,-0.112156145,0.0054625524,0.0037270964,0.026699185,0.017534403,inf,inf,inf,inf,1,1,1,1,2,1,2,3,0,0,0
130510880,0,0.0,0.0,-0.20444414,-0.34762368,-0.8550927,0.34895948,0.4146086,-0.25444326,0.12040329,-0.23245504,0.10758377,0.099339165,-0.001950428,-0.004030489,0.00084480835,-0.3603685,2.2178745,0.70619977,-3.1095564,0.0,0.91951346,-0.10758377,0.005140093,0.0035222336,0.025808003,0.01701915,inf,inf,inf,inf,1,1,1,1,2,1,2,3,0,0,0
130614069,0,0.0,0.0,-0.20126702,-0.3772133,-0.84942174,0.34895948,0.4146086,-0.25444326,0.08348772,-0.2202503,0.07873839,0.068477415,-0.001950428,-0.004030489,0.00084480835,1.7882546,2.1639805,0.05798926,-3.1030898,0.0,0.9138425,-0.07873839,0.0051813885,0.0035501872,0.025859889,0.017064735,inf,inf,inf,inf,1,1,1,1,2,1,2,3,0,0,0
130718094,0,0.0,0.0,-0.20358425,-0.40155825,-0.8455498,0.34895948,0.4146086,-0.25444326,0.023986213,-0.18111755,0.08322507,0.07112478,-0.001950428,-0.004030489,0.00084480835,-4.249933,2.2173579,0.65832967,-3.099938,0.0,0.9099706,-0.08322507,0.0052596265,0.0035999317,0.026127463,0.017228326,inf,inf,inf,inf,1,1,1,1,2,1,2,3,0,0,0
130814076,0,0.0,0.0,-0.2102947,-0.41915068,-0.8413245,0.34895948,0.4146086,-0.25444326,-0.009541997,-0.1341607,0.087198906,0.07352444,-0.001950428,-0.004030489,0.00084480835,-1.5346727,-2.2096918,-1.3126396,-3.0938737,0.0,0.90574527,-0.087198906,0.0051579364,0.0035351338,0.025804652,0.017016966,inf,inf,inf,inf,1,1,1,1,2,1,2,3,0,0,0
130918069,0,0.0,0.0,-0.22150274,-0.42992252,-0.8352637,0.34895948,0.4146086,-0.25444326,-0.046245184,-0.07262422,0.102447435,0.08765516,-0.001950428,-0.004030489,0.00084480835,1.3225309,0.8854099,0.50394815,-3.0885093,0.0,0.8996845,-0.102447435,0.0052248393,0.0035787956,0.025953928,0.017142659,inf,inf,inf,inf,1,1,1,1,2,1,2,3,0,0,0
131022078,0,0.0,0.0,-0.23517813,-0.43576503,-0.8288619,0.34895948,0.4146086,-0.25444326,-0.07931949,-0.036320075,0.09156549,0.07662508,-0.001950428,-0.004030489,0.00084480835,-0.97602725,0.57258594,1.2341579,-3.084897,0.0,0.89328265,-0.09156549,0.005297563,0.003626723,0.026155846,0.017279068,inf,inf,inf,inf,1,1,1,1,2,1,2,3,0,0,0
131118073,0,0.0,0.0,-0.24807529,-0.4344585,-0.8246269,0.34895948,0.4146086,-0.25444326,-0.08623393,0.008315453,0.042363726,0.028081862,-0.001950428,-0.004030489,0.00084480835,0.67184216,1.4105462,-1.4559361,-3.0865324,0.0,0.8890477,-0.042363726,0.005246995,0.0035958197,0.02604791,0.017255258,inf,inf,inf,inf,1,1,1,1,2,1,2,3,0,0,0
131221269,0,0.0,0.0,-0.260916,-0.42583835,-0.82352716,0.34895948,0.4146086,-0.25444326,-0.105189264,0.035972435,0.027769893,0.014089004,-0.001950428,-0.004030489,0.00084480835,-2.4738271,0.51920027,1.4989383,-3.0907273,0.0,0.8879479,-0.027769893,0.005329901,0.003650983,0.026282951,0.017365722,inf,inf,inf,inf,1,1,1,1,2,1,2,3,0,0,0
131325311,0,0.0,0.0,-0.27280378,-0.4096935,-0.823685,0.34895948,0.4146086,-0.25444326,-0.09616764,0.07120478,0.015981937,0.0019592955,-0.001950428,-0.004030489,0.00084480835,-3.7007365,-2.6117074,-0.61063117,-3.095576,0.0,0.88810575,-0.015981937,0.00541372,0.003702581,0.026580945,0.017491307,inf,inf,inf,inf,1,1,1,1,2,1,2,3,0,0,0
131421301,0,0.0,0.0,-0.28154325,-0.3888289,-0.8245395,0.34895948,0.4146086,-0.25444326,-0.07569001,0.124911875,0.024470076,0.009704378,-0.001950428,-0.004030489,0.00084480835,0.86136496,0.9209545,0.24435736,-3.0994534,0.0,0.88896024,-0.024470076,0.005333036,0.003648666,0.026322016,0.017334292,inf,inf,inf,inf,1,1,1,1,2,1,2,3,0,0,0
131525314,0,0.0,0.0,-0.28877503,-0.36430925,-0.8240969,0.34895948,0.4146086,-0.25444326,-0.069380775,0.15459852,0.045778945,0.03054463,-0.001950428,-0.004030489,0.00084480835,-1.0158383,-3.6248498,0.563885,-3.0993242,0.0,0.8885177,-0.045778945,0.005387652,0.0036836758,0.026405163,0.017392255,inf,inf,inf,inf,1,1,1,1,2,1,2,3,0,0,0
131629268,0,0.0,0.0,-0.29362988,-0.33939323,-0.82103723,0.34895948,0.4146086,-0.25444326,-0.044608194,0.2056877,0.045225967,0.03052701,-0.001950428,-0.004030489,0.00084480835,-2.3492668,-2.3505833,-0.38132435,-3.0978606,0.0,0.885458,-0.045225967,0.0054548034,0.0037278198,0.026538108,0.017503608,inf,inf,inf,inf,1,1,1,1,2,1,2,3,0,0,0
131733288,0,0.0,0.0,-0.2954063,-0.31621307,-0.8170518,0.34895948,0.4146086,-0.25444326,-0.023647934,0.19504857,0.035691485,0.022737252,-0.001950428,-0.004030489,0.00084480835,-0.53638834,-3.7732635,-2.8977427,-3.0975132,0.0,0.8814726,-0.035691485,0.0051618656,0.0035415164,0.025789117,0.017098036,inf,inf,inf,inf,1,1,1,1,2,1,2,3,0,0,0
131836475,0,0.0,0.0,-0.29390723,-0.2951112,-0.81404257,0.34895948,0.4146086,-0.25444326,-0.012773253,0.20390236,0.026541637,0.015700703,-0.001950428,-0.004030489,0.00084480835,-0.6534827,-2.3653,-0.7797755,-3.0980153,0.0,0.8784633,-0.026541637,0.0052552233,0.0036024537,0.026062597,0.017247457,inf,inf,inf,inf,1,1,1,1,2,1,2,3,0,0,0
131932469,0,0.0,0.0,-0.29034236,-0.2775133,-0.81259996,0.34895948,0.4146086,-0.25444326,-0.006038285,0.17237529,-0.004106381,-0.013604629,-0.001950428,-0.004030489,0.00084480835,-0.10365106,2.283478,0.057177342,-3.0958953,0.0,0.8770207,0.004106381,0.005151352,0.003537285,0.025752153,0.01706415,inf,inf,inf,inf,1,1,1,1,2,1,2,3,0,0,0
132036514,0,0.0,0.0,-0.28468087,-0.26172325,-0.8145502,0.34895948,0.4146086,-0.25444326,-0.004890094,0.14842442,-0.02885006,-0.038056724,-0.001950428,-0.004030489,0.00084480835,-0.13555117,2.1797237,-1.198534,-3.092133,0.0,0.878971,0.02885006,0.0052308296,0.0035862303,0.026025956,0.017195484,inf,inf,inf,inf,1,1,1,1,2,1,2,3,0,0,0
132140497,0,0.0,0.0,-0.27836686,-0.25012028,-0.8207776,0.34895948,0.4146086,-0.25444326,0.001669667,0.120535426,-0.05627542,-0.06635043,-0.001950428,-0.004030489,0.00084480835,-1.4451289,4.2657776,-0.7805344,-3.0871096,0.0,0.88519835,0.05627542,0.005324552,0.0036447323,0.026311317,0.017344335,inf,inf,inf,inf,1,1,1,1,2,1,2,3,0,0,0
132244475,0,0.0,0.0,-0.27298802,-0.2434419,-0.8311248,0.34895948,0.4146086,-0.25444326,0.009612148,0.096721336,-0.08783512,-0.09957892,-0.001950428,-0.004030489,0.00084480835,2.3601277,1.6635646,0.7286271,-3.0817602,0.0,0.89554554,0.08783512,0.005403569,0.003694322,0.026522197,0.017451772,inf,inf,inf,inf,1,1,1,1,2,1,2,3,0,0,0
132348468,0,0.0,0.0,-0.26934093,-0.24234316,-0.84651923,0.34895948,0.4146086,-0.25444326,-0.0025137141,0.039343435,-0.13436358,-0.14806184,-0.001950428,-0.004030489,0.00084480835,-1.2178915,-3.131628,-0.32121632,-3.0739284,0.0,0.91094,0.13436358,0.005104274,0.0035012856,0.025731012,0.01699227,inf,inf,inf,inf,1,1,1,1,2,1,2,3,0,0,0
132443669,0,0.0,0.0,-0.2673762,-0.24659045,-0.86614907,0.34895948,0.4146086,-0.25444326,0.0052509545,0.015776109,-0.18423408,-0.19968234,-0.001950428,-0.004030489,0.00084480835,2.7509038,1.4662757,0.1266276,-3.0681124,0.0,0.9305698,0.18423408,0.0053788563,0.003677111,0.026435457,0.017381115,inf,inf,inf,inf,1,1,1,1,2,1,2,3,0,0,0
132547682,0,0.0,0.0,-0.2668711,-0.2558915,-0.89338136,0.34895948,0.4146086,-0.25444326,0.0054308954,-0.035236243,-0.23388293,-0.25133273,-0.001950428,-0.004030489,0.00084480835,1.7502539,-1.2876543,-2.4353733,-3.065721,0.0,0.9578021,0.23388293,0.005457407,0.0037260824,0.026680944,0.017514542,inf,inf,inf,inf,1,1,1,1,2,1,2,3,0,0,0
132651669,0,0.0,0.0,-0.26811457,-0.27068022,-0.9229555,0.34895948,0.4146086,-0.25444326,-0.0127548585,-0.08212494,-0.23732908,-0.25681093,-0.001950428,-0.004030489,0.00084480835,-1.755889,-2.1657186,-0.15728348,-3.0654695,0.0,0.9873763,0.23732908,0.005145877,0.0035253253,0.025871005,0.017030234,inf,inf,inf,inf,1,1,1,1,2,1,2,3,0,0,0
132747675,0,0.0,0.0,-0.27064064,-0.28587872,-0.95061076,0.34895948,0.4146086,-0.25444326,-0.0053785043,-0.07234444,-0.23988745,-0.26034626,-0.001950428,-0.004030489,0.00084480835,3.3152554,-0.039575238,-0.15038697,-3.0655935,0.0,1.0150316,0.23988745,0.005399483,0.0036885561,0.026434217,0.01739134,inf,inf,inf,inf,1,1,1,1,2,1,2,3,0,0,0
132851669,0,0.0,0.0,-0.27407002,-0.30057725,-0.9790479,0.34895948,0.4146086,-0.25444326,-0.012009545,-0.067283414,-0.22748937,-0.24734472,-0.001950428,-0.004030489,0.00084480835,2.2088592,3.438361,0.23457679,-3.0682337,0.0,1.0434687,0.22748937,0.005414653,0.003700371,0.02644824,0.017424965,inf,inf,inf,inf,1,1,1,1,2,1,2,3,0,0,0
132955673,0,0.0,0.0,-0.27822447,-0.31468222,-1.0025872,0.34895948,0.4146086,-0.25444326,-0.026561726,-0.0830804,-0.18509473,-0.2025571,-0.001950428,-0.004030489,0.00084480835,0.13436891,1.6977473,1.4548119,-3.0720387,0.0,1.067008,0.18509473,0.005420633,0.0037059514,0.026446983,0.017437382,inf,inf,inf,inf,1,1,1,1,2,1,2,3,0,0,0
133058880,0,0.0,0.0,-0.28320733,-0.32854992,-1.0200566,0.34895948,0.4146086,-0.25444326,-0.026751287,-0.08093498,-0.16672471,-0.1801451,-0.001950428,-0.004030489,0.00084480835,1.5522882,1.4514751,1.0474265,-3.075206,0.0,1.0844774,0.16672471,0.005115334,0.003511382,0.025671639,0.017043356,inf,inf,inf,inf,1,1,1,1,2,1,2,3,0,0,0
133162869,0,0.0,0.0,-0.28851262,-0.3400958,-1.0341378,0.34895948,0.4146086,-0.25444326,-0.035986066,-0.085842945,-0.15871376,-0.16690004,-0.001950428,-0.004030489,0.00084480835,2.2681403,-0.6661634,1.2462212,-3.079392,0.0,1.0985587,0.15871376,0.005168325,0.0035496312,0.02577736,0.0171544,inf,inf,inf,inf,1,1,1,1,2,1,2,3,0,0,0
133258875,0,0.0,0.0,-0.29358584,-0.34818912,-1.0444878,0.34895948,0.4146086,-0.25444326,-0.044975724,-0.112174556,-0.14278324,-0.14616603,-0.001950428,-0.004030489,0.00084480835,0.8199457,-1.8444402,0.2766047,-3.0823886,0.0,1.1089087,0.14278324,0.0050699566,0.0034876445,0.025507348,0.01694505,inf,inf,inf,inf,1,1,1,1,2,1,2,3,0,0,0
133362879,0,0.0,0.0,-0.2993001,-0.35444415,-1.0530761,0.34895948,0.4146086,-0.25444326,-0.056493968,-0.11074072,-0.11553961,-0.11496727,-0.001950428,-0.004030489,0.00084480835,1.8442874,-0.09732244,2.163108,-3.0831323,0.0,1.117497,0.11553961,0.005162232,0.003546168,0.025797883,0.01710674,inf,inf,inf,inf,1,1,1,1,2,1,2,3,0,0,0
133466869,0,0.0,0.0,-0.30566463,-0.35835406,-1.0597267,0.34895948,0.4146086,-0.25444326,-0.067415684,-0.095817514,-0.09538416,-0.09223317,-0.001950428,-0.004030489,0.00084480835,1.3534708,1.1097208,0.23634622,-3.083355,0.0,1.1241474,0.09538416,0.005255402,0.0036058337,0.026046745,0.01726766,inf,inf,inf,inf,1,1,1,1,2,1,2,3,0,0,0
133570881,0,0.0,0.0,-0.3125156,-0.36294073,-1.0647893,0.34895948,0.4146086,-0.25444326,-0.070247926,-0.10191002,-0.075070806,-0.07041854,-0.001950428,-0.004030489,0.00084480835,0.36854827,-1.625508,0.071095645,-3.0843208,0.0,1.12921,0.075070806,0.0053128605,0.0036436764,0.026136039,0.017304642,inf,inf,inf,inf,1,1,1,1,2,1,2,3,0,0,0
133666869,0,0.0,0.0,-0.31963992,-0.36783868,-1.0684105,0.34895948,0.4146086,-0.25444326,-0.07958642,-0.097446606,-0.061906613,-0.05649898,-0.001950428,-0.004030489,0.00084480835,0.6450522,1.8418499,1.2554069,-3.088988,0.0,1.1328313,0.061906613,0.005222483,0.003584891,0.025915748,0.017180491,inf,inf,inf,inf,1,1,1,1,2,1,2,3,0,0,0
133770108,0,0.0,0.0,-0.32812724,-0.37418625,-1.0711592,0.34895948,0.4146086,-0.25444326,-0.08993411,-0.09608193,-0.026938766,-0.021316104,-0.001950428,-0.004030489,0.00084480835,1.3662063,-1.073231,0.9239097,-3.0928864,0.0,1.1355801,0.026938766,0.0052981153,0.0036331203,0.026139647,0.017306594,inf,inf,inf,inf,1,1,1,1,2,1,2,3,0,0,0
133874067,0,0.0,0.0,-0.3380251,-0.38271004,-1.0707204,0.34895948,0.4146086,-0.25444326,-0.10533526,-0.103185214,0.0013320498,0.006764181,-0.001950428,-0.004030489,0.00084480835,0.28526795,0.60294574,-0.055157226,-3.097972,0.0,1.1351411,-0.0013320498,0.0053348574,0.0036566725,0.026166042,0.017307222,inf,inf,inf,inf,1,1,1,1,2,1,2,3,0,0,0
133970069,0,0.0,0.0,-0.34812447,-0.39244416,-1.068747,0.34895948,0.4146086,-0.25444326,-0.12216627,-0.13048384,0.009061346,0.014477439,-0.001950428,-0.004030489,0.00084480835,-0.9434616,-1.7637445,1.1435643,-3.1057076,0.0,1.1331677,-0.009061346,0.0053029857,0.0036350586,0.026163446,0.017326402,inf,inf,inf,inf,1,1,1,1,2,1,2,3,0,0,0
134074069,0,0.0,0.0,-0.35951763,-0.4056304,-1.066423,0.34895948,0.4146086,-0.25444326,-0.13606946,-0.14755829,0.02113346,0.026538856,-0.001950428,-0.004030489,0.00084480835,-1.6415869,-2.1985562,0.06956004,-3.1157277,0.0,1.1308439,-0.02113346,0.0053723473,0.0036805,0.02633217,0.017423265,inf,inf,inf,inf,1,1,1,1,2,1,2,3,0,0,0
134178072,0,0.0,0.0,-0.37208217,-0.4213857,-1.0619848,0.34895948,0.4146086,-0.25444326,-0.1487911,-0.17031042,0.04836103,0.053195655,-0.001950428,-0.004030489,0.00084480835,-3.4590116,0.684769,0.83859396,-3.1257818,0.0,1.1264055,-0.04836103,0.0054527894,0.003732013,0.026552077,0.017537557,inf,inf,inf,inf,1,1,1,1,2,1,2,3,0,0,0
134274088,0,0.0,0.0,-0.38537905,-0.43910915,-1.0545176,0.34895948,0.4146086,-0.25444326,-0.17180249,-0.18773574,0.10509784,0.109068,-0.001950428,-0.004030489,0.00084480835,-2.886993,2.9921982,2.8247073,-3.1313171,0.0,1.1189384,-0.10509784,0.0053714304,0.003679155,0.026337896,0.017415706,inf,inf,inf,inf,1,1,1,1,2,1,2,3,0,0,0
134378104,0,0.0,0.0,-0.40235847,-0.45937723,-1.0426236,0.34895948,0.4146086,-0.25444326,-0.18813159,-0.20177853,0.1315827,0.13496925,-0.001950428,-0.004030489,0.00084480835,-1.7514902,-3.0046272,0.70025176,-3.1334045,0.0,1.1070445,-0.1315827,0.0054687993,0.0037409384,0.02659329,0.01756477,inf,inf,inf,inf,1,1,1,1,2,1,2,3,0,0,0
134481269,0,0.0,0.0,-0.4212442,-0.47953317,-1.0273209,0.34895948,0.4146086,-0.25444326,-0.19141158,-0.16891186,0.15028496,0.15364473,-0.001950428,-0.004030489,0.00084480835,-1.82878,-0.73822355,-0.9351959,-3.132884,0.0,1.0917416,-0.15028496,0.0051529976,0.0035381725,0.025754832,0.01706185,inf,inf,inf,inf,1,1,1,1,2,1,2,3,0,0,0
134585319,0,0.0,0.0,-0.4413651,-0.49711874,-1.0085233,0.34895948,0.4146086,-0.25444326,-0.19216679,-0.120882116,0.19119352,0.1946286,-0.001950428,-0.004030489,0.00084480835,4.24491,2.9615095,-0.7994709,-3.1290185,0.0,1.0729442,-0.19119352,0.0052190414,0.0035803034,0.02590429,0.017143777,inf,inf,inf,inf,1,1,1,1,2,1,2,3,0,0,0
134689273,0,0.0,0.0,-0.46176,-0.50937843,-0.986454,0.34895948,0.4146086,-0.25444326,-0.22302736,-0.07867627,0.22870527,0.231805,-0.001950428,-0.004030489,0.00084480835,-2.594222,-2.9604475,2.212108,-3.1228952,0.0,1.0508747,-0.22870527,0.0052981195,0.0036305015,0.026145693,0.017285379,inf,inf,inf,inf,1,1,1,1,2,1,2,3,0,0,0
134785302,0,0.0,0.0,-0.48063335,-0.51573503,-0.96375674,0.34895948,0.4146086,-0.25444326,-0.2085792,-0.027366517,0.24336131,0.2458804,-0.001950428,-0.004030489,0.00084480835,2.3030324,0.4192225,1.7209157,-3.112728,0.0,1.0281775,-0.24336131,0.005212426,0.0035759215,0.025890788,0.01714226,inf,inf,inf,inf,1,1,1,1,2,1,2,3,0,0,0
134889269,0,0.0,0.0,-0.49994615,-0.5145115,-0.93916464,0.34895948,0.4146086,-0.25444326,-0.20810479,0.0419678,0.2409707,0.24244198,-0.001950428,-0.004030489,0.00084480835,0.34139672,0.34525585,0.008084356,-3.1018004,0.0,1.0035853,-0.2409707,0.005275686,0.0036171847,0.026064606,0.017261885,inf,inf,inf,inf,1,1,1,1,2,1,2,3,0,0,0
134993288,0,0.0,0.0,-0.5167071,-0.5015803,-0.9164984,0.34895948,0.4146086,-0.25444326,-0.1845758,0.1116229,0.23543306,0.23524764,-0.001950428,-0.004030489,0.00084480835,-0.93865466,-0.12933542,1.3099195,-3.0927439,0.0,0.9809192,-0.23543306,0.005339401,0.003659125,0.026245058,0.017372452,inf,inf,inf,inf,1,1,1,1,2,1,2,3,0,0,0
135092498,0,0.0,0.0,-0.5298099,-0.47844946,-0.8959436,0.34895948,0.4146086,-0.25444326,-0.14594704,0.18847968,0.22108385,0.21867597,-0.001950428,-0.004030489,0.00084480835,-2.4092727,0.66274214,0.7824228,-3.084667,0.0,0.96036434,-0.22108385,0.005296974,0.003630344,0.02619909,0.01730658,inf,inf,inf,inf,1,1,1,1,2,1,2,3,0,0,0
135196469,0,0.0,0.0,-0.53924185,-0.44253388,-0.87553686,0.34895948,0.4146086,-0.25444326,-0.10568047,0.26855206,0.23616551,0.23072791,-0.001950428,-0.004030489,0.00084480835,-2.399694,0.2849011,1.1486589,-3.0769842,0.0,0.9399576,-0.23616551,0.00545548,0.0037305849,0.026762137,0.017653191,inf,inf,inf,inf,1,1,1,1,2,1,2,3,0,0,0
135292469,0,0.0,0.0,-0.54410803,-0.40168855,-0.85702354,0.34895948,0.4146086,-0.25444326,-0.057984926,0.3447703,0.2390126,0.23052552,-0.001950428,-0.004030489,0.00084480835,0.6333856,-2.2451046,-1.5627507,-3.0705993,0.0,0.9214443,-0.2390126,0.005358756,0.0036686114,0.026443865,0.017450415,inf,inf,inf,inf,1,1,1,1,2,1,2,3,0,0,0
135604469,0,0.0,0.0,-0.53290826,-0.240659,-0.79968375,0.34895948,0.4146086,-0.25444326,0.042435024,0.48032388,0.22083713,0.20669094,-0.001950428,-0.004030489,0.00084480835,1.7603127,-1.3592578,0.70713925,-3.070083,0.0,0.8641045,-0.22083713,0.005185722,0.003557217,0.02590149,0.017115429,inf,inf,inf,inf,1,1,1,1,2,1,2,3,0,0,0
135707669,0,0.0,0.0,-0.52095795,-0.18532044,-0.78132397,0.34895948,0.4146086,-0.25444326,0.055181496,0.47999176,0.2191018,0.20416175,-0.001950428,-0.004030489,0.00084480835,2.130643,-1.4474107,0.32725105,-3.0732374,0.0,0.8457447,-0.2191018,0.005245408,0.003594942,0.026033316,0.017181061,inf,inf,inf,inf,1,1,1,1,2,1,2,3,0,0,0
135803670,0,0.0,0.0,-0.508843,-0.1360994,-0.76448095,0.34895948,0.4146086,-0.25444326,0.087864086,0.47977677,0.19810168,0.18274559,-0.001950428,-0.004030489,0.00084480835,3.8727965,-1.84113,-1.8383958,-3.076229,0.0,0.8289017,-0.19810168,0.0051787114,0.0035504776,0.025890525,0.017101461,inf,inf,inf,inf,1,1,1,1,2,1,2,3,0,0,0
135907675,0,0.0,0.0,-0.49434146,-0.08661313,-0.7479309,0.34895948,0.4146086,-0.25444326,0.1022813,0.45280087,0.18423809,0.16878697,-0.001950428,-0.004030489,0.00084480835,-1.6863407,-3.4021795,-0.39770496,-3.0802639,0.0,0.81235164,-0.18423809,0.0052588405,0.0036010256,0.026112536,0.017229067,inf,inf,inf,inf,1,1,1,1,2,1,2,3,0,0,0
136011668,0,0.0,0.0,-0.47920898,-0.0433131,-0.7318973,0.34895948,0.4146086,-0.25444326,0.1331349,0.42197555,0.17847003,0.16285093,-0.001950428,-0.004030489,0.00084480835,0.4367452,-0.55443233,-1.2659496,-3.0846896,0.0,0.79631805,-0.17847003,0.005337664,0.0036513694,0.026315296,0.01733738,inf,inf,inf,inf,1,1,1,1,2,1,2,3,0,0,0
136107668,0,0.0,0.0,-0.46499798,-0.009111377,-0.717459,0.34895948,0.4146086,-0.25444326,0.14329657,0.39632902,0.18017785,0.16434197,-0.001950428,-0.004030489,0.00084480835,-1.9124522,0.2461359,-1.5631787,-3.088784,0.0,0.7818798,-0.18017785,0.00525455,0.003598218,0.02608506,0.01721483,inf,inf,inf,inf,1,1,1,1,2,1,2,3,0,0,0
136211675,0,0.0,0.0,-0.44897076,0.021499977,-0.70173746,0.34895948,0.4146086,-0.25444326,0.18099439,0.33841375,0.17660673,0.16076401,-0.001950428,-0.004030489,0.00084480835,-0.17683528,-3.4561157,-0.24237679,-3.0915232,0.0,0.7661582,-0.17660673,0.0053140963,0.003637181,0.026213504,0.017291225,inf,inf,inf,inf,1,1,1,1,2,1,2,3,0,0,0
136314869,0,0.0,0.0,-0.43143472,0.045184158,-0.6866614,0.34895948,0.4146086,-0.25444326,0.2067736,0.29757097,0.16035281,0.14491014,-0.001950428,-0.004030489,0.00084480835,0.087398484,-2.9019513,-1.2073786,-3.0934477,0.0,0.7510822,-0.16035281,0.0053900555,0.0036861212,0.02641003,0.017407218,inf,inf,inf,inf,1,1,1,1,2,1,2,3,0,0,0
136418892,0,0.0,0.0,-0.4117986,0.063540734,-0.6725859,0.34895948,0.4146086,-0.25444326,0.21867955,0.25584778,0.15481657,0.14001782,-0.001950428,-0.004030489,0.00084480835,0.21921086,-2.6807272,-0.3617475,-3.094641,0.0,0.73700666,-0.15481657,0.0054784645,0.0037429493,0.026655333,0.017560653,inf,inf,inf,inf,1,1,1,1,2,1,2,3,0,0,0
136514871,0,0.0,0.0,-0.39281312,0.07523497,-0.66038764,0.34895948,0.4146086,-0.25444326,0.20640025,0.18899778,0.13122009,0.11693063,-0.001950428,-0.004030489,0.00084480835,-4.6479797,-4.7969165,0.46897066,-3.0939696,0.0,0.7248084,-0.13122009,0.005394454,0.003689054,0.026457759,0.017438533,inf,inf,inf,inf,1,1,1,1,2,1,2,3,0,0,0
136618883,0,0.0,0.0,-0.37154308,0.08328662,-0.6507869,0.34895948,0.4146086,-0.25444326,0.1981021,0.14018328,0.08868123,0.07487018,-0.001950428,-0.004030489,0.00084480835,-3.24408,-3.5421393,0.7160726,-3.094196,0.0,0.71520764,-0.08868123,0.00509694,0.0034982979,0.025657002,0.016971229,inf,inf,inf,inf,1,1,1,1,2,1,2,3,0,0,0
136722873,0,0.0,0.0,-0.35100558,0.087277055,-0.6456669,0.34895948,0.4146086,-0.25444326,0.17742184,0.08634811,0.052290026,0.038425345,-0.001950428,-0.004030489,0.00084480835,-1.9742534,-4.711149,0.7035893,-3.0936244,0.0,0.71008766,-0.052290026,0.0051796227,0.0035512508,0.0259196,0.017113464,inf,inf,inf,inf,1,1,1,1,2,1,2,3,0,0,0
136818870,0,0.0,0.0,-0.3341309,0.087550044,-0.6446234,0.34895948,0.4146086,-0.25444326,0.16437815,0.047759198,0.024556933,0.009897316,-0.001950428,-0.004030489,0.00084480835,2.9284718,2.5061078,0.50344104,-3.0949998,0.0,0.70904416,-0.024556933,0.0051046833,0.0035021456,0.02573553,0.016978867,inf,inf,inf,inf,1,1,1,1,2,1,2,3,0,0,0
136922890,0,0.0,0.0,-0.31934136,0.08414201,-0.6474079,0.34895948,0.4146086,-0.25444326,0.13085403,-0.0042735552,-0.010921117,-0.026852142,-0.001950428,-0.004030489,0.00084480835,2.290856,1.4892884,-0.58572453,-3.094796,0.0,0.71182865,0.010921117,0.0051678885,0.0035416004,0.0258894,0.017067764,inf,inf,inf,inf,1,1,1,1,2,1,2,3,0,0,0
137025333,0,0.0,0.0,-0.3095654,0.07778336,-0.6541135,0.34895948,0.4146086,-0.25444326,0.09075107,-0.04060912,-0.03383147,-0.050881155,-0.001950428,-0.004030489,0.00084480835,-0.8886832,-0.7918037,1.5142757,-3.0936365,0.0,0.71853423,0.03383147,0.005213407,0.0035704402,0.025988942,0.01713528,inf,inf,inf,inf,1,1,1,1,2,1,2,3,0,0,0
137130077,0,0.0,0.0,-0.30510142,0.06863402,-0.6629106,0.34895948,0.4146086,-0.25444326,0.053142954,-0.068038486,-0.049815167,-0.067501366,-0.001950428,-0.004030489,0.00084480835,-0.5868536,0.36847275,0.081393585,-3.0913482,0.0,0.72733134,0.049815167,0.0052693463,0.0036052843,0.02616001,0.017220506,inf,inf,inf,inf,1,1,1,1,2,1,2,3,0,0,0
137226104,0,0.0,0.0,-0.30606228,0.060273256,-0.67143935,0.34895948,0.4146086,-0.25444326,0.044125654,-0.039809875,-0.07353222,-0.09106163,-0.001950428,-0.004030489,0.00084480835,3.4865716,1.5353782,-0.77213854,-3.0884652,0.0,0.7358601,0.07353222,0.0052245203,0.0035755443,0.026081271,0.017188048,inf,inf,inf,inf,1,1,1,1,2,1,2,3,0,0,0
137330075,0,0.0,0.0,-0.30993643,0.055146422,-0.6819718,0.34895948,0.4146086,-0.25444326,0.014944314,-0.02558594,-0.08003528,-0.09641657,-0.001950428,-0.004030489,0.00084480835,-1.6460161,-2.2778535,-0.21365744,-3.085678,0.0,0.74639255,0.08003528,0.0053093177,0.0036307191,0.026255323,0.017313033,inf,inf,inf,inf,1,1,1,1,2,1,2,3,0,0,0
137434086,0,0.0,0.0,-0.31517106,0.053242058,-0.6916771,0.34895948,0.4146086,-0.25444326,0.008936839,0.010544843,-0.08301066,-0.09768479,-0.001950428,-0.004030489,0.00084480835,-1.6214247,0.18977171,-0.5866764,-3.0794837,0.0,0.75609785,0.08301066,0.005361033,0.0036652598,0.02633498,0.017346412,inf,inf,inf,inf,1,1,1,1,2,1,2,3,0,0,0
137530077,0,0.0,0.0,-0.3189053,0.056783672,-0.70016885,0.34895948,0.4146086,-0.25444326,0.04741892,0.07141331,-0.091894545,-0.104612626,-0.001950428,-0.004030489,0.00084480835,4.136027,3.1041205,0.17997016,-3.0760775,0.0,0.7645896,0.091894545,0.0052727656,0.003610026,0.026061473,0.01721323,inf,inf,inf,inf,1,1,1,1,2,1,2,3,0,0,0
