timestamp,x,y,z,yaw,yawspeed,vx,vy,vz,acc_x,acc_y,acc_z,jerk_x,jerk_y,jerk_z,thrust[0],thrust[1],thrust[2]
48244375,-0.15151285,-0.0033845431,nan,0.06775801,0.0,0.0,0.0,-0.19093,0.0,0.0,0.0,0.0,0.0,0.0,0.0049336883,-0.0009950314,-0.54650843
48264719,-0.15151285,-0.0033845431,nan,0.06775801,0.0,0.0014697149,-9.022193e-05,-0.39363,0.0,0.0,0.0,0.0,0.0,0.0,0.0063188914,0.002850955,-0.58729565
48364702,-0.15151285,-0.0033845431,nan,0.06775801,0.0,0.006782302,0.00060897035,-0.7028112,0.0,0.0,0.0,0.0,0.0,0.0,0.001680922,-0.003578274,-0.6574235
48465345,-0.15151285,-0.0033845431,nan,0.06775801,0.0,0.011241248,0.0033733926,-0.7028112,0.0,0.0,0.0,0.0,0.0,0.0,0.003653989,0.0019396571,-0.65813553
48564890,-0.15151285,-0.0033845431,nan,0.06775801,0.0,0.014494519,0.0074858093,-0.7028112,0.0,0.0,0.0,0.0,0.0,0.0,0.0035475474,0.0043664807,-0.6554271
48664952,-0.15151285,-0.0033845431,nan,0.06775801,0.0,0.017079607,0.0130496705,-0.7028112,0.0,0.0,0.0,0.0,0.0,0.0,0.0008442834,0.0024348034,-0.65262336
48765167,-0.15151285,-0.0033845431,nan,0.06775801,0.0,0.018594282,0.018644895,-0.7028112,0.0,0.0,0.0,0.0,0.0,0.0,0.0085448865,0.008652322,-0.649934
48865523,-0.15151285,-0.0033845431,nan,0.06775801,0.0,0.019249879,0.024541896,-0.7028112,0.0,0.0,0.0,0.0,0.0,0.0,0.0081678955,0.011245398,-0.6460612
48965170,-0.15151285,-0.0033845431,nan,0.06775801,0.0,0.01921034,0.030278085,-0.7028112,0.0,0.0,0.0,0.0,0.0,0.0,0.0038303065,0.0068394984,-0.64670485
49065381,-0.15151285,-0.0033845431,nan,0.06775801,0.0,0.018913446,0.035942636,-0.7028112,0.0,0.0,0.0,0.0,0.0,0.0,0.0031217278,0.0069672046,-0.645277
49165506,-0.15151285,-0.0033845431,nan,0.06775801,0.0,0.018153531,0.04086713,-0.7028112,0.0,0.0,0.0,0.0,0.0,0.0,0.0031714328,0.009539508,-0.6477397
49265559,-0.15151285,-0.0033845431,nan,0.06775801,0.0,0.01727949,0.045782622,-0.7028112,0.0,0.0,0.0,0.0,0.0,0.0,0.0006364952,0.007930282,-0.6500255
49365663,-0.15151285,-0.0033845431,nan,0.06775801,0.0,0.016640881,0.0500297,-0.7028112,0.0,0.0,0.0,0.0,0.0,0.0,0.00449156,0.013006956,-0.65007627
49465695,-0.15151285,-0.0033845431,nan,0.06775801,0.0,0.015525551,0.054026738,-0.7028112,0.0,0.0,0.0,0.0,0.0,0.0,0.004031345,0.011813567,-0.6539304
49565728,-0.15151285,-0.0033845431,nan,0.06775801,0.0,0.014530688,0.057738,-0.7028112,0.0,0.0,0.0,0.0,0.0,0.0,0.0009117993,0.012211793,-0.6576078
49685850,-0.15151285,-0.0033845431,nan,0.06775801,0.0,0.013259399,0.062122896,-0.7028112,0.0,0.0,0.0,0.0,0.0,0.0,0.0033107297,0.015441368,-0.6566133
49786503,-0.15151285,-0.0033845431,nan,0.06775801,0.0,0.012158805,0.06662779,-0.7028112,0.0,0.0,0.0,0.0,0.0,0.0,0.00041154976,0.011793689,-0.65776914
49886165,-0.15151285,-0.0033845431,nan,0.06775801,0.0,0.010942017,0.070630275,-0.7028112,0.0,0.0,0.0,0.0,0.0,0.0,0.0007133987,0.016723977,-0.65963435
49986554,-0.15151285,-0.0033845431,nan,0.06775801,0.0,0.009725129,0.075835995,-0.7028112,0.0,0.0,0.0,0.0,0.0,0.0,0.0007841438,0.01321768,-0.6589973
50087939,-0.15151285,-0.0033845431,nan,0.06775801,0.0,0.008523107,0.080580585,-0.7028112,0.0,0.0,0.0,0.0,0.0,0.0,0.0019598836,0.01649174,-0.6618939
50186580,-0.15151285,-0.0033845431,nan,0.06775801,0.0,0.00770947,0.08525337,-0.6972207,0.0,0.0,0.0,0.0,0.0,0.0,-0.0019677621,0.012951698,-0.66229063
50287982,-0.15151285,-0.0033845431,nan,0.06775801,0.0,0.0070998096,0.09047515,-0.6948401,0.0,0.0,0.0,0.0,0.0,0.0,5.22309e-05,0.016474023,-0.6611438
50386754,-0.15151285,-0.0033845431,nan,0.06775801,0.0,0.0068990053,0.09542176,-0.6784027,0.0,0.0,0.0,0.0,0.0,0.0,0.0024378905,0.014691498,-0.66095287
50487628,-0.15151285,-0.0033845431,nan,0.06775801,0.0,0.0069479146,0.10005629,-0.3925507,0.0,0.0,0.0,0.0,0.0,0.0,0.0022882593,0.01717696,-0.60775685
50586732,-0.15151285,-0.0033845431,nan,0.06775801,0.0,0.0070160334,0.10374827,-0.4072011,0.0,0.0,0.0,0.0,0.0,0.0,0.003049782,0.020434426,-0.6173738
50687572,-0.15151285,-0.0033845431,nan,0.06775801,0.0,0.00690396,0.107090995,-0.40564746,0.0,0.0,0.0,0.0,0.0,0.0,0.0023037784,0.017856214,-0.6287995
50787167,-0.15151285,-0.0033845431,nan,0.06775801,0.0,0.0061319284,0.108975284,-0.40562284,0.0,0.0,0.0,0.0,0.0,0.0,-5.9151906e-05,0.015871678,-0.6402723
50887339,-0.15151285,-0.0033845431,nan,0.06775801,0.0,0.0043687006,0.10977186,-0.40562242,0.0,0.0,0.0,0.0,0.0,0.0,0.0013183318,0.014425538,-0.6489232
50987500,-0.15151285,-0.0033845431,nan,0.06775801,0.0,0.0017369963,0.107593305,-0.40562242,0.0,0.0,0.0,0.0,0.0,0.0,-0.005040581,0.011882521,-0.6556029
51087306,-0.15151285,-0.0033845431,nan,0.06775801,0.0,-0.0025073998,0.10297291,-0.40562242,0.0,0.0,0.0,0.0,0.0,0.0,-0.0061727352,0.008489258,-0.65797704
51207449,-0.15151285,-0.0033845431,nan,0.06775801,0.0,-0.008861451,0.093803205,-0.40562242,0.0,0.0,0.0,0.0,0.0,0.0,-0.0012202624,0.0061217668,-0.66176486
51307517,-0.15151285,-0.0033845431,nan,0.06775801,0.0,-0.014871397,0.083919704,-0.40562242,0.0,0.0,0.0,0.0,0.0,0.0,-0.008795612,0.0015955083,-0.660987
51407617,-0.15151285,-0.0033845431,nan,0.06775801,0.0,-0.022031993,0.070437916,-0.40562242,0.0,0.0,0.0,0.0,0.0,0.0,-0.01025244,-0.0032286318,-0.6610239
51507789,-0.15151285,-0.0033845431,nan,0.06775801,0.0,-0.029020868,0.05606235,-0.40562242,0.0,0.0,0.0,0.0,0.0,0.0,-0.004191874,-0.0031888639,-0.65795624
51607922,-0.15151285,-0.0033845431,nan,0.06775801,0.0,-0.03632444,0.039585203,-0.40562242,0.0,0.0,0.0,0.0,0.0,0.0,-0.0034261192,-0.0029916517,-0.65747935
51708215,-0.15151285,-0.0033845431,nan,0.06775801,0.0,-0.041894052,0.024759984,-0.40562242,0.0,0.0,0.0,0.0,0.0,0.0,-0.01040426,-0.0054829316,-0.6564824
51808860,-0.15151285,-0.0033845431,nan,0.06775801,0.0,-0.04669489,0.010458468,-0.40562242,0.0,0.0,0.0,0.0,0.0,0.0,-0.012964792,-0.009364594,-0.6573782
51908402,-0.15151285,-0.0033845431,nan,0.06775801,0.0,-0.049475912,-0.00065992365,-0.40562242,0.0,0.0,0.0,0.0,0.0,0.0,-0.005039568,-0.003881652,-0.6567225
52008971,-0.15151285,-0.0033845431,nan,0.06775801,0.0,-0.050831832,-0.009753498,-0.40230405,0.0,0.0,0.0,0.0,0.0,0.0,-0.004284908,-0.0040247003,-0.65921587
52108396,-0.15151285,-0.0033845431,nan,0.06775801,0.0,-0.050601088,-0.016270114,-0.11543202,0.0,0.0,0.0,0.0,0.0,0.0,-0.006360299,-0.0038830284,-0.6037388
52208420,-0.15151285,-0.0033845431,nan,0.06775801,0.0,-0.04936265,-0.020294104,-0.13321526,0.0,0.0,0.0,0.0,0.0,0.0,-0.00477287,-0.00219231,-0.61105216
52329202,-0.15151285,-0.0033845431,nan,0.06775801,0.0,-0.047531698,-0.02255762,-0.1325322,0.0,0.0,0.0,0.0,0.0,0.0,-0.0034488963,-0.003904541,-0.6219903
52428811,-0.15151285,-0.0033845431,nan,0.06775801,0.0,-0.046090174,-0.022966731,-0.1325306,0.0,0.0,0.0,0.0,0.0,0.0,-0.0063288277,0.00074280193,-0.6261977
52528873,-0.15151285,-0.0033845431,nan,0.06775801,0.0,-0.044963762,-0.022722872,-0.13253021,0.0,0.0,0.0,0.0,0.0,0.0,-0.00544927,-0.0019942713,-0.62886
52628985,-0.15151285,-0.0033845431,nan,0.06775801,0.0,-0.044206712,-0.022904163,-0.13253021,0.0,0.0,0.0,0.0,0.0,0.0,-0.0073531717,0.00058160326,-0.63045037
52729196,-0.15151285,-0.0033845431,nan,0.06775801,0.0,-0.044825654,-0.02473935,-0.1341892,0.0,0.0,0.0,0.0,0.0,0.0,-0.009393143,-0.0016853015,-0.6277193
52829065,-0.15151285,-0.0033845431,nan,0.06775801,0.0,-0.046953365,-0.028347215,-0.1479682,0.0,0.0,0.0,0.0,0.0,0.0,-0.007742881,-0.004854723,-0.62644225
52929414,-0.15151285,-0.0033845431,nan,0.06775801,0.0,-0.050850924,-0.03409269,-0.40362924,0.0,0.0,0.0,0.0,0.0,0.0,-0.012252378,-0.0052387016,-0.6699897
53029643,-0.15151285,-0.0033845431,nan,0.06775801,0.0,-0.055406492,-0.040475402,-0.42008016,0.0,0.0,0.0,0.0,0.0,0.0,-0.01148975,-9.495579e-05,-0.66118014
53129522,-0.15151285,-0.0033845431,nan,0.06775801,0.0,-0.059414055,-0.045908786,-0.42167276,0.0,0.0,0.0,0.0,0.0,0.0,-0.012104759,-0.0043474804,-0.64971614
53230631,-0.15151285,-0.0033845431,nan,0.06775801,0.0,-0.062869534,-0.04931248,-0.42168787,0.0,0.0,0.0,0.0,0.0,0.0,-0.014056411,-0.00095141353,-0.63678503
53329679,-0.15151285,-0.0033845431,nan,0.06775801,0.0,-0.06505413,-0.04974115,-0.42168665,0.0,0.0,0.0,0.0,0.0,0.0,-0.004260731,0.0028267854,-0.6281773
53429850,-0.15151285,-0.0033845431,nan,0.06775801,0.0,-0.06655687,-0.04722487,-0.42168665,0.0,0.0,0.0,0.0,0.0,0.0,-0.0076680095,0.004183589,-0.6244872
53549877,-0.15151285,-0.0033845431,nan,0.06775801,0.0,-0.067258224,-0.040982366,-0.42168665,0.0,0.0,0.0,0.0,0.0,0.0,-0.00765826,0.007929611,-0.62400043
53649828,-0.15151285,-0.0033845431,nan,0.06775801,0.0,-0.067288704,-0.033792853,-0.42168665,0.0,0.0,0.0,0.0,0.0,0.0,-0.010525762,0.00875965,-0.6241592
53749868,-0.15151285,-0.0033845431,nan,0.06775801,0.0,-0.0670183,-0.024999373,-0.42168665,0.0,0.0,0.0,0.0,0.0,0.0,-0.008271797,0.010643782,-0.626081
53850060,-0.15151285,-0.0033845431,nan,0.06775801,0.0,-0.06676334,-0.016463574,-0.42168665,0.0,0.0,0.0,0.0,0.0,0.0,-0.010103752,0.007917027,-0.6302825
53950151,-0.15151285,-0.0033845431,nan,0.06775801,0.0,-0.066861525,-0.0073169684,-0.42168665,0.0,0.0,0.0,0.0,0.0,0.0,-0.01136833,0.008230994,-0.63319206
54050628,-0.15151285,-0.0033845431,nan,0.06775801,0.0,-0.0679872,-0.00015810884,-0.42168665,0.0,0.0,0.0,0.0,0.0,0.0,-0.012252741,0.013391905,-0.6373807
54150711,-0.15151285,-0.0033845431,nan,0.06775801,0.0,-0.07039263,0.006229129,-0.42168665,0.0,0.0,0.0,0.0,0.0,0.0,-0.011476899,0.013017658,-0.6400327
54250690,-0.15151285,-0.0033845431,nan,0.06775801,0.0,-0.07361415,0.010330413,-0.42168665,0.0,0.0,0.0,0.0,0.0,0.0,-0.014512969,0.0076342626,-0.64492667
54350712,-0.15151285,-0.0033845431,nan,0.06775801,0.0,-0.077900045,0.013446691,-0.42168665,0.0,0.0,0.0,0.0,0.0,0.0,-0.018739495,0.005683904,-0.64785254
54450763,-0.15151285,-0.0033845431,nan,0.06775801,0.0,-0.081826665,0.014869693,-0.42168665,0.0,0.0,0.0,0.0,0.0,0.0,-0.008524206,0.009162727,-0.64891016
54570789,-0.15151285,-0.0033845431,nan,0.06775801,0.0,-0.085949935,0.015870048,-0.42168665,0.0,0.0,0.0,0.0,0.0,0.0,-0.011192423,0.007176937,-0.65181804
54670789,-0.15151285,-0.0033845431,nan,0.06775801,0.0,-0.08799113,0.016514163,-0.42168665,0.0,0.0,0.0,0.0,0.0,0.0,-0.010395318,0.0062237205,-0.65415025
54771564,-0.15151285,-0.0033845431,nan,0.06775801,0.0,-0.08824402,0.017251804,-0.42168665,0.0,0.0,0.0,0.0,0.0,0.0,-0.00815765,0.0073265517,-0.6554155
54871152,-0.15151285,-0.0033845431,nan,0.06775801,0.0,-0.08711457,0.01873627,-0.42168665,0.0,0.0,0.0,0.0,0.0,0.0,-0.015926858,0.009976405,-0.65571886
54971238,-0.15151285,-0.0033845431,nan,0.06775801,0.0,-0.08444087,0.020752156,-0.42168665,0.0,0.0,0.0,0.0,0.0,0.0,-0.0056589087,0.009867046,-0.6576257
55071337,-0.15151285,-0.0033845431,nan,0.06775801,0.0,-0.080284506,0.023143558,-0.42168665,0.0,0.0,0.0,0.0,0.0,0.0,-0.008898996,0.008702369,-0.6551317
55171354,-0.15151285,-0.0033845431,nan,0.06775801,0.0,-0.07586763,0.025660815,-0.42168665,0.0,0.0,0.0,0.0,0.0,0.0,-0.010698626,0.009310566,-0.65496206
55271395,-0.15151285,-0.0033845431,nan,0.06775801,0.0,-0.07135426,0.027287632,-0.42168665,0.0,0.0,0.0,0.0,0.0,0.0,-0.011697318,0.0077737737,-0.6535788
55371576,-0.15151285,-0.0033845431,nan,0.06775801,0.0,-0.068421274,0.028014584,-0.42168665,0.0,0.0,0.0,0.0,0.0,0.0,-0.007810639,0.007262646,-0.6494131
55471601,-0.15151285,-0.0033845431,nan,0.06775801,0.0,-0.06651845,0.027515212,-0.42168665,0.0,0.0,0.0,0.0,0.0,0.0,-0.006953329,0.0088365115,-0.6472607
55571907,-0.15151285,-0.0033845431,nan,0.06775801,0.0,-0.06581051,0.026433216,-0.42168665,0.0,0.0,0.0,0.0,0.0,0.0,-0.013905321,0.004334768,-0.64796615
55671994,-0.15151285,-0.0033845431,nan,0.06775801,0.0,-0.06649424,0.024429142,-0.42168665,0.0,0.0,0.0,0.0,0.0,0.0,-0.012552288,0.0044101044,-0.6446341
55772098,-0.15151285,-0.0033845431,nan,0.06775801,0.0,-0.06801924,0.022471108,-0.42168665,0.0,0.0,0.0,0.0,0.0,0.0,-0.013315781,0.005721287,-0.6441749
55892309,-0.15151285,-0.0033845431,nan,0.06775801,0.0,-0.07090935,0.020032126,-0.42168665,0.0,0.0,0.0,0.0,0.0,0.0,-0.014100093,0.0064186575,-0.64564127
55992365,-0.15151285,-0.0033845431,nan,0.06775801,0.0,-0.07320328,0.018484209,-0.42168665,0.0,0.0,0.0,0.0,0.0,0.0,-0.014310399,0.004950229,-0.6468626
56092333,-0.15151285,-0.0033845431,nan,0.06775801,0.0,-0.07460454,0.018001268,-0.42168665,0.0,0.0,0.0,0.0,0.0,0.0,-0.010273049,0.006011092,-0.64985585
56192440,-0.15151285,-0.0033845431,nan,0.06775801,0.0,-0.074611366,0.019073201,-0.40486068,0.0,0.0,0.0,0.0,0.0,0.0,-0.008447329,0.0074064285,-0.65300333
56292618,-0.15151285,-0.0033845431,nan,0.06775801,0.0,-0.07336297,0.021515124,-0.40562242,0.0,0.0,0.0,0.0,0.0,0.0,-0.010562401,0.0066713225,-0.6561347
56393192,-0.15151285,-0.0033845431,nan,0.06775801,0.0,-0.07057587,0.02501271,-0.40562284,0.0,0.0,0.0,0.0,0.0,0.0,-0.012258298,0.008515033,-0.66329
56493356,-0.15151285,-0.0033845431,nan,0.06775801,0.0,-0.066329055,0.029026125,-0.40562242,0.0,0.0,0.0,0.0,0.0,0.0,-0.006165767,0.012185633,-0.66672194
56593381,-0.15151285,-0.0033845431,nan,0.06775801,0.0,-0.06031877,0.032434773,-0.40562242,0.0,0.0,0.0,0.0,0.0,0.0,-0.0065411464,0.010337796,-0.67083955
56693445,-0.15151285,-0.0033845431,nan,0.06775801,0.0,-0.053927723,0.034898534,-0.40562242,0.0,0.0,0.0,0.0,0.0,0.0,-0.0036316426,0.007549986,-0.6753318
56793522,-0.15151285,-0.0033845431,nan,0.06775801,0.0,-0.046183247,0.035737254,-0.40562242,0.0,0.0,0.0,0.0,0.0,0.0,0.0007233247,0.008715242,-0.67654
56913053,-0.15151285,-0.0033845431,nan,0.06775801,0.0,-0.036793206,0.034643903,-0.40562242,0.0,0.0,0.0,0.0,0.0,0.0,-0.0015068604,0.0074989656,-0.6791329
57013144,-0.15151285,-0.0033845431,nan,0.06775801,0.0,-0.028335635,0.031892195,-0.40562242,0.0,0.0,0.0,0.0,0.0,0.0,-0.0003457088,0.006909889,-0.6782547
57113243,-0.15151285,-0.0033845431,nan,0.06775801,0.0,-0.020653272,0.027963882,-0.40562242,0.0,0.0,0.0,0.0,0.0,0.0,-0.0013908246,0.0030531727,-0.680625
57213568,-0.15151285,-0.0033845431,nan,0.06775801,0.0,-0.012165529,0.022167789,-0.40562242,0.0,0.0,0.0,0.0,0.0,0.0,0.0019263169,0.004823745,-0.6791346
57313563,-0.15151285,-0.0033845431,nan,0.06775801,0.0,-0.00444445,0.016695326,-0.40562242,0.0,0.0,0.0,0.0,0.0,0.0,0.0007362999,0.0013580043,-0.6797416
57413688,-0.15151285,-0.0033845431,nan,0.06775801,0.0,0.0039701923,0.010399597,-0.40562242,0.0,0.0,0.0,0.0,0.0,0.0,0.0061447206,0.004502151,-0.6768955
57513815,-0.15151285,-0.0033845431,nan,0.06775801,0.0,0.011511856,0.0053434772,-0.40562242,0.0,0.0,0.0,0.0,0.0,0.0,-0.0016842061,0.00200081,-0.67925584
57613780,-0.15151285,-0.0033845431,nan,0.06775801,0.0,0.019219486,0.0012138004,-0.40562242,0.0,0.0,0.0,0.0,0.0,0.0,0.0044956785,0.0050990176,-0.68080485
57713975,-0.15151285,-0.0033845431,nan,0.06775801,0.0,0.025791146,-0.000882526,-0.40562242,0.0,0.0,0.0,0.0,0.0,0.0,0.0007943837,0.0034526219,-0.6796447
57813968,-0.15151285,-0.0033845431,nan,0.06775801,0.0,0.03187514,-0.001589859,-0.40562242,0.0,0.0,0.0,0.0,0.0,0.0,0.0017974321,0.006085414,-0.6843784
57914021,-0.15151285,-0.0033845431,nan,0.06775801,0.0,0.03648403,-0.0010135195,-0.40562242,0.0,0.0,0.0,0.0,0.0,0.0,0.004470468,0.00566141,-0.68486303
58014355,-0.15151285,-0.0033845431,nan,0.06775801,0.0,0.03973182,0.00013684262,-0.40562242,0.0,0.0,0.0,0.0,0.0,0.0,0.0032983394,0.007872561,-0.6870166
58114324,-0.15151285,-0.0033845431,nan,0.06775801,0.0,0.04087037,0.0013261663,-0.40562242,0.0,0.0,0.0,0.0,0.0,0.0,0.0016289493,0.004966465,-0.68776727
58234401,-0.15151285,-0.0033845431,nan,0.06775801,0.0,0.039846867,0.0023065556,-0.40562242,0.0,0.0,0.0,0.0,0.0,0.0,-0.001333826,0.006457649,-0.6876711
58334536,-0.15151285,-0.0033845431,nan,0.06775801,0.0,0.03732459,0.002830946,-0.40562242,0.0,0.0,0.0,0.0,0.0,0.0,-0.0023125429,0.003225634,-0.6851976
58434585,-0.15151285,-0.0033845431,nan,0.06775801,0.0,0.03387554,0.0030567062,-0.40562242,0.0,0.0,0.0,0.0,0.0,0.0,-0.0020423734,0.00824331,-0.68723255
58534654,-0.15151285,-0.0033845431,nan,0.06775801,0.0,0.02936835,0.003160361,-0.40562242,0.0,0.0,0.0,0.0,0.0,0.0,-0.0037384052,0.0075117713,-0.68638265
58634739,-0.15151285,-0.0033845431,nan,0.06775801,0.0,0.024966171,0.0036842262,-0.40562242,0.0,0.0,0.0,0.0,0.0,0.0,-0.0030671565,0.007113277,-0.68592757
58734855,-0.15151285,-0.0033845431,nan,0.06775801,0.0,0.020626461,0.004202819,-0.40562242,0.0,0.0,0.0,0.0,0.0,0.0,-0.0042918436,0.0074229958,-0.68467665
58835365,-0.15151285,-0.0033845431,nan,0.06775801,0.0,0.017024044,0.0053400574,-0.40562242,0.0,0.0,0.0,0.0,0.0,0.0,-0.0053259437,0.008999901,-0.68523574
58935455,-0.15151285,-0.0033845431,nan,0.06775801,0.0,0.014186397,0.007634266,-0.40562242,0.0,0.0,0.0,0.0,0.0,0.0,-0.0031124332,0.008461065,-0.6856068
59035470,-0.15151285,-0.0033845431,nan,0.06775801,0.0,0.012819682,0.010953859,-0.40562242,0.0,0.0,0.0,0.0,0.0,0.0,-0.003949506,0.00813164,-0.6843909
59135373,nan,nan,nan,0.06775801,0.0,0.016220696,-0.23902507,-0.40562242,0.0,0.0,0.0,0.0,0.0,0.0,-0.004959973,-0.0089478195,-0.6861754
59235580,-0.16441335,-0.025416648,nan,0.06775801,0.0,6.221607e-05,0.0020273963,-0.40562242,0.0,0.0,0.0,0.0,0.0,0.0,-0.0036697574,0.0144927,-0.6839739
59335463,-0.16441335,-0.025416648,nan,0.06775801,0.0,0.0006217927,0.010623463,-0.40562242,0.0,0.0,0.0,0.0,0.0,0.0,-0.006627555,0.014305241,-0.6841114
59435565,-0.16441335,-0.025416648,nan,0.06775801,0.0,0.0014789022,0.021525308,-0.40562242,0.0,0.0,0.0,0.0,0.0,0.0,-0.005914405,0.019949416,-0.68416655
59555896,-0.16441335,-0.025416648,nan,0.06775801,0.0,0.0019412264,0.03534378,-0.40562242,0.0,0.0,0.0,0.0,0.0,0.0,-0.005863576,0.020754024,-0.68219477
59655954,-0.16441335,-0.025416648,nan,0.06775801,0.0,0.0013356283,0.04728762,-0.40562242,0.0,0.0,0.0,0.0,0.0,0.0,-0.005935262,0.022370277,-0.67911077
59756088,-0.16441335,-0.025416648,nan,0.06775801,0.0,-0.00035946592,0.06090628,-0.40562242,0.0,0.0,0.0,0.0,0.0,0.0,-0.004760574,0.024686739,-0.6783794
59856198,-0.16441335,-0.025416648,nan,0.06775801,0.0,-0.0023607283,0.07315938,-0.40562242,0.0,0.0,0.0,0.0,0.0,0.0,-0.009281809,0.024415953,-0.67777646
59956178,-0.16441335,-0.025416648,nan,0.06775801,0.0,-0.0051095323,0.084862635,-0.40562242,0.0,0.0,0.0,0.0,0.0,0.0,-0.008698903,0.021477748,-0.6797081
60056200,-0.16441335,-0.025416648,nan,0.06775801,0.0,-0.007530254,0.09494304,-0.40562242,0.0,0.0,0.0,0.0,0.0,0.0,-0.0095748175,0.019951053,-0.68245035
60156350,-0.16441335,-0.025416648,nan,0.06775801,0.0,-0.009409873,0.10108487,-0.40562242,0.0,0.0,0.0,0.0,0.0,0.0,-0.0018121381,0.022627447,-0.6871079
60256407,-0.16441335,-0.025416648,nan,0.06775801,0.0,-0.010369416,0.104844764,-0.40562242,0.0,0.0,0.0,0.0,0.0,0.0,-0.0024701608,0.022933539,-0.6925661
60356603,-0.16441335,-0.025416648,nan,0.06775801,0.0,-0.010170608,0.10483842,-0.40562242,0.0,0.0,0.0,0.0,0.0,0.0,-0.0039864867,0.016801186,-0.69513667
60456732,-0.16441335,-0.025416648,nan,0.06775801,0.0,-0.009117748,0.10133394,-0.40562242,0.0,0.0,0.0,0.0,0.0,0.0,-0.0032618442,0.01601769,-0.6991558
60556805,-0.16441335,-0.025416648,nan,0.06775801,0.0,-0.0073457435,0.095179625,-0.40562242,0.0,0.0,0.0,0.0,0.0,0.0,-0.0036452254,0.013524635,-0.7021694
60656908,-0.16441335,-0.025416648,nan,0.06775801,0.0,-0.0041073225,0.086438306,-0.40562242,0.0,0.0,0.0,0.0,0.0,0.0,-0.0038703308,0.009323407,-0.70176065
60756962,-0.16441335,-0.025416648,nan,0.06775801,0.0,0.00027873367,0.07725493,-0.40562242,0.0,0.0,0.0,0.0,0.0,0.0,0.00033332128,0.01275874,-0.69944584
60856993,-0.16441335,-0.025416648,nan,0.06775801,0.0,0.0064765303,0.0681611,-0.40562242,0.0,0.0,0.0,0.0,0.0,0.0,0.0034982194,0.008367905,-0.6981759
60977777,-0.16441335,-0.025416648,nan,0.06775801,0.0,0.014786984,0.059083447,-0.40562242,0.0,0.0,0.0,0.0,0.0,0.0,-0.00046399096,0.009578716,-0.6968515
61077228,-0.16441335,-0.025416648,nan,0.06775801,0.0,0.02145499,0.05321316,-0.40562242,0.0,0.0,0.0,0.0,0.0,0.0,0.004665523,0.011161627,-0.6972261
61177549,-0.16441335,-0.025416648,nan,0.06775801,0.0,0.028623696,0.048824646,-0.40562242,0.0,0.0,0.0,0.0,0.0,0.0,0.004537214,0.0072184475,-0.69771075
61277717,-0.16441335,-0.025416648,nan,0.06775801,0.0,0.03462767,0.045736466,-0.40562242,0.0,0.0,0.0,0.0,0.0,0.0,0.003348892,0.009246698,-0.69881815
61377880,-0.16441335,-0.025416648,nan,0.06775801,0.0,0.040117886,0.043393806,-0.40562242,0.0,0.0,0.0,0.0,0.0,0.0,0.002748699,0.008685426,-0.7000997
61477917,-0.16441335,-0.025416648,nan,0.06775801,0.0,0.04441977,0.04143254,-0.40562242,0.0,0.0,0.0,0.0,0.0,0.0,0.002050482,0.0061052185,-0.70365775
61577986,-0.16441335,-0.025416648,nan,0.06775801,0.0,0.047087304,0.039183393,-0.40562242,0.0,0.0,0.0,0.0,0.0,0.0,0.0011672615,0.0080527365,-0.70413756
61677969,-0.16441335,-0.025416648,nan,0.06775801,0.0,0.048153173,0.036036838,-0.40562242,0.0,0.0,0.0,0.0,0.0,0.0,-5.222601e-05,0.005094881,-0.70813036
61777895,-0.16441335,-0.025416648,nan,0.06775801,0.0,0.047961004,0.03240777,-0.40396303,0.0,0.0,0.0,0.0,0.0,0.0,0.001542653,0.0056440756,-0.70819056
61878405,-0.16441335,-0.025416648,nan,0.06775801,0.0,0.046641514,0.02714462,-0.21488872,0.0,0.0,0.0,0.0,0.0,0.0,-0.001691115,0.0038356488,-0.6753826
61998418,-0.16441335,-0.025416648,nan,0.06775801,0.0,0.043640334,0.0203049,-0.14895883,0.0,0.0,0.0,0.0,0.0,0.0,-0.0017192911,0.0036906581,-0.66679764
62098452,-0.16441335,-0.025416648,nan,0.06775801,0.0,0.039851736,0.013495075,-0.14022756,0.0,0.0,0.0,0.0,0.0,0.0,-0.0040042032,0.0034651407,-0.67346376
62198538,-0.16441335,-0.025416648,nan,0.06775801,0.0,0.035660017,0.0066155912,-0.13219206,0.0,0.0,0.0,0.0,0.0,0.0,-0.0029208823,0.004185242,-0.6785224
62298575,-0.16441335,-0.025416648,nan,0.06775801,0.0,0.03137921,5.114423e-05,-0.13258424,0.0,0.0,0.0,0.0,0.0,0.0,-0.006308334,0.0021956502,-0.6860641
62398584,-0.16441335,-0.025416648,nan,0.06775801,0.0,0.026656635,-0.0064024655,-0.12415297,0.0,0.0,0.0,0.0,0.0,0.0,-0.0042014993,0.0026284768,-0.6901427
62498612,-0.16441335,-0.025416648,nan,0.06775801,0.0,0.022445733,-0.0121118715,-0.11896062,0.0,0.0,0.0,0.0,0.0,0.0,-0.0050322693,0.0011373018,-0.68944424
62598750,-0.16441335,-0.025416648,-0.5295687,0.06775801,0.0,0.017954044,-0.017355558,0.0,0.0,0.0,0.0,0.0,0.0,0.0,-0.0022336338,0.005780882,-0.6673443
62698818,-0.16441335,-0.025416648,-0.5295687,0.06775801,0.0,0.013858216,-0.021620594,-0.017107666,0.0,0.0,0.0,0.0,0.0,0.0,-0.0075516757,0.0012433683,-0.6728858
62799011,-0.16441335,-0.025416648,-0.5295687,0.06775801,0.0,0.009587164,-0.02528475,-0.03508839,0.0,0.0,0.0,0.0,0.0,0.0,-0.0021945133,0.004569103,-0.6778943
62899130,-0.16441335,-0.025416648,-0.5295687,0.06775801,0.0,0.005725209,-0.0282964,-0.050831318,0.0,0.0,0.0,0.0,0.0,0.0,-0.010877454,0.00055185705,-0.6817186
62999556,-0.16441335,-0.025416648,-0.5295687,0.06775801,0.0,0.0014590129,-0.030994426,-0.06673366,0.0,0.0,0.0,0.0,0.0,0.0,-0.0054915473,0.002250948,-0.6839548
63099598,-0.16441335,-0.025416648,-0.5295687,0.06775801,0.0,-0.0029551715,-0.033546012,-0.07937667,0.0,0.0,0.0,0.0,0.0,0.0,-0.010769695,2.1734275e-05,-0.6814262
63199546,-0.16441335,-0.025416648,-0.5295687,0.06775801,0.0,-0.007703185,-0.03645966,-0.08930886,0.0,0.0,0.0,0.0,0.0,0.0,-0.011122081,-0.0016803523,-0.6807904
63299568,-0.16441335,-0.025416648,-0.5295687,0.06775801,0.0,-0.013424431,-0.040583424,-0.096723914,0.0,0.0,0.0,0.0,0.0,0.0,-0.014773887,-0.004046371,-0.67867136
63419602,-0.16441335,-0.025416648,-0.5295687,0.06775801,0.0,-0.02094622,-0.046554193,-0.10108647,0.0,0.0,0.0,0.0,0.0,0.0,-0.013329659,-0.0041128197,-0.6720984
63519668,-0.16441335,-0.025416648,-0.5295687,0.06775801,0.0,-0.027431866,-0.05223723,-0.101952225,0.0,0.0,0.0,0.0,0.0,0.0,-0.009043058,-0.0015707114,-0.6689204
63619936,-0.16441335,-0.025416648,-0.5295687,0.06775801,0.0,-0.0340389,-0.058643963,-0.10182977,0.0,0.0,0.0,0.0,0.0,0.0,-0.012604622,-0.0015999363,-0.67060435
63720367,-0.16441335,-0.025416648,-0.5295687,0.06775801,0.0,-0.04051018,-0.0652512,-0.10243237,0.0,0.0,0.0,0.0,0.0,0.0,-0.008143396,-0.0019013998,-0.67044324
63820141,-0.16441335,-0.025416648,-0.5295687,0.06775801,0.0,-0.04625119,-0.07084722,-0.10468432,0.0,0.0,0.0,0.0,0.0,0.0,-0.016194217,-0.0049439133,-0.67183477
63920342,-0.16441335,-0.025416648,-0.5295687,0.06775801,0.0,-0.051692106,-0.07612053,-0.108841926,0.0,0.0,0.0,0.0,0.0,0.0,-0.016013972,-0.005663897,-0.6730952
64020165,-0.16441335,-0.025416648,-0.5295687,0.06775801,0.0,-0.055654038,-0.07938945,-0.11374554,0.0,0.0,0.0,0.0,0.0,0.0,-0.011751331,-0.002271288,-0.67477787
64120217,-0.16441335,-0.025416648,-0.5295687,0.06775801,0.0,-0.058933258,-0.081147,-0.11954579,0.0,0.0,0.0,0.0,0.0,0.0,-0.00888135,-0.0010703257,-0.67357755
64220397,nan,nan,-0.5295687,0.06775801,0.0,0.017078524,-0.2516659,-0.12381512,0.0,0.0,0.0,0.0,0.0,0.0,-0.0072112177,-0.018121008,-0.6725735
64320606,nan,nan,-0.5295687,0.06775801,0.0,0.0044751805,-0.06594541,-0.12755361,0.0,0.0,0.0,0.0,0.0,0.0,-0.010452336,0.0023687547,-0.6724411
64420815,nan,nan,-0.5295687,0.06775801,0.0,0.012157001,-0.17914324,-0.13030848,0.0,0.0,0.0,0.0,0.0,0.0,-0.0059926803,-0.008675681,-0.6712543
64841018,nan,nan,-0.5295687,0.06775801,0.0,0.010773517,-0.1587565,-0.12961283,0.0,0.0,0.0,0.0,0.0,0.0,-0.005633139,-0.006308942,-0.6672361
64941114,nan,nan,-0.5295687,0.06775801,0.0,0.0059873657,-0.08822868,-0.12761939,0.0,0.0,0.0,0.0,0.0,0.0,-0.007753384,0.0019362837,-0.66530544
65041187,nan,nan,-0.5295687,0.06775801,0.0,0.005515122,-0.081269786,-0.12488121,0.0,0.0,0.0,0.0,0.0,0.0,-0.0086122705,0.0014308093,-0.6653986
65141360,nan,nan,-0.5295687,0.06775801,0.0,0.0035304797,-0.052024476,-0.12296417,0.0,0.0,0.0,0.0,0.0,0.0,-0.010027618,0.0037518893,-0.6655154
65241780,nan,nan,-0.5295687,0.06775801,0.0,0.0036679704,-0.054050513,-0.1220299,0.0,0.0,0.0,0.0,0.0,0.0,-0.009327414,0.0022419149,-0.6671319
65341815,-0.046836857,-0.0058722477,-0.5295687,0.06775801,0.0,-0.001238613,0.0008502001,-0.12191439,0.0,0.0,0.0,0.0,0.0,0.0,-0.013414862,0.009576258,-0.6674651
65441970,nan,nan,-0.5295687,0.06775801,0.0,0.0012633286,-0.01861617,-0.123096526,0.0,0.0,0.0,0.0,0.0,0.0,-0.009259482,0.0074529313,-0.6694155
65541960,-0.031550158,-0.014915551,-0.5295687,0.06775801,0.0,-0.0035370174,0.0019325991,-0.12513262,0.0,0.0,0.0,0.0,0.0,0.0,-0.016889922,0.010432303,-0.67203176
65641937,nan,nan,-0.5295687,0.06775801,0.0,0.0037029008,-0.05456524,-0.12812239,0.0,0.0,0.0,0.0,0.0,0.0,-0.013175795,0.0046891193,-0.67357624
65741946,nan,nan,-0.5295687,0.06775801,0.0,0.0091090165,-0.13422874,-0.13159537,0.0,0.0,0.0,0.0,0.0,0.0,-0.0192962,-0.004391241,-0.67718446
65862424,nan,nan,-0.5295687,0.06775801,0.0,0.02165275,-0.31907082,-0.13609904,0.0,0.0,0.0,0.0,0.0,0.0,-0.014745409,-0.023044959,-0.67885506
65962481,nan,nan,-0.5295687,0.06775801,0.0,0.017908933,-0.2639026,-0.14006445,0.0,0.0,0.0,0.0,0.0,0.0,-0.015205135,-0.010518821,-0.6791532
66062617,nan,nan,-0.5295687,0.06775801,0.0,0.017585257,-0.25913298,-0.14278841,0.0,0.0,0.0,0.0,0.0,0.0,-0.011722777,-0.010285276,-0.6776029
66162648,nan,nan,-0.5295687,0.06775801,0.0,0.012572527,-0.18526636,-0.14317033,0.0,0.0,0.0,0.0,0.0,0.0,-0.012732224,-0.0060812254,-0.6751281
66262607,0.028584449,-0.055932228,-0.5295687,0.06775801,0.0,-0.0011039018,0.002726752,-0.14168784,0.0,0.0,0.0,0.0,0.0,0.0,-0.017416887,0.012752057,-0.67299247
66362702,0.028584449,-0.055932228,-0.5295687,0.06775801,0.0,-0.0051805973,0.013934761,-0.13854903,0.0,0.0,0.0,0.0,0.0,0.0,-0.010990013,0.01410492,-0.6708425
66462679,0.028584449,-0.055932228,-0.5295687,0.06775801,0.0,-0.009235465,0.02714276,-0.13359588,0.0,0.0,0.0,0.0,0.0,0.0,-0.012755813,0.0150098195,-0.6670942
66562740,0.028584449,-0.055932228,-0.5295687,0.06775801,0.0,-0.012608061,0.03960052,-0.12792313,0.0,0.0,0.0,0.0,0.0,0.0,-0.009198284,0.015049485,-0.66370493
66663624,0.028584449,-0.055932228,-0.5295687,0.06775801,0.0,-0.015898317,0.052345123,-0.12139273,0.0,0.0,0.0,0.0,0.0,0.0,-0.013639456,0.01534757,-0.6640949
66782968,0.028584449,-0.055932228,-0.5295687,0.06775801,0.0,-0.019447066,0.06492225,-0.11448902,0.0,0.0,0.0,0.0,0.0,0.0,-0.011592366,0.017289175,-0.6627108
66883182,0.028584449,-0.055932228,-0.5295687,0.06775801,0.0,-0.02187575,0.07149694,-0.11030272,0.0,0.0,0.0,0.0,0.0,0.0,-0.012606911,0.015242288,-0.66444254
66983234,0.028584449,-0.055932228,-0.5295687,0.06775801,0.0,-0.02344838,0.07507814,-0.10678354,0.0,0.0,0.0,0.0,0.0,0.0,-0.011418237,0.010624662,-0.66520214
67083367,0.028584449,-0.055932228,-0.5295687,0.06775801,0.0,-0.024057321,0.07488297,-0.10454279,0.0,0.0,0.0,0.0,0.0,0.0,-0.011639339,0.011042919,-0.66468704
67183394,0.028584449,-0.055932228,-0.5295687,0.06775801,0.0,-0.023622822,0.071774796,-0.10272798,0.0,0.0,0.0,0.0,0.0,0.0,-0.006433363,0.0049406174,-0.66346526
67283414,0.028584449,-0.055932228,-0.5295687,0.06775801,0.0,-0.0222143,0.066186324,-0.100694984,0.0,0.0,0.0,0.0,0.0,0.0,-0.008816072,0.0076399343,-0.6632768
67383515,0.028584449,-0.055932228,-0.5295687,0.06775801,0.0,-0.019758347,0.058888096,-0.09810659,0.0,0.0,0.0,0.0,0.0,0.0,-0.0072307866,0.0024053394,-0.66144526
67483591,0.028584449,-0.055932228,-0.5295687,0.06775801,0.0,-0.015667422,0.049240682,-0.094445825,0.0,0.0,0.0,0.0,0.0,0.0,-0.009425097,0.0042522196,-0.66182876
67583767,0.028584449,-0.055932228,-0.5295687,0.06775801,0.0,-0.010898177,0.039293263,-0.09054574,0.0,0.0,0.0,0.0,0.0,0.0,-0.006358017,-0.0029890998,-0.66207886
67684185,0.028584449,-0.055932228,-0.5295687,0.06775801,0.0,-0.0050125998,0.0287518,-0.08696395,0.0,0.0,0.0,0.0,0.0,0.0,-0.006363981,-0.0018503037,-0.6609456
67784335,0.028584449,-0.055932228,-0.5295687,0.06775801,0.0,0.0007536727,0.02013876,-0.08430585,0.0,0.0,0.0,0.0,0.0,0.0,-0.0010441849,-0.0018915138,-0.66289866
67884344,0.028584449,-0.055932228,-0.5295687,0.06775801,0.0,0.00704964,0.012352407,-0.08261272,0.0,0.0,0.0,0.0,0.0,0.0,-0.0049386146,-0.0016355119,-0.6672178
68004410,0.028584449,-0.055932228,-0.5295687,0.06775801,0.0,0.013886778,0.006108974,-0.08387187,0.0,0.0,0.0,0.0,0.0,0.0,-0.00041178055,-0.002729664,-0.6700818
68104337,0.028584449,-0.055932228,-0.5295687,0.06775801,0.0,0.018758124,0.0030056874,-0.08675906,0.0,0.0,0.0,0.0,0.0,0.0,-0.000674075,0.0032571745,-0.67326975
68204389,0.028584449,-0.055932228,-0.5295687,0.06775801,0.0,0.023055065,0.0011721536,-0.09078696,0.0,0.0,0.0,0.0,0.0,0.0,0.0005409927,0.0020114512,-0.6748327
68305518,0.028584449,-0.055932228,-0.5295687,0.06775801,0.0,0.026295496,0.00090782024,-0.09431437,0.0,0.0,0.0,0.0,0.0,0.0,0.00094429357,0.0029787736,-0.67349046
68404729,0.028584449,-0.055932228,-0.5295687,0.06775801,0.0,0.028128963,0.0018173074,-0.096093714,0.0,0.0,0.0,0.0,0.0,0.0,-0.0031282562,0.0034866224,-0.67122066
68504744,0.028584449,-0.055932228,-0.5295687,0.06775801,0.0,0.029350216,0.0043216813,-0.09503919,0.0,0.0,0.0,0.0,0.0,0.0,-0.000879067,0.00537827,-0.66870284
68604955,0.028584449,-0.055932228,-0.5295687,0.06775801,0.0,0.030077567,0.0074793734,-0.092116386,0.0,0.0,0.0,0.0,0.0,0.0,-0.0048304223,0.0058832048,-0.66607773
68705087,0.028584449,-0.055932228,-0.5295687,0.06775801,0.0,0.030890768,0.011985678,-0.08699882,0.0,0.0,0.0,0.0,0.0,0.0,-0.0031932273,0.0066035306,-0.6613782
68804997,0.028584449,-0.055932228,-0.5295687,0.06775801,0.0,0.03192728,0.01640164,-0.08051604,0.0,0.0,0.0,0.0,0.0,0.0,0.0012633302,0.009484731,-0.6581613
68905100,0.028584449,-0.055932228,-0.5295687,0.06775801,0.0,0.033495367,0.021695392,-0.07335061,0.0,0.0,0.0,0.0,0.0,0.0,0.00040482497,0.008506083,-0.6585511
69005339,0.028584449,-0.055932228,-0.5295687,0.06775801,0.0,0.035465878,0.02652304,-0.06754312,0.0,0.0,0.0,0.0,0.0,0.0,0.0009852005,0.013264673,-0.6575606
69105214,0.028584449,-0.055932228,-0.5295687,0.06775801,0.0,0.03827079,0.031246204,-0.062157452,0.0,0.0,0.0,0.0,0.0,0.0,0.00196065,0.008747777,-0.6572102
69205504,0.028584449,-0.055932228,-0.5295687,0.06775801,0.0,0.041471373,0.035101794,-0.058718443,0.0,0.0,0.0,0.0,0.0,0.0,0.0009485511,0.010960467,-0.66073895
69325620,0.028584449,-0.055932228,-0.5295687,0.06775801,0.0,0.045879923,0.038447037,-0.056675434,0.0,0.0,0.0,0.0,0.0,0.0,0.0021570628,0.011011144,-0.66140205
69425623,0.028584449,-0.055932228,-0.5295687,0.06775801,0.0,0.049296334,0.039974928,-0.057242364,0.0,0.0,0.0,0.0,0.0,0.0,0.0022042533,0.003662216,-0.66355324
69525787,0.028584449,-0.055932228,-0.5295687,0.06775801,0.0,0.05155976,0.039287493,-0.05945763,0.0,0.0,0.0,0.0,0.0,0.0,0.001561149,0.0078008585,-0.6672954
69625795,0.028584449,-0.055932228,-0.5295687,0.06775801,0.0,0.052843306,0.037267614,-0.06250185,0.0,0.0,0.0,0.0,0.0,0.0,0.001981542,0.003588562,-0.66844165
69725890,0.028584449,-0.055932228,-0.5295687,0.06775801,0.0,0.05272719,0.033932436,-0.06535593,0.0,0.0,0.0,0.0,0.0,0.0,-0.0008391924,0.0072344895,-0.66757166
69825911,0.028584449,-0.055932228,-0.5295687,0.06775801,0.0,0.051683508,0.029865835,-0.067802936,0.0,0.0,0.0,0.0,0.0,0.0,-0.0028370402,0.0064666537,-0.670912
69926155,0.028584449,-0.055932228,-0.5295687,0.06775801,0.0,0.05026883,0.025927097,-0.06983814,0.0,0.0,0.0,0.0,0.0,0.0,-0.006871961,0.0040227324,-0.67295283
70026190,0.028584449,-0.055932228,-0.5295687,0.06775801,0.0,0.048284825,0.022317978,-0.07249874,0.0,0.0,0.0,0.0,0.0,0.0,-0.0057087056,0.0071539436,-0.67283624
70127478,0.028584449,-0.055932228,-0.5295687,0.06775801,0.0,0.04629022,0.019683067,-0.074824184,0.0,0.0,0.0,0.0,0.0,0.0,-0.0027393505,0.004279393,-0.67418087
70227149,0.028584449,-0.055932228,-0.5295687,0.06775801,0.0,0.04428534,0.017697688,-0.07675323,0.0,0.0,0.0,0.0,0.0,0.0,-0.00019316096,0.004659631,-0.67339236
70346626,0.028584449,-0.055932228,-0.5295687,0.06775801,0.0,0.04231538,0.017000407,-0.077869326,0.0,0.0,0.0,0.0,0.0,0.0,-0.00583266,0.006118873,-0.6712289
70447923,0.028584449,-0.055932228,-0.5295687,0.06775801,0.0,0.04097975,0.017694814,-0.077539355,0.0,0.0,0.0,0.0,0.0,0.0,-0.0065118633,0.006941298,-0.67001384
70546773,0.028584449,-0.055932228,-0.5295687,0.06775801,0.0,0.040002383,0.020207338,-0.07627785,0.0,0.0,0.0,0.0,0.0,0.0,-0.0017359785,0.007962842,-0.6686653
70647567,0.028584449,-0.055932228,-0.5295687,0.06775801,0.0,0.039401595,0.023455866,-0.07478589,0.0,0.0,0.0,0.0,0.0,0.0,-0.0064343745,0.0067418055,-0.67150426
70746961,nan,nan,-0.5295687,0.06775801,0.0,0.0062276144,-0.091768935,-0.07380375,0.0,0.0,0.0,0.0,0.0,0.0,-0.0035827858,0.0023119538,-0.6709264
70847546,-0.01250971,-0.09116151,-0.5295687,0.06775801,0.0,0.0,0.0,-0.07306492,0.0,0.0,0.0,0.0,0.0,0.0,0.00067867665,0.012029276,-0.6692925
70947295,-0.01250971,-0.09116151,-0.5295687,0.06775801,0.0,0.00031081052,0.007123634,-0.07212725,0.0,0.0,0.0,0.0,0.0,0.0,-0.0063678892,0.009849563,-0.6679707
71047602,-0.01250971,-0.09116151,-0.5295687,0.06775801,0.0,0.0010946878,0.015232752,-0.07046643,0.0,0.0,0.0,0.0,0.0,0.0,-0.0084945215,0.011149218,-0.6668627
71147328,-0.01250971,-0.09116151,-0.5295687,0.06775801,0.0,0.0016953013,0.023594217,-0.068638146,0.0,0.0,0.0,0.0,0.0,0.0,-0.0007703202,0.014689071,-0.66572016
71247568,-0.01250971,-0.09116151,-0.5295687,0.06775801,0.0,0.001852204,0.03255164,-0.06675473,0.0,0.0,0.0,0.0,0.0,0.0,-0.004367739,0.014282547,-0.66719586
71347523,-0.01250971,-0.09116151,-0.5295687,0.06775801,0.0,0.0015752098,0.040195085,-0.06469303,0.0,0.0,0.0,0.0,0.0,0.0,-0.009262005,0.015780702,-0.66516167
71447592,-0.01250971,-0.09116151,-0.5295687,0.06775801,0.0,0.0010213902,0.04744502,-0.061927974,0.0,0.0,0.0,0.0,0.0,0.0,-0.00930278,0.013157093,-0.66152275
71547905,nan,nan,-0.5295687,0.06775801,0.0,0.009280704,0.0006298062,-0.05896759,0.0,0.0,0.0,0.0,0.0,0.0,-0.00699375,0.007879412,-0.66293305
71647994,nan,nan,-0.5295687,0.06775801,0.0,0.2932391,0.019899761,-0.05656889,0.0,0.0,0.0,0.0,0.0,0.0,0.015911419,0.009240467,-0.6645114
71747990,nan,nan,-0.5295687,0.06775801,0.0,0.55517507,0.037675235,-0.05563879,0.0,0.0,0.0,0.0,0.0,0.0,0.041515246,0.010316789,-0.6663952
71868219,nan,nan,-0.5295687,0.06775801,0.0,0.6611763,0.04486868,-0.056897223,0.0,0.0,0.0,0.0,0.0,0.0,0.042687688,0.011670198,-0.6700891
71968127,0.008949531,-0.15297422,-0.5295687,0.06775801,0.0,-0.0031904972,-0.00038603693,-0.059555024,0.0,0.0,0.0,0.0,0.0,0.0,-0.017368386,0.0073771514,-0.6701815
72068197,0.008949531,-0.15297422,-0.5295687,0.06775801,0.0,-0.016300745,-0.0020232326,-0.060428143,0.0,0.0,0.0,0.0,0.0,0.0,-0.015752105,0.0044039763,-0.66815984
72168383,0.008949531,-0.15297422,-0.5295687,0.06775801,0.0,-0.030358039,-0.004122611,-0.06124249,0.0,0.0,0.0,0.0,0.0,0.0,-0.016653195,0.0039290185,-0.66982996
72268586,0.008949531,-0.15297422,-0.5295687,0.06775801,0.0,-0.043119136,-0.0059107677,-0.06386289,0.0,0.0,0.0,0.0,0.0,0.0,-0.016783524,0.0027737687,-0.676539
72368722,0.008949531,-0.15297422,-0.5295687,0.06775801,0.0,-0.056431834,-0.007303077,-0.069099665,0.0,0.0,0.0,0.0,0.0,0.0,-0.0198728,0.001012438,-0.68345845
72468928,0.008949531,-0.15297422,-0.5295687,0.06775801,0.0,-0.06797028,-0.0077781416,-0.07567239,0.0,0.0,0.0,0.0,0.0,0.0,-0.012968411,0.004840785,-0.6855571
72568940,0.008949531,-0.15297422,-0.5295687,0.06775801,0.0,-0.07764863,-0.007147289,-0.08355099,0.0,0.0,0.0,0.0,0.0,0.0,-0.0094133485,0.006749461,-0.6866726
72688932,0.008949531,-0.15297422,-0.5295687,0.06775801,0.0,-0.082332,-0.004093152,-0.09176406,0.0,0.0,0.0,0.0,0.0,0.0,-0.010036262,0.008194275,-0.685681
72790223,0.008949531,-0.15297422,-0.5295687,0.06775801,0.0,-0.08025746,0.00014912039,-0.09703416,0.0,0.0,0.0,0.0,0.0,0.0,-0.010333527,0.009065774,-0.68497765
72889029,0.008949531,-0.15297422,-0.5295687,0.06775801,0.0,-0.073874846,0.0048652543,-0.0994184,0.0,0.0,0.0,0.0,0.0,0.0,-0.0077880863,0.011046134,-0.6834825
72989986,0.008949531,-0.15297422,-0.5295687,0.06775801,0.0,-0.06415416,0.0104677165,-0.099674284,0.0,0.0,0.0,0.0,0.0,0.0,-0.005114887,0.012794243,-0.6801734
73089254,0.008949531,-0.15297422,-0.5295687,0.06775801,0.0,-0.054436453,0.015779383,-0.097420454,0.0,0.0,0.0,0.0,0.0,0.0,-0.00778816,0.00902235,-0.6791923
73789920,nan,nan,-0.5295687,0.06775801,0.0,0.11615041,0.007882187,-0.07348579,0.0,0.0,0.0,0.0,0.0,0.0,0.008715903,0.007898683,-0.67497575
74310677,0.09149099,-0.18220717,-0.5295687,0.06775801,0.0,0.0,0.0,-0.08195084,0.0,0.0,0.0,0.0,0.0,0.0,-0.016293544,0.005276263,-0.67141753
74410992,0.09149099,-0.18220717,-0.5295687,0.06775801,0.0,-0.01822747,-0.0020018003,-0.07632679,0.0,0.0,0.0,0.0,0.0,0.0,-0.016090881,0.006158665,-0.6662919
74510747,0.09149099,-0.18220717,-0.5295687,0.06775801,0.0,-0.033896923,-0.003657399,-0.069389194,0.0,0.0,0.0,0.0,0.0,0.0,-0.017075,0.002542038,-0.66599584
74610744,0.09149099,-0.18220717,-0.5295687,0.06775801,0.0,-0.04945867,-0.0059819445,-0.063355744,0.0,0.0,0.0,0.0,0.0,0.0,-0.019550048,0.0077072107,-0.6718647
74710847,0.09149099,-0.18220717,-0.5295687,0.06775801,0.0,-0.06235045,-0.008432989,-0.06085968,0.0,0.0,0.0,0.0,0.0,0.0,-0.014703233,0.0024577896,-0.6728139
74811174,0.09149099,-0.18220717,-0.5295687,0.06775801,0.0,-0.073125124,-0.011370918,-0.060281873,0.0,0.0,0.0,0.0,0.0,0.0,-0.014224318,0.0011086278,-0.6760402
74931232,0.09149099,-0.18220717,-0.5295687,0.06775801,0.0,-0.0786996,-0.015331003,-0.06206903,0.0,0.0,0.0,0.0,0.0,0.0,-0.00676674,0.005895066,-0.6733366
75031251,0.09149099,-0.18220717,-0.5295687,0.06775801,0.0,-0.07582396,-0.017977826,-0.06425208,0.0,0.0,0.0,0.0,0.0,0.0,-0.004984718,-8.1043225e-05,-0.67624915
75131349,0.09149099,-0.18220717,-0.5295687,0.06775801,0.0,-0.06549537,-0.020733383,-0.067216635,0.0,0.0,0.0,0.0,0.0,0.0,-0.0012874319,0.0005872906,-0.680747
75231415,0.09149099,-0.18220717,-0.5295687,0.06775801,0.0,-0.050417703,-0.022336463,-0.07062918,0.0,0.0,0.0,0.0,0.0,0.0,0.0044881664,0.006909908,-0.68191934
75331421,0.09149099,-0.18220717,-0.5295687,0.06775801,0.0,-0.03111081,-0.023647642,-0.07514849,0.0,0.0,0.0,0.0,0.0,0.0,0.0073813037,0.0027111527,-0.6840571
75431708,0.09149099,-0.18220717,-0.5295687,0.06775801,0.0,-0.011949074,-0.024324091,-0.07809976,0.0,0.0,0.0,0.0,0.0,0.0,0.011235468,0.005303579,-0.6812103
75531669,0.09149099,-0.18220717,-0.5295687,0.06775801,0.0,0.006845877,-0.025993649,-0.07869664,0.0,0.0,0.0,0.0,0.0,0.0,0.012815255,0.004489138,-0.6764023
75631980,0.09149099,-0.18220717,-0.5295687,0.06775801,0.0,0.021363648,-0.027647393,-0.07627866,0.0,0.0,0.0,0.0,0.0,0.0,0.007599541,1.0007061e-05,-0.6745757
75732045,0.09149099,-0.18220717,-0.5295687,0.06775801,0.0,0.03304671,-0.029672367,-0.07085505,0.0,0.0,0.0,0.0,0.0,0.0,0.0043185484,-0.002142313,-0.67101884
75832320,0.09149099,-0.18220717,-0.5295687,0.06775801,0.0,0.039561,-0.032122716,-0.06480369,0.0,0.0,0.0,0.0,0.0,0.0,0.009530178,0.0016957251,-0.668522
75952261,0.09149099,-0.18220717,-0.5295687,0.06775801,0.0,0.042598497,-0.03548026,-0.057197005,0.0,0.0,0.0,0.0,0.0,0.0,0.010699451,0.0011538211,-0.66899544
76052274,0.09149099,-0.18220717,-0.5295687,0.06775801,0.0,0.041513596,-0.038551286,-0.05202675,0.0,0.0,0.0,0.0,0.0,0.0,0.008122652,-3.2456126e-05,-0.6698506
76152355,0.09149099,-0.18220717,-0.5295687,0.06775801,0.0,0.038739055,-0.041036364,-0.049916208,0.0,0.0,0.0,0.0,0.0,0.0,0.0034474886,0.0026739098,-0.67276824
76252431,0.09149099,-0.18220717,-0.5295687,0.06775801,0.0,0.03525735,-0.043302443,-0.050261617,0.0,0.0,0.0,0.0,0.0,0.0,0.0075230673,0.00048073195,-0.6758944
76352579,0.09149099,-0.18220717,-0.5295687,0.06775801,0.0,0.032536916,-0.04461184,-0.052915454,0.0,0.0,0.0,0.0,0.0,0.0,0.001594312,0.004398759,-0.6782906
76452603,0.09149099,-0.18220717,-0.5295687,0.06775801,0.0,0.030800251,-0.045604125,-0.05753839,0.0,0.0,0.0,0.0,0.0,0.0,0.005090651,-0.0025095264,-0.6831901
76552987,0.09149099,-0.18220717,-0.5295687,0.06775801,0.0,0.030698694,-0.04594325,-0.064245164,0.0,0.0,0.0,0.0,0.0,0.0,0.0028558685,-0.0008453205,-0.68706495
76653157,0.09149099,-0.18220717,-0.5295687,0.06775801,0.0,0.031235764,-0.045871705,-0.07130048,0.0,0.0,0.0,0.0,0.0,0.0,0.0072820717,0.0014588705,-0.68805265
76753127,0.09149099,-0.18220717,-0.5295687,0.06775801,0.0,0.032544326,-0.04497384,-0.07823405,0.0,0.0,0.0,0.0,0.0,0.0,0.0052093165,0.0025009029,-0.687733
76873240,0.09149099,-0.18220717,-0.5295687,0.06775801,0.0,0.034798983,-0.04290416,-0.08354533,0.0,0.0,0.0,0.0,0.0,0.0,0.0021729951,0.0011602121,-0.6882061
76973196,0.09149099,-0.18220717,-0.5295687,0.06775801,0.0,0.036653697,-0.040885955,-0.085229576,0.0,0.0,0.0,0.0,0.0,0.0,0.0077437833,0.0032212683,-0.68399405
77073228,0.09149099,-0.18220717,-0.5295687,0.06775801,0.0,0.038016938,-0.038440727,-0.084531546,0.0,0.0,0.0,0.0,0.0,0.0,0.0035182107,0.0016966108,-0.6820836
77173370,0.09149099,-0.18220717,-0.5295687,0.06775801,0.0,0.0383197,-0.036073685,-0.08135083,0.0,0.0,0.0,0.0,0.0,0.0,0.0049054297,0.003145386,-0.67696357
77273642,0.09149099,-0.18220717,-0.5295687,0.06775801,0.0,0.037624385,-0.033847,-0.07569352,0.0,0.0,0.0,0.0,0.0,0.0,0.0028071466,0.003966593,-0.6740483
77374022,0.09149099,-0.18220717,-0.5295687,0.06775801,0.0,0.03618693,-0.030881708,-0.068840116,0.0,0.0,0.0,0.0,0.0,0.0,0.0015293027,0.006054614,-0.6716536
77473718,0.09149099,-0.18220717,-0.5295687,0.06775801,0.0,0.034685377,-0.02874602,-0.0626879,0.0,0.0,0.0,0.0,0.0,0.0,0.00025396177,0.0072784517,-0.6706136
77573842,0.09149099,-0.18220717,-0.5295687,0.06775801,0.0,0.032592833,-0.02601079,-0.05672151,0.0,0.0,0.0,0.0,0.0,0.0,0.0040023667,0.00571119,-0.6684004
77673860,0.09149099,-0.18220717,-0.5295687,0.06775801,0.0,0.030428777,-0.0234495,-0.05229923,0.0,0.0,0.0,0.0,0.0,0.0,0.0012398384,0.007367795,-0.66856086
77773871,0.09149099,-0.18220717,-0.5295687,0.06775801,0.0,0.027577547,-0.019821135,-0.049303472,0.0,0.0,0.0,0.0,0.0,0.0,0.0027074984,0.0063794916,-0.6709739
77874004,0.09149099,-0.18220717,-0.5295687,0.06775801,0.0,0.024640149,-0.016145488,-0.04828304,0.0,0.0,0.0,0.0,0.0,0.0,-0.001751972,0.008734187,-0.6726229
77974068,0.09149099,-0.18220717,-0.5295687,0.06775801,0.0,0.02120396,-0.011531123,-0.049091727,0.0,0.0,0.0,0.0,0.0,0.0,0.0036267731,0.0076846885,-0.6747415
78074417,0.09149099,-0.18220717,-0.5295687,0.06775801,0.0,0.018263461,-0.007213497,-0.05070421,0.0,0.0,0.0,0.0,0.0,0.0,-0.002059897,0.0073711816,-0.6771854
78174480,0.09149099,-0.18220717,-0.5295687,0.06775801,0.0,0.015457665,-0.0029725835,-0.05331245,0.0,0.0,0.0,0.0,0.0,0.0,-0.00025064114,0.011574213,-0.6778153
78294599,0.09149099,-0.18220717,-0.5295687,0.06775801,0.0,0.012373956,0.001273299,-0.05610144,0.0,0.0,0.0,0.0,0.0,0.0,0.0036973336,0.007943695,-0.6776731
78394604,0.09149099,-0.18220717,-0.5295687,0.06775801,0.0,0.010301007,0.0042323633,-0.057792276,0.0,0.0,0.0,0.0,0.0,0.0,-0.00380108,0.007764997,-0.68092334
78494694,0.09149099,-0.18220717,-0.5295687,0.06775801,0.0,0.008451073,0.0069055734,-0.058928788,0.0,0.0,0.0,0.0,0.0,0.0,0.0011287134,0.010568071,-0.6789701
78594754,0.09149099,-0.18220717,-0.5295687,0.06775801,0.0,0.0073491265,0.009159168,-0.06010562,0.0,0.0,0.0,0.0,0.0,0.0,-0.0035349661,0.00433264,-0.6814617
78694842,0.09149099,-0.18220717,-0.5295687,0.06775801,0.0,0.006530352,0.011050636,-0.061703265,0.0,0.0,0.0,0.0,0.0,0.0,-0.0040475368,0.009554549,-0.6841626
78794998,0.09149099,-0.18220717,-0.5295687,0.06775801,0.0,0.0058211596,0.011942046,-0.06343567,0.0,0.0,0.0,0.0,0.0,0.0,-0.0007089207,0.0055729197,-0.68391174
78895732,0.09149099,-0.18220717,-0.5295687,0.06775801,0.0,0.004994287,0.012448382,-0.065059096,0.0,0.0,0.0,0.0,0.0,0.0,-0.0037098024,0.006166623,-0.6841373
78995538,0.09149099,-0.18220717,-0.5295687,0.06775801,0.0,0.0038418248,0.01250662,-0.06654224,0.0,0.0,0.0,0.0,0.0,0.0,0.00065457623,0.005143976,-0.68423265
79095827,0.09149099,-0.18220717,-0.5295687,0.06775801,0.0,0.0021189067,0.012368555,-0.06808311,0.0,0.0,0.0,0.0,0.0,0.0,-0.0037574081,0.00595636,-0.68411577
79195777,0.09149099,-0.18220717,-0.5295687,0.06775801,0.0,0.00034201145,0.012051798,-0.0692049,0.0,0.0,0.0,0.0,0.0,0.0,0.003756249,0.005022209,-0.68446565
79295809,0.09149099,-0.18220717,-0.5295687,0.06775801,0.0,-0.0013376385,0.011639346,-0.07017526,0.0,0.0,0.0,0.0,0.0,0.0,0.0014361097,0.007601888,-0.684911
79395562,0.09149099,-0.18220717,-0.5295687,0.06775801,0.0,-0.0026260067,0.011077434,-0.07055533,0.0,0.0,0.0,0.0,0.0,0.0,-0.001181518,0.0072304145,-0.68397677
79515622,0.09149099,-0.18220717,-0.5295687,0.06775801,0.0,-0.0037325467,0.010034186,-0.06996822,0.0,0.0,0.0,0.0,0.0,0.0,-0.0021202462,0.005786752,-0.6814847
79615777,0.09149099,-0.18220717,-0.5295687,0.06775801,0.0,-0.004244389,0.009684346,-0.068160266,0.0,0.0,0.0,0.0,0.0,0.0,0.00014019632,0.0070584225,-0.67988944
79716000,nan,nan,-0.5295687,0.06775801,0.0,0.24346088,0.016521716,-0.06569746,0.0,0.0,0.0,0.0,0.0,0.0,0.019696174,0.005908479,-0.6789355
79816103,nan,nan,-0.5295687,0.06775801,0.0,0.2889135,0.019606218,-0.06278399,0.0,0.0,0.0,0.0,0.0,0.0,0.020821042,0.008848859,-0.6787801
79916135,nan,nan,-0.5295687,0.06775801,0.0,0.2269896,0.015403945,-0.05999711,0.0,0.0,0.0,0.0,0.0,0.0,0.015465466,0.005462687,-0.6776719
80016311,0.10473447,-0.19432022,-0.5295687,0.06775801,0.0,0.0,0.0,-0.05691895,0.0,0.0,0.0,0.0,0.0,0.0,-0.008351668,0.0058483696,-0.6764383
80116234,0.10473447,-0.19432022,-0.5295687,0.06775801,0.0,-0.004781528,0.0019175857,-0.053566426,0.0,0.0,0.0,0.0,0.0,0.0,-0.0014053973,0.010712555,-0.6728565
80216352,0.10473447,-0.19432022,-0.5295687,0.06775801,0.0,-0.009650845,0.0051929257,-0.050267667,0.0,0.0,0.0,0.0,0.0,0.0,-4.997023e-05,0.00883408,-0.67429996
80316582,0.10473447,-0.19432022,-0.5295687,0.06775801,0.0,-0.014057378,0.008954811,-0.04910618,0.0,0.0,0.0,0.0,0.0,0.0,-0.004350175,0.013345052,-0.67961216
80416740,0.10473447,-0.19432022,-0.5295687,0.06775801,0.0,-0.01858738,0.0142121045,-0.05033967,0.0,0.0,0.0,0.0,0.0,0.0,0.0016316787,0.012456518,-0.6828439
80516830,0.10473447,-0.19432022,-0.5295687,0.06775801,0.0,-0.02151441,0.019603655,-0.053317368,0.0,0.0,0.0,0.0,0.0,0.0,-0.0031918783,0.011285454,-0.6852333
80616930,0.10473447,-0.19432022,-0.5295687,0.06775801,0.0,-0.022411015,0.025495665,-0.057530165,0.0,0.0,0.0,0.0,0.0,0.0,0.00013544364,0.013801366,-0.6871407
80716897,0.10473447,-0.19432022,-0.5295687,0.06775801,0.0,-0.0202594,0.031747494,-0.06253335,0.0,0.0,0.0,0.0,0.0,0.0,0.007950177,0.013755085,-0.6873466
80816964,nan,nan,-0.5295687,0.06775801,0.0,0.2339888,0.015878925,-0.06642702,0.0,0.0,0.0,0.0,0.0,0.0,0.0219055,0.012456097,-0.6885085
80937105,nan,nan,-0.5295687,0.06775801,0.0,0.43071267,0.02922898,-0.069325775,0.0,0.0,0.0,0.0,0.0,0.0,0.038132694,0.014005087,-0.68604356
81037160,nan,nan,-0.5295687,0.06775801,0.0,0.54914224,0.037265833,-0.06935087,0.0,0.0,0.0,0.0,0.0,0.0,0.0493059,0.014219398,-0.6813158
81137381,nan,nan,-0.5295687,0.06775801,0.0,0.5435272,0.036884785,-0.066551805,0.0,0.0,0.0,0.0,0.0,0.0,0.04255961,0.010455415,-0.68020034
81237754,nan,nan,-0.5295687,0.06775801,0.0,0.27898365,0.018932361,-0.061283976,0.0,0.0,0.0,0.0,0.0,0.0,0.013220433,0.0077277413,-0.6758087
81337792,0.120917186,-0.2521286,-0.5295687,0.06775801,0.0,-0.0043468014,0.0003843948,-0.054842174,0.0,0.0,0.0,0.0,0.0,0.0,-0.0037336787,0.007945963,-0.6705816
81437922,0.120917186,-0.2521286,-0.5295687,0.06775801,0.0,-0.017295232,0.00082864164,-0.04719028,0.0,0.0,0.0,0.0,0.0,0.0,-0.0058313482,0.009478419,-0.67106116
81537897,0.120917186,-0.2521286,-0.5295687,0.06775801,0.0,-0.03036896,0.001196219,-0.041829765,0.0,0.0,0.0,0.0,0.0,0.0,-0.007988516,0.008066816,-0.67450637
81637800,0.120917186,-0.2521286,-0.5295687,0.06775801,0.0,-0.045294024,0.0009560183,-0.040134996,0.0,0.0,0.0,0.0,0.0,0.0,-0.006263966,0.0065955617,-0.6795428
81737998,0.120917186,-0.2521286,-0.5295687,0.06775801,0.0,-0.05912738,0.0013134598,-0.04250157,0.0,0.0,0.0,0.0,0.0,0.0,-0.0038871616,0.012209005,-0.683098
81837968,0.120917186,-0.2521286,-0.5295687,0.06775801,0.0,-0.06859845,0.0022541045,-0.047062516,0.0,0.0,0.0,0.0,0.0,0.0,-0.0051565766,0.007825738,-0.6858051
81938022,0.120917186,-0.2521286,-0.5295687,0.06775801,0.0,-0.07286618,0.0045885025,-0.053695887,0.0,0.0,0.0,0.0,0.0,0.0,-0.0029536914,0.014339979,-0.6896883
82038350,nan,nan,-0.5295687,0.06775801,0.0,-0.008302255,0.12234043,-0.06002125,0.0,0.0,0.0,0.0,0.0,0.0,0.0075988453,0.019056665,-0.6902714
82158506,nan,nan,-0.5295687,0.06775801,0.0,-0.03395902,0.5004136,-0.06602955,0.0,0.0,0.0,0.0,0.0,0.0,0.0061290637,0.050112985,-0.69177246
82258483,nan,nan,-0.5295687,0.06775801,0.0,-0.045816552,0.67514396,-0.06839985,0.0,0.0,0.0,0.0,0.0,0.0,0.008200546,0.06561458,-0.6863241
82358604,nan,nan,-0.5295687,0.06775801,0.0,-0.05371656,0.79155695,-0.067085594,0.0,0.0,0.0,0.0,0.0,0.0,0.009184832,0.068381816,-0.6817007
82458606,nan,nan,-0.5295687,0.06775801,0.0,-0.05427613,0.7998027,-0.06114322,0.0,0.0,0.0,0.0,0.0,0.0,0.0072010225,0.06467023,-0.67558384
82558779,nan,nan,-0.5295687,0.06775801,0.0,-0.036668338,0.5403376,-0.052339554,0.0,0.0,0.0,0.0,0.0,0.0,0.011115953,0.03480164,-0.66871953
82658740,0.10477738,-0.21072936,-0.5295687,0.06775801,0.0,0.0057253367,-0.010475502,-0.040938497,0.0,0.0,0.0,0.0,0.0,0.0,0.013028,-0.008456448,-0.6667377
82759010,0.10477738,-0.21072936,-0.5295687,0.06775801,0.0,0.017618982,-0.036704395,-0.031054169,0.0,0.0,0.0,0.0,0.0,0.0,0.01183415,-0.02094001,-0.66390854
82859128,0.10477738,-0.21072936,-0.5295687,0.06775801,0.0,0.028794603,-0.06894897,-0.021639943,0.0,0.0,0.0,0.0,0.0,0.0,0.010883372,-0.016563896,-0.67246443
82959287,0.10477738,-0.21072936,-0.5295687,0.06775801,0.0,0.03735158,-0.09806023,-0.016914606,0.0,0.0,0.0,0.0,0.0,0.0,0.024737744,-0.01881259,-0.6641815
83059337,0.10477738,-0.21072936,-0.5295687,0.06775801,0.0,0.045170188,-0.12693737,-0.01713103,0.0,0.0,0.0,0.0,0.0,0.0,0.021370139,-0.015458963,-0.67806506
83159401,0.10477738,-0.21072936,-0.5295687,0.06775801,0.0,0.052451104,-0.14771056,-0.022607028,0.0,0.0,0.0,0.0,0.0,0.0,0.014698496,-0.013625065,-0.68597656
83259532,0.10477738,-0.21072936,-0.5295687,0.06775801,0.0,0.059474558,-0.16128209,-0.031479448,0.0,0.0,0.0,0.0,0.0,0.0,0.014411289,-0.007335175,-0.69449234
83359519,0.10477738,-0.21072936,-0.5295687,0.06775801,0.0,0.06473812,-0.16379587,-0.0433383,0.0,0.0,0.0,0.0,0.0,0.0,0.021633966,-0.004657224,-0.6925222
83459628,0.10477738,-0.21072936,-0.5295687,0.06775801,0.0,0.069260806,-0.15549655,-0.056696624,0.0,0.0,0.0,0.0,0.0,0.0,0.015167991,0.0029888698,-0.69959605
83580595,0.10477738,-0.21072936,-0.5295687,0.06775801,0.0,0.07195741,-0.13476469,-0.0712066,0.0,0.0,0.0,0.0,0.0,0.0,0.017725375,0.013344122,-0.7024301
83680155,0.10477738,-0.21072936,-0.5295687,0.06775801,0.0,0.07175998,-0.112118445,-0.07910946,0.0,0.0,0.0,0.0,0.0,0.0,0.006073977,0.014473641,-0.70392406
83780094,0.10477738,-0.21072936,-0.5295687,0.06775801,0.0,0.067927495,-0.08479577,-0.082433045,0.0,0.0,0.0,0.0,0.0,0.0,0.008194822,0.020334002,-0.6949194
83881303,0.10477738,-0.21072936,-0.5295687,0.06775801,0.0,0.060898606,-0.057298597,-0.08108777,0.0,0.0,0.0,0.0,0.0,0.0,0.010347107,0.019675862,-0.68325186
83980284,0.10477738,-0.21072936,-0.5295687,0.06775801,0.0,0.05271887,-0.035436008,-0.07529682,0.0,0.0,0.0,0.0,0.0,0.0,0.00825131,0.019873098,-0.6795485
84080297,0.10477738,-0.21072936,-0.5295687,0.06775801,0.0,0.04308742,-0.016311567,-0.066479474,0.0,0.0,0.0,0.0,0.0,0.0,-0.00017288374,0.020137906,-0.68796843
84180359,0.10477738,-0.21072936,-0.5295687,0.06775801,0.0,0.03316603,-0.0037356114,-0.059364766,0.0,0.0,0.0,0.0,0.0,0.0,0.004296143,0.016961226,-0.6726257
84280384,0.10477738,-0.21072936,-0.5295687,0.06775801,0.0,0.022327868,0.00353904,-0.052215308,0.0,0.0,0.0,0.0,0.0,0.0,-0.0006452468,0.015417724,-0.6779829
84380620,0.10477738,-0.21072936,-0.5295687,0.06775801,0.0,0.013551135,0.004915834,-0.04613328,0.0,0.0,0.0,0.0,0.0,0.0,-0.0005963142,0.016014358,-0.67666805
84481161,0.10477738,-0.21072936,-0.5295687,0.06775801,0.0,0.004930606,0.0022002123,-0.043167114,0.0,0.0,0.0,0.0,0.0,0.0,0.00033232663,0.012694465,-0.6757991
84580917,0.10477738,-0.21072936,-0.5295687,0.06775801,0.0,-0.000997977,-0.0029769577,-0.041968524,0.0,0.0,0.0,0.0,0.0,0.0,-0.0019346424,0.013194608,-0.68099916
84681187,0.10477738,-0.21072936,-0.5295687,0.06775801,0.0,-0.0053377496,-0.009821532,-0.042380124,0.0,0.0,0.0,0.0,0.0,0.0,0.00058268895,0.012384692,-0.6820192
84801004,0.10477738,-0.21072936,-0.5295687,0.06775801,0.0,-0.0075484444,-0.016946582,-0.045151502,0.0,0.0,0.0,0.0,0.0,0.0,0.004550713,0.0077383593,-0.68233526
84901011,0.10477738,-0.21072936,-0.5295687,0.06775801,0.0,-0.007679459,-0.020713337,-0.04816386,0.0,0.0,0.0,0.0,0.0,0.0,0.0033913043,0.010955049,-0.687006
85001097,0.10477738,-0.21072936,-0.5295687,0.06775801,0.0,-0.0067913835,-0.020950863,-0.05064583,0.0,0.0,0.0,0.0,0.0,0.0,0.0032310814,0.012786736,-0.6865366
85101243,0.10477738,-0.21072936,-0.5295687,0.06775801,0.0,-0.0055898414,-0.017617468,-0.053250164,0.0,0.0,0.0,0.0,0.0,0.0,0.003779533,0.012386376,-0.6857796
85201345,0.10477738,-0.21072936,-0.5295687,0.06775801,0.0,-0.004638091,-0.010935165,-0.055024177,0.0,0.0,0.0,0.0,0.0,0.0,0.0030951165,0.017408844,-0.6873833
85301521,0.10477738,-0.21072936,-0.5295687,0.06775801,0.0,-0.004467227,-0.0005196139,-0.056652874,0.0,0.0,0.0,0.0,0.0,0.0,0.0036461148,0.017571557,-0.68742156
85401629,0.10477738,-0.21072936,-0.5295687,0.06775801,0.0,-0.005408594,0.010525529,-0.05834928,0.0,0.0,0.0,0.0,0.0,0.0,0.0035463306,0.016920917,-0.68962157
85501686,0.10477738,-0.21072936,-0.5295687,0.06775801,0.0,-0.0075085456,0.023372589,-0.05945623,0.0,0.0,0.0,0.0,0.0,0.0,0.0010141134,0.01882208,-0.6896545
85601710,0.10477738,-0.21072936,-0.5295687,0.06775801,0.0,-0.010029485,0.0352386,-0.05972433,0.0,0.0,0.0,0.0,0.0,0.0,0.0027933537,0.017451018,-0.687169
85701804,0.10477738,-0.21072936,-0.5295687,0.06775801,0.0,-0.0131272515,0.046791695,-0.058991313,0.0,0.0,0.0,0.0,0.0,0.0,0.0017694291,0.020872762,-0.6869893
85801897,0.10477738,-0.21072936,-0.5295687,0.06775801,0.0,-0.016076718,0.05611771,-0.057418406,0.0,0.0,0.0,0.0,0.0,0.0,0.0025254337,0.023372877,-0.68596053
85901978,0.10477738,-0.21072936,-0.5295687,0.06775801,0.0,-0.01862534,0.0639227,-0.05466789,0.0,0.0,0.0,0.0,0.0,0.0,0.00094088493,0.02181706,-0.6835757
86022725,0.10477738,-0.21072936,-0.5295687,0.06775801,0.0,-0.020137424,0.069413915,-0.050275505,0.0,0.0,0.0,0.0,0.0,0.0,0.0029475025,0.017137432,-0.68220633
86122782,0.10477738,-0.21072936,-0.5295687,0.06775801,0.0,-0.020127062,0.07162668,-0.046597272,0.0,0.0,0.0,0.0,0.0,0.0,0.0055880724,0.015402733,-0.68070275
86222523,0.10477738,-0.21072936,-0.5295687,0.06775801,0.0,-0.019233473,0.07180726,-0.043409795,0.0,0.0,0.0,0.0,0.0,0.0,0.005100402,0.015994325,-0.6801124
86322857,0.10477738,-0.21072936,-0.5295687,0.06775801,0.0,-0.017813912,0.07068388,-0.040079087,0.0,0.0,0.0,0.0,0.0,0.0,0.0056825704,0.014270205,-0.67799044
86422571,0.10477738,-0.21072936,-0.5295687,0.06775801,0.0,-0.015698737,0.06857236,-0.036529034,0.0,0.0,0.0,0.0,0.0,0.0,0.005745818,0.015901085,-0.6753391
86522870,0.10477738,-0.21072936,-0.5295687,0.06775801,0.0,-0.012496363,0.065914266,-0.032062054,0.0,0.0,0.0,0.0,0.0,0.0,0.009380279,0.013065004,-0.6720028
86622737,0.10477738,-0.21072936,-0.5295687,0.06775801,0.0,-0.008750305,0.06315063,-0.027659774,0.0,0.0,0.0,0.0,0.0,0.0,0.0073889922,0.015271338,-0.6720911
86722811,0.10477738,-0.21072936,-0.5295687,0.06775801,0.0,-0.0043624085,0.060378667,-0.023151517,0.0,0.0,0.0,0.0,0.0,0.0,0.011335695,0.010928531,-0.67300653
86823140,nan,nan,-0.5295687,0.06775801,0.0,-0.0013128207,0.019345475,-0.019697964,0.0,0.0,0.0,0.0,0.0,0.0,0.010663427,0.009685887,-0.673462
86923283,nan,nan,-0.5295687,0.06775801,0.0,-0.018860938,0.2779312,-0.017649412,0.0,0.0,0.0,0.0,0.0,0.0,0.005679748,0.041222513,-0.67639387
87023310,nan,nan,-0.5295687,0.06775801,0.0,-0.038346615,0.56506836,-0.017512798,0.0,0.0,0.0,0.0,0.0,0.0,0.006494152,0.059246726,-0.6776527
87123400,nan,nan,-0.5295687,0.06775801,0.0,-0.06119646,0.9017794,-0.019580781,0.0,0.0,0.0,0.0,0.0,0.0,0.0014816257,0.08387826,-0.68327856
87243516,nan,nan,-0.5295687,0.06775801,0.0,-0.0664776,0.9796012,-0.024936259,0.0,0.0,0.0,0.0,0.0,0.0,0.0028800392,0.09053547,-0.688136
87343512,nan,nan,-0.5295687,0.06775801,0.0,-0.05930941,0.8739722,-0.030213684,0.0,0.0,0.0,0.0,0.0,0.0,0.004901172,0.073221534,-0.6877956
87443518,0.08556678,-0.22486894,-0.5295687,0.06775801,0.0,0.0,0.0,-0.035608202,0.0,0.0,0.0,0.0,0.0,0.0,0.008792888,-0.013406545,-0.68969125
87543816,0.08556678,-0.22486894,-0.5295687,0.06775801,0.0,0.0028812694,-0.024694147,-0.040076613,0.0,0.0,0.0,0.0,0.0,0.0,0.010341269,-0.01423249,-0.69184077
87643791,0.08556678,-0.22486894,-0.5295687,0.06775801,0.0,0.0060092867,-0.05454426,-0.044467717,0.0,0.0,0.0,0.0,0.0,0.0,0.009293642,-0.013388971,-0.69277215
87743982,0.08556678,-0.22486894,-0.5295687,0.06775801,0.0,0.008988849,-0.086205244,-0.04865673,0.0,0.0,0.0,0.0,0.0,0.0,0.011403243,-0.022280138,-0.69325083
87844160,0.08556678,-0.22486894,-0.5295687,0.06775801,0.0,0.012669203,-0.123501666,-0.052209586,0.0,0.0,0.0,0.0,0.0,0.0,0.010021139,-0.020735925,-0.69422174
87944720,0.08556678,-0.22486894,-0.5295687,0.06775801,0.0,0.016875291,-0.15581,-0.05383745,0.0,0.0,0.0,0.0,0.0,0.0,0.012646518,-0.018707387,-0.68816394
88044367,0.08556678,-0.22486894,-0.5295687,0.06775801,0.0,0.022291308,-0.18481426,-0.05398205,0.0,0.0,0.0,0.0,0.0,0.0,0.013433978,-0.017109714,-0.6883763
88144383,0.08556678,-0.22486894,-0.5295687,0.06775801,0.0,0.027626505,-0.20217454,-0.053105175,0.0,0.0,0.0,0.0,0.0,0.0,0.011630895,-0.010411749,-0.690061
88244384,0.08556678,-0.22486894,-0.5295687,0.06775801,0.0,0.033022393,-0.20896965,-0.05220005,0.0,0.0,0.0,0.0,0.0,0.0,0.01305104,-0.004463381,-0.6890371
88364842,0.08556678,-0.22486894,-0.5295687,0.06775801,0.0,0.038273215,-0.20184678,-0.051353097,0.0,0.0,0.0,0.0,0.0,0.0,0.012496948,0.0006060088,-0.6862515
88464779,0.08556678,-0.22486894,-0.5295687,0.06775801,0.0,0.04146777,-0.18747441,-0.050729424,0.0,0.0,0.0,0.0,0.0,0.0,0.012345392,0.006451832,-0.6867812
88564924,0.08556678,-0.22486894,-0.5295687,0.06775801,0.0,0.04385155,-0.16689411,-0.04945016,0.0,0.0,0.0,0.0,0.0,0.0,0.011363944,0.010232738,-0.68636024
88665588,0.08556678,-0.22486894,-0.5295687,0.06775801,0.0,0.04432765,-0.14414577,-0.047927618,0.0,0.0,0.0,0.0,0.0,0.0,0.0086235,0.014162935,-0.68467325
88764936,0.08556678,-0.22486894,-0.5295687,0.06775801,0.0,0.04325176,-0.12353026,-0.04603806,0.0,0.0,0.0,0.0,0.0,0.0,0.010507314,0.013858033,-0.683253
88865594,0.08556678,-0.22486894,-0.5295687,0.06775801,0.0,0.040397808,-0.10405989,-0.042913914,0.0,0.0,0.0,0.0,0.0,0.0,0.0072792205,0.011635849,-0.6822687
88965168,0.08556678,-0.22486894,-0.5295687,0.06775801,0.0,0.036521267,-0.09060101,-0.04052165,0.0,0.0,0.0,0.0,0.0,0.0,0.0077777873,0.012478769,-0.68156946
89065223,0.08556678,-0.22486894,-0.5295687,0.06775801,0.0,0.031868298,-0.081296146,-0.038278252,0.0,0.0,0.0,0.0,0.0,0.0,0.008045277,0.00956958,-0.68272257
89165378,0.08556678,-0.22486894,-0.5295687,0.06775801,0.0,0.028030017,-0.0776554,-0.0368295,0.0,0.0,0.0,0.0,0.0,0.0,0.007845297,0.011368598,-0.68255365
89265621,0.08556678,-0.22486894,-0.5295687,0.06775801,0.0,0.02442183,-0.078934334,-0.0366897,0.0,0.0,0.0,0.0,0.0,0.0,0.0075374763,0.003660434,-0.68523824
89365570,0.08556678,-0.22486894,-0.5295687,0.06775801,0.0,0.022043774,-0.08452704,-0.037543535,0.0,0.0,0.0,0.0,0.0,0.0,0.008690222,0.0016579265,-0.685057
89465709,0.08556678,-0.22486894,-0.5295687,0.06775801,0.0,0.021370053,-0.09421245,-0.039224237,0.0,0.0,0.0,0.0,0.0,0.0,0.011292299,0.0009778272,-0.68723756
89565758,0.08556678,-0.22486894,-0.5295687,0.06775801,0.0,0.022998972,-0.105089925,-0.040827245,0.0,0.0,0.0,0.0,0.0,0.0,0.011284316,0.0031144014,-0.6884202
89665853,0.08556678,-0.22486894,-0.5295687,0.06775801,0.0,0.026674401,-0.11627857,-0.042709082,0.0,0.0,0.0,0.0,0.0,0.0,0.009646153,0.00326081,-0.68937606
89765917,0.08556678,-0.22486894,-0.5295687,0.06775801,0.0,0.03158467,-0.12449854,-0.044097245,0.0,0.0,0.0,0.0,0.0,0.0,0.012337666,-0.0018265955,-0.6916276
89886162,0.08556678,-0.22486894,-0.5295687,0.06775801,0.0,0.039184406,-0.13110004,-0.045944393,0.0,0.0,0.0,0.0,0.0,0.0,0.015012334,0.0001874324,-0.6923109
89986215,0.08556678,-0.22486894,-0.5295687,0.06775801,0.0,0.04557668,-0.13310893,-0.048146904,0.0,0.0,0.0,0.0,0.0,0.0,0.017538186,0.0020966837,-0.69257665
90086396,0.08556678,-0.22486894,-0.5295687,0.06775801,0.0,0.050443165,-0.13145846,-0.050657302,0.0,0.0,0.0,0.0,0.0,0.0,0.012977674,0.0051336037,-0.6956717
90186813,0.08556678,-0.22486894,-0.5295687,0.06775801,0.0,0.054160323,-0.12643671,-0.053559482,0.0,0.0,0.0,0.0,0.0,0.0,0.013113302,0.004511321,-0.6958685
90286748,nan,nan,-0.5295687,0.06775801,0.0,0.14017123,0.009512286,-0.056172907,0.0,0.0,0.0,0.0,0.0,0.0,0.02059214,0.0169801,-0.6957821
90387177,nan,nan,-0.5295687,0.06775801,0.0,0.5563724,0.037756488,-0.05866584,0.0,0.0,0.0,0.0,0.0,0.0,0.05226707,0.019855542,-0.6962837
90487188,nan,nan,-0.5295687,0.06775801,0.0,0.63292277,0.04295134,-0.0600439,0.0,0.0,0.0,0.0,0.0,0.0,0.056209795,0.014254029,-0.69575197
90586997,nan,nan,-0.5295687,0.06775801,0.0,0.75976914,0.051559377,-0.060525924,0.0,0.0,0.0,0.0,0.0,0.0,0.059947472,0.020103797,-0.69476277
90687192,nan,nan,-0.5295687,0.06775801,0.0,0.6428004,0.043621656,-0.059658974,0.0,0.0,0.0,0.0,0.0,0.0,0.049404997,0.011880531,-0.69295275
90787172,nan,nan,-0.5295687,0.06775801,0.0,0.15770054,0.0107018575,-0.05765161,0.0,0.0,0.0,0.0,0.0,0.0,0.003365322,0.008596161,-0.69029164
90887769,0.113697365,-0.11743684,-0.5295687,0.06775801,0.0,-0.0058984873,-0.00079742743,-0.054290384,0.0,0.0,0.0,0.0,0.0,0.0,-0.009515362,0.01111823,-0.6868567
90987273,0.113697365,-0.11743684,-0.5295687,0.06775801,0.0,-0.028316354,-0.004416782,-0.05137998,0.0,0.0,0.0,0.0,0.0,0.0,-0.010754182,0.007436253,-0.69188243
91087767,0.113697365,-0.11743684,-0.5295687,0.06775801,0.0,-0.05045354,-0.00839941,-0.051064342,0.0,0.0,0.0,0.0,0.0,0.0,-0.0061178952,0.011722495,-0.6960139
91188010,0.113697365,-0.11743684,-0.5295687,0.06775801,0.0,-0.06967971,-0.012124221,-0.054351628,0.0,0.0,0.0,0.0,0.0,0.0,-0.0028259233,0.0056794775,-0.702364
91307400,0.113697365,-0.11743684,-0.5295687,0.06775801,0.0,-0.08837473,-0.015307681,-0.062601656,0.0,0.0,0.0,0.0,0.0,0.0,-0.004480616,0.010746558,-0.7076359
91407535,0.113697365,-0.11743684,-0.5295687,0.06775801,0.0,-0.09745192,-0.015244729,-0.07060695,0.0,0.0,0.0,0.0,0.0,0.0,0.0010218238,0.012878131,-0.7083973
91507596,0.113697365,-0.11743684,-0.5295687,0.06775801,0.0,-0.09889207,-0.012668926,-0.077691644,0.0,0.0,0.0,0.0,0.0,0.0,0.0024298583,0.013139078,-0.70456845
91608152,0.113697365,-0.11743684,-0.5295687,0.06775801,0.0,-0.09183534,-0.007878784,-0.080583125,0.0,0.0,0.0,0.0,0.0,0.0,0.009728837,0.014065063,-0.6992243
91707965,0.113697365,-0.11743684,-0.5295687,0.06775801,0.0,-0.07671007,-0.00073992537,-0.07823974,0.0,0.0,0.0,0.0,0.0,0.0,0.01384617,0.014537451,-0.69091773
91808359,0.113697365,-0.11743684,-0.5295687,0.06775801,0.0,-0.058648594,0.006951425,-0.07134658,0.0,0.0,0.0,0.0,0.0,0.0,0.016276043,0.014665389,-0.68430334
91908127,0.113697365,-0.11743684,-0.5295687,0.06775801,0.0,-0.037902385,0.0152621055,-0.059756875,0.0,0.0,0.0,0.0,0.0,0.0,0.020164931,0.013982425,-0.6788845
92008286,0.113697365,-0.11743684,-0.5295687,0.06775801,0.0,-0.020198211,0.02230519,-0.047466397,0.0,0.0,0.0,0.0,0.0,0.0,0.018650182,0.01626982,-0.67482305
92108199,0.113697365,-0.11743684,-0.5295687,0.06775801,0.0,-0.0041239844,0.029117504,-0.03487104,0.0,0.0,0.0,0.0,0.0,0.0,0.019998662,0.015498746,-0.6737564
92208373,0.113697365,-0.11743684,-0.5295687,0.06775801,0.0,0.0062245233,0.03455107,-0.02586943,0.0,0.0,0.0,0.0,0.0,0.0,0.016757715,0.020238858,-0.6769043
92308442,0.113697365,-0.11743684,-0.5295687,0.06775801,0.0,0.011983488,0.03995444,-0.019882858,0.0,0.0,0.0,0.0,0.0,0.0,0.012458352,0.019806307,-0.6792451
92408585,0.113697365,-0.11743684,-0.5295687,0.06775801,0.0,0.012211507,0.04405565,-0.018271446,0.0,0.0,0.0,0.0,0.0,0.0,0.011021694,0.017426904,-0.68371904
92529593,0.113697365,-0.11743684,-0.5295687,0.06775801,0.0,0.0063062254,0.048106726,-0.020865023,0.0,0.0,0.0,0.0,0.0,0.0,0.007703876,0.02093668,-0.6907512
92629804,0.113697365,-0.11743684,-0.5295687,0.06775801,0.0,-0.0027605533,0.0516094,-0.025862634,0.0,0.0,0.0,0.0,0.0,0.0,0.0076486897,0.01936026,-0.69152296
92729266,0.113697365,-0.11743684,-0.5295687,0.06775801,0.0,-0.013060378,0.054950196,-0.0320206,0.0,0.0,0.0,0.0,0.0,0.0,0.0045559094,0.023228552,-0.6939173
92829722,0.113697365,-0.11743684,-0.5295687,0.06775801,0.0,-0.024691358,0.05934241,-0.0388754,0.0,0.0,0.0,0.0,0.0,0.0,0.00081207976,0.022781897,-0.6993468
92929408,0.113697365,-0.11743684,-0.5295687,0.06775801,0.0,-0.03497888,0.064412124,-0.044715077,0.0,0.0,0.0,0.0,0.0,0.0,-0.00023080874,0.025653476,-0.6997514
93029878,0.113697365,-0.11743684,-0.5295687,0.06775801,0.0,-0.044905834,0.070942774,-0.049343467,0.0,0.0,0.0,0.0,0.0,0.0,-0.00080734305,0.025615457,-0.6973936
93129387,0.113697365,-0.11743684,-0.5295687,0.06775801,0.0,-0.051949598,0.07829388,-0.05068469,0.0,0.0,0.0,0.0,0.0,0.0,0.0005761953,0.028537787,-0.6956683
93229636,0.113697365,-0.11743684,-0.5295687,0.06775801,0.0,-0.05723001,0.08693512,-0.049458027,0.0,0.0,0.0,0.0,0.0,0.0,-0.00094468705,0.02873073,-0.69180083
93329673,0.113697365,-0.11743684,-0.5295687,0.06775801,0.0,-0.06012407,0.09566627,-0.046846867,0.0,0.0,0.0,0.0,0.0,0.0,0.00059316773,0.0306448,-0.69350344
93429706,0.113697365,-0.11743684,-0.5295687,0.06775801,0.0,-0.061119203,0.103525326,-0.043609023,0.0,0.0,0.0,0.0,0.0,0.0,0.0022640992,0.030765768,-0.6892971
93529819,0.113697365,-0.11743684,-0.5295687,0.06775801,0.0,-0.060737878,0.11163363,-0.03942412,0.0,0.0,0.0,0.0,0.0,0.0,-0.0011018049,0.034225322,-0.68932116
93629980,0.113697365,-0.11743684,-0.5295687,0.06775801,0.0,-0.059679467,0.11853229,-0.035709113,0.0,0.0,0.0,0.0,0.0,0.0,0.0036984468,0.03153166,-0.68829924
93749821,0.113697365,-0.11743684,-0.5295687,0.06775801,0.0,-0.058005,0.12518619,-0.032260954,0.0,0.0,0.0,0.0,0.0,0.0,0.0031226524,0.029080577,-0.6883083
93849981,0.113697365,-0.11743684,-0.5295687,0.06775801,0.0,-0.056597825,0.12883069,-0.030457437,0.0,0.0,0.0,0.0,0.0,0.0,0.0047322656,0.02935082,-0.686021
93950068,nan,nan,-0.5295687,0.06775801,0.0,-0.006523804,0.09613353,-0.029742986,0.0,0.0,0.0,0.0,0.0,0.0,0.0060028634,0.026717236,-0.6878787
94050492,nan,nan,-0.5295687,0.06775801,0.0,-0.039907195,0.5880648,-0.029176295,0.0,0.0,0.0,0.0,0.0,0.0,0.0053258846,0.06891498,-0.6866149
94150410,nan,nan,-0.5295687,0.06775801,0.0,-0.024634602,0.3630108,-0.028395116,0.0,0.0,0.0,0.0,0.0,0.0,0.006585721,0.040337883,-0.68642104
94250522,nan,nan,-0.5295687,0.06775801,0.0,-0.017898995,0.2637562,-0.02711749,0.0,0.0,0.0,0.0,0.0,0.0,0.0072444314,0.034458533,-0.68621653
94350572,nan,nan,-0.5295687,0.06775801,0.0,-0.0076262187,0.11237851,-0.025248528,0.0,0.0,0.0,0.0,0.0,0.0,0.009751339,0.016810188,-0.68408906
94450586,nan,nan,-0.5295687,0.06775801,0.0,-0.008071067,0.042730264,-0.023377955,0.0,0.0,0.0,0.0,0.0,0.0,0.011504718,0.0057081543,-0.68492174
94550618,0.1676653,-0.20961304,-0.5295687,0.06775801,0.0,0.0016862608,-0.011830383,-0.022084773,0.0,0.0,0.0,0.0,0.0,0.0,0.009899195,0.00347899,-0.6868039
94650735,0.1676653,-0.20961304,-0.5295687,0.06775801,0.0,0.0045774323,-0.027527321,-0.021829545,0.0,0.0,0.0,0.0,0.0,0.0,0.012638168,0.0026972117,-0.68865746
94750849,0.1676653,-0.20961304,-0.5295687,0.06775801,0.0,0.008024175,-0.04157282,-0.022562385,0.0,0.0,0.0,0.0,0.0,0.0,0.0131232785,0.0024398165,-0.69039536
94850983,0.1676653,-0.20961304,-0.5295687,0.06775801,0.0,0.012359708,-0.055030618,-0.02435708,0.0,0.0,0.0,0.0,0.0,0.0,0.011830944,0.006484772,-0.6912393
94951439,0.1676653,-0.20961304,-0.5295687,0.06775801,0.0,0.016480932,-0.06458277,-0.02651304,0.0,0.0,0.0,0.0,0.0,0.0,0.014002951,0.0041672084,-0.69244915
95051510,0.1676653,-0.20961304,-0.5295687,0.06775801,0.0,0.02093781,-0.070340164,-0.028838754,0.0,0.0,0.0,0.0,0.0,0.0,0.012045102,0.0075011738,-0.6934577
95171525,0.1676653,-0.20961304,-0.5295687,0.06775801,0.0,0.025330817,-0.07049442,-0.031508297,0.0,0.0,0.0,0.0,0.0,0.0,0.012311195,0.01120908,-0.6957475
95271629,nan,nan,-0.5295687,0.06775801,0.0,-0.00033602558,0.004951609,-0.034077734,0.0,0.0,0.0,0.0,0.0,0.0,0.010230973,0.016788978,-0.69612956
95371510,nan,nan,-0.5295687,0.06775801,0.0,-0.0038276457,0.056403454,-0.036121547,0.0,0.0,0.0,0.0,0.0,0.0,0.00722597,0.022427132,-0.6971142
95471597,nan,nan,-0.5295687,0.06775801,0.0,-0.004023989,0.059296735,-0.037829787,0.0,0.0,0.0,0.0,0.0,0.0,0.008634364,0.024616811,-0.6945951
95571809,nan,nan,-0.5295687,0.06775801,0.0,-0.0074041192,0.10910569,-0.038639516,0.0,0.0,0.0,0.0,0.0,0.0,0.007856975,0.024350848,-0.6955664
95671810,nan,nan,-0.5295687,0.06775801,0.0,-0.0073282905,0.10798829,-0.038458347,0.0,0.0,0.0,0.0,0.0,0.0,0.0060193986,0.027876828,-0.6941654
95771937,nan,nan,-0.5295687,0.06775801,0.0,-0.007339253,0.108149834,-0.03892538,0.0,0.0,0.0,0.0,0.0,0.0,0.007746949,0.02237059,-0.6955718
95872162,nan,nan,-0.5295687,0.06775801,0.0,-0.007339427,0.10815239,-0.04097593,0.0,0.0,0.0,0.0,0.0,0.0,0.007343244,0.017352372,-0.69882184
95972176,nan,nan,-0.5295687,0.06775801,0.0,-0.0033929218,0.04999745,-0.043772966,0.0,0.0,0.0,0.0,0.0,0.0,0.005325405,0.013488415,-0.70148957
96072273,0.15003887,-0.14703536,-0.5295687,0.06775801,0.0,-0.00082112476,-0.005058386,-0.047784448,0.0,0.0,0.0,0.0,0.0,0.0,0.0073037664,0.006305934,-0.70135206
96172433,0.15003887,-0.14703536,-0.5295687,0.06775801,0.0,-0.002141521,-0.018086376,-0.050899744,0.0,0.0,0.0,0.0,0.0,0.0,0.009308409,0.008052311,-0.70093423
96272442,0.15003887,-0.14703536,-0.5295687,0.06775801,0.0,-0.0024137713,-0.032967962,-0.053079367,0.0,0.0,0.0,0.0,0.0,0.0,0.008150052,0.007273457,-0.6991182
96372573,0.15003887,-0.14703536,-0.5295687,0.06775801,0.0,-0.0017296493,-0.04585447,-0.0534032,0.0,0.0,0.0,0.0,0.0,0.0,0.010404915,0.0030923383,-0.6950235
96472745,0.15003887,-0.14703536,-0.5295687,0.06775801,0.0,0.00020761341,-0.05739574,-0.051680565,0.0,0.0,0.0,0.0,0.0,0.0,0.009561818,0.007872304,-0.69451046
96592873,0.15003887,-0.14703536,-0.5295687,0.06775801,0.0,0.0037627346,-0.06596885,-0.046892196,0.0,0.0,0.0,0.0,0.0,0.0,0.010950172,0.0073501244,-0.6902341
96692973,0.15003887,-0.14703536,-0.5295687,0.06775801,0.0,0.007502494,-0.068786524,-0.041808546,0.0,0.0,0.0,0.0,0.0,0.0,0.012924244,0.008682502,-0.6883282
96793044,0.15003887,-0.14703536,-0.5295687,0.06775801,0.0,0.012247959,-0.067219116,-0.03579679,0.0,0.0,0.0,0.0,0.0,0.0,0.013686936,0.011562269,-0.68705183
96893068,0.15003887,-0.14703536,-0.5295687,0.06775801,0.0,0.01712734,-0.06229519,-0.03068924,0.0,0.0,0.0,0.0,0.0,0.0,0.014418403,0.013072402,-0.6859883
96993151,0.15003887,-0.14703536,-0.5295687,0.06775801,0.0,0.022544444,-0.054805897,-0.026404798,0.0,0.0,0.0,0.0,0.0,0.0,0.017674346,0.016065365,-0.6850139
97093367,0.15003887,-0.14703536,-0.5295687,0.06775801,0.0,0.02741519,-0.046568114,-0.02370292,0.0,0.0,0.0,0.0,0.0,0.0,0.017578622,0.015550214,-0.6872444
97193990,0.15003887,-0.14703536,-0.5295687,0.06775801,0.0,0.03251109,-0.03760211,-0.02208674,0.0,0.0,0.0,0.0,0.0,0.0,0.01754078,0.014565799,-0.6888932
97294040,0.15003887,-0.14703536,-0.5295687,0.06775801,0.0,0.0364953,-0.030157242,-0.022013307,0.0,0.0,0.0,0.0,0.0,0.0,0.014926337,0.01884682,-0.6904031
97394217,0.15003887,-0.14703536,-0.5295687,0.06775801,0.0,0.03964617,-0.023080712,-0.022559285,0.0,0.0,0.0,0.0,0.0,0.0,0.01505903,0.018999876,-0.68509686
97493834,nan,nan,-0.5295687,0.06775801,0.0,-0.0072657387,0.10706654,-0.018436491,0.0,0.0,0.0,0.0,0.0,0.0,0.010039926,0.027420908,-0.6834751
97594407,0.10292804,-0.13096324,-0.5295687,0.06775801,0.0,0.0,0.0,-0.01555562,0.0,0.0,0.0,0.0,0.0,0.0,0.009794723,0.016292196,-0.68330884
97693905,0.10292804,-0.13096324,-0.5295687,0.06775801,0.0,-0.0021929573,0.00010694936,-0.016073406,0.0,0.0,0.0,0.0,0.0,0.0,0.0020585917,0.015008915,-0.6950297
97813894,0.10292804,-0.13096324,-0.5295687,0.06775801,0.0,-0.011462784,-0.0020998737,-0.02114147,0.0,0.0,0.0,0.0,0.0,0.0,-0.0038951244,0.015046433,-0.6972359
97913981,0.10292804,-0.13096324,-0.5295687,0.06775801,0.0,-0.025578946,-0.0052216765,-0.027083695,0.0,0.0,0.0,0.0,0.0,0.0,-0.016035594,0.012905454,-0.70167494
98014736,0.10292804,-0.13096324,-0.5295687,0.06775801,0.0,-0.049122144,-0.00957046,-0.034161627,0.0,0.0,0.0,0.0,0.0,0.0,-0.025705338,0.012241687,-0.7000974
98114403,0.10292804,-0.13096324,-0.5295687,0.06775801,0.0,-0.07897429,-0.013949021,-0.03826356,0.0,0.0,0.0,0.0,0.0,0.0,-0.03503909,0.015278539,-0.697665
98214433,0.10292804,-0.13096324,-0.5295687,0.06775801,0.0,-0.11894136,-0.018289685,-0.03962055,0.0,0.0,0.0,0.0,0.0,0.0,-0.038342778,0.011956788,-0.69248354
98314541,0.10292804,-0.13096324,-0.5295687,0.06775801,0.0,-0.16074629,-0.021238564,-0.03793308,0.0,0.0,0.0,0.0,0.0,0.0,-0.04515031,0.01476144,-0.6911482
98414759,0.10292804,-0.13096324,-0.5295687,0.06775801,0.0,-0.2076982,-0.023292735,-0.03305602,0.0,0.0,0.0,0.0,0.0,0.0,-0.049100444,0.011727321,-0.68750125
98514701,nan,nan,-0.5295687,0.06775801,0.0,-0.012083067,0.17805375,-0.02641815,0.0,0.0,0.0,0.0,0.0,0.0,-0.030781966,0.033384442,-0.6818837
98614766,nan,nan,-0.5295687,0.06775801,0.0,-0.022329735,0.32904673,-0.018597662,0.0,0.0,0.0,0.0,0.0,0.0,-0.032286797,0.043067973,-0.6813866
98734813,nan,nan,-0.5295687,0.06775801,0.0,0.2608986,0.016310122,-0.0110654235,0.0,0.0,0.0,0.0,0.0,0.0,-0.0051185656,0.0152019765,-0.684633
98834979,0.46797773,-0.10530717,-0.5295687,0.06775801,0.0,-0.011144335,-0.00026810952,-0.0077724457,0.0,0.0,0.0,0.0,0.0,0.0,-0.027741106,0.014900913,-0.6849728
98935138,0.46797773,-0.10530717,-0.5295687,0.06775801,0.0,-0.036740664,0.0002393797,-0.006518364,0.0,0.0,0.0,0.0,0.0,0.0,-0.026238265,0.017417375,-0.6871725
99035245,0.46797773,-0.10530717,-0.5295687,0.06775801,0.0,-0.05593011,0.0015595566,-0.0076200366,0.0,0.0,0.0,0.0,0.0,0.0,-0.029064976,0.016440958,-0.69124174
99135310,0.46797773,-0.10530717,-0.5295687,0.06775801,0.0,-0.073407464,0.00272333,-0.011258841,0.0,0.0,0.0,0.0,0.0,0.0,-0.028483754,0.018564235,-0.6940359
99235350,0.46797773,-0.10530717,-0.5295687,0.06775801,0.0,-0.08791469,0.003917447,-0.015883505,0.0,0.0,0.0,0.0,0.0,0.0,-0.027099865,0.019579904,-0.6969472
99335418,0.46797773,-0.10530717,-0.5295687,0.06775801,0.0,-0.10363822,0.0061388365,-0.020738661,0.0,0.0,0.0,0.0,0.0,0.0,-0.028041335,0.02159477,-0.69402295
99435509,0.46797773,-0.10530717,-0.5295687,0.06775801,0.0,-0.11864652,0.0094254585,-0.023782432,0.0,0.0,0.0,0.0,0.0,0.0,-0.028521683,0.020650432,-0.6954696
99535641,0.46797773,-0.10530717,-0.5295687,0.06775801,0.0,-0.13491629,0.015726326,-0.024827182,0.0,0.0,0.0,0.0,0.0,0.0,-0.028161712,0.025300525,-0.69392866
99635778,0.46797773,-0.10530717,-0.5295687,0.06775801,0.0,-0.14979284,0.024353912,-0.024803936,0.0,0.0,0.0,0.0,0.0,0.0,-0.027858723,0.026711736,-0.69206184
99735943,0.46797773,-0.10530717,-0.5295687,0.06775801,0.0,-0.16385438,0.035462275,-0.0232386,0.0,0.0,0.0,0.0,0.0,0.0,-0.028406333,0.02692531,-0.6913695
99837131,0.46797773,-0.10530717,-0.5295687,0.06775801,0.0,-0.17515214,0.04724252,-0.021236897,0.0,0.0,0.0,0.0,0.0,0.0,-0.025854826,0.025663339,-0.6915931
99957120,0.46797773,-0.10530717,-0.5295687,0.06775801,0.0,-0.1839882,0.060762856,-0.019844532,0.0,0.0,0.0,0.0,0.0,0.0,-0.02255222,0.029877238,-0.69196117
100056161,0.46797773,-0.10530717,-0.5295687,0.06775801,0.0,-0.18777779,0.071288034,-0.019870996,0.0,0.0,0.0,0.0,0.0,0.0,-0.020831952,0.027887622,-0.6947263
100156296,0.46797773,-0.10530717,-0.5295687,0.06775801,0.0,-0.18849336,0.081799746,-0.020888269,0.0,0.0,0.0,0.0,0.0,0.0,-0.01944209,0.03176342,-0.69561416
100256446,0.46797773,-0.10530717,-0.5295687,0.06775801,0.0,-0.18616802,0.090348944,-0.022483945,0.0,0.0,0.0,0.0,0.0,0.0,-0.016286187,0.030905064,-0.6950165
100357643,0.46797773,-0.10530717,-0.5295687,0.06775801,0.0,-0.18067646,0.098322,-0.024373472,0.0,0.0,0.0,0.0,0.0,0.0,-0.012655852,0.03408504,-0.6952547
100456784,0.46797773,-0.10530717,-0.5295687,0.06775801,0.0,-0.17334813,0.10448215,-0.025767267,0.0,0.0,0.0,0.0,0.0,0.0,-0.01270967,0.030658782,-0.6960029
100557564,0.46797773,-0.10530717,-0.5295687,0.06775801,0.0,-0.1638482,0.109598435,-0.026934266,0.0,0.0,0.0,0.0,0.0,0.0,-0.012009665,0.031463332,-0.6959333
100656930,0.46797773,-0.10530717,-0.5295687,0.06775801,0.0,-0.15505964,0.11260627,-0.028025508,0.0,0.0,0.0,0.0,0.0,0.0,-0.01366505,0.028261818,-0.69759125
100758172,0.46797773,-0.10530717,-0.5295687,0.06775801,0.0,-0.1470333,0.11464466,-0.029169023,0.0,0.0,0.0,0.0,0.0,0.0,-0.0137792975,0.030220088,-0.6966745
100856989,0.46797773,-0.10530717,-0.5295687,0.06775801,0.0,-0.14212878,0.11567749,-0.029656976,0.0,0.0,0.0,0.0,0.0,0.0,-0.014947189,0.028408714,-0.69557095
100957041,0.46797773,-0.10530717,-0.5295687,0.06775801,0.0,-0.14002268,0.11595698,-0.029249787,0.0,0.0,0.0,0.0,0.0,0.0,-0.018137429,0.029649006,-0.6930293
101057166,0.46797773,-0.10530717,-0.5295687,0.06775801,0.0,-0.14062648,0.11536489,-0.027249575,0.0,0.0,0.0,0.0,0.0,0.0,-0.019206297,0.028273176,-0.6903398
101157238,0.46797773,-0.10530717,-0.5295687,0.06775801,0.0,-0.14329207,0.114216216,-0.023289204,0.0,0.0,0.0,0.0,0.0,0.0,-0.019684587,0.030216124,-0.68602663
101257490,0.46797773,-0.10530717,-0.5295687,0.06775801,0.0,-0.14660618,0.11232826,-0.018377721,0.0,0.0,0.0,0.0,0.0,0.0,-0.02037156,0.025943242,-0.6842494
101377667,0.46797773,-0.10530717,-0.5295687,0.06775801,0.0,-0.15067866,0.10838461,-0.011122644,0.0,0.0,0.0,0.0,0.0,0.0,-0.019395676,0.024142826,-0.680196
101477693,0.46797773,-0.10530717,-0.5295687,0.06775801,0.0,-0.15278022,0.103893384,-0.004332423,0.0,0.0,0.0,0.0,0.0,0.0,-0.016064592,0.024309758,-0.6789523
101577803,0.46797773,-0.10530717,-0.5295687,0.06775801,0.0,-0.15246205,0.09926809,0.0016722679,0.0,0.0,0.0,0.0,0.0,0.0,-0.016436476,0.02241786,-0.67660767
101677773,0.46797773,-0.10530717,-0.5295687,0.06775801,0.0,-0.14882664,0.09357809,0.0072413087,0.0,0.0,0.0,0.0,0.0,0.0,-0.01191746,0.021350693,-0.67797387
101777947,0.46797773,-0.10530717,-0.5295687,0.06775801,0.0,-0.14188121,0.08793847,0.011386633,0.0,0.0,0.0,0.0,0.0,0.0,-0.013121994,0.020031158,-0.67796254
101878003,0.46797773,-0.10530717,-0.5295687,0.06775801,0.0,-0.13241349,0.08206253,0.01414746,0.0,0.0,0.0,0.0,0.0,0.0,-0.010089074,0.016629968,-0.67850935
101978439,0.46797773,-0.10530717,-0.5295687,0.06775801,0.0,-0.119881436,0.074387796,0.015129566,0.0,0.0,0.0,0.0,0.0,0.0,-0.0078935,0.017428536,-0.6816449
102079613,0.46797773,-0.10530717,-0.5295687,0.06775801,0.0,-0.10603717,0.06477702,0.014133871,0.0,0.0,0.0,0.0,0.0,0.0,-0.0069010127,0.015801001,-0.6839247
102178508,0.46797773,-0.10530717,-0.5295687,0.06775801,0.0,-0.0931533,0.054767933,0.012151182,0.0,0.0,0.0,0.0,0.0,0.0,-0.008814143,0.014689149,-0.687585
102279502,0.46797773,-0.10530717,-0.5295687,0.06775801,0.0,-0.08047198,0.04298541,0.008201957,0.0,0.0,0.0,0.0,0.0,0.0,-0.0057700174,0.010574642,-0.6911488
102378683,0.46797773,-0.10530717,-0.5295687,0.06775801,0.0,-0.07037896,0.03128389,0.003993511,0.0,0.0,0.0,0.0,0.0,0.0,-0.009313767,0.011074115,-0.69152164
102480164,0.46797773,-0.10530717,-0.5295687,0.06775801,0.0,-0.061635982,0.018071843,0.00027608871,0.0,0.0,0.0,0.0,0.0,0.0,-0.0071308264,0.010211473,-0.6906224
102599608,0.46797773,-0.10530717,-0.5295687,0.06775801,0.0,-0.0544414,0.0030031393,-0.0018143654,0.0,0.0,0.0,0.0,0.0,0.0,-0.0070320773,0.009815359,-0.68973523
102698777,0.46797773,-0.10530717,-0.5295687,0.06775801,0.0,-0.050387997,-0.008735561,-0.0010162592,0.0,0.0,0.0,0.0,0.0,0.0,-0.0069522327,0.009550999,-0.6860498
102799004,0.46797773,-0.10530717,-0.5295687,0.06775801,0.0,-0.047051176,-0.02056338,0.0014872551,0.0,0.0,0.0,0.0,0.0,0.0,-0.0066063516,0.003851803,-0.68362606
102899211,0.46797773,-0.10530717,-0.5295687,0.06775801,0.0,-0.04419408,-0.031032627,0.0044923425,0.0,0.0,0.0,0.0,0.0,0.0,-0.008460158,0.008015755,-0.6852655
102999225,0.46797773,-0.10530717,-0.5295687,0.06775801,0.0,-0.04090737,-0.04099868,0.007183075,0.0,0.0,0.0,0.0,0.0,0.0,-0.007118513,0.009012146,-0.68542206
103099369,0.46797773,-0.10530717,-0.5295687,0.06775801,0.0,-0.03686048,-0.04879675,0.009102106,0.0,0.0,0.0,0.0,0.0,0.0,-0.005021277,0.0084478995,-0.685977
103199384,0.46797773,-0.10530717,-0.5295687,0.06775801,0.0,-0.030484064,-0.056232423,0.009673238,0.0,0.0,0.0,0.0,0.0,0.0,-0.0021259803,0.005054298,-0.687462
103299423,0.46797773,-0.10530717,-0.5295687,0.06775801,0.0,-0.022569725,-0.061240718,0.008462131,0.0,0.0,0.0,0.0,0.0,0.0,-0.0032895096,0.008843701,-0.6910189
103399513,0.46797773,-0.10530717,-0.5295687,0.06775801,0.0,-0.0119082555,-0.064523235,0.005556166,0.0,0.0,0.0,0.0,0.0,0.0,-0.0012371284,0.009367043,-0.69342446
103499569,0.46797773,-0.10530717,-0.5295687,0.06775801,0.0,-0.0010294318,-0.06595545,0.0012949109,0.0,0.0,0.0,0.0,0.0,0.0,0.0013972884,0.008005469,-0.69610906
103599753,0.46797773,-0.10530717,-0.5295687,0.06775801,0.0,0.010949944,-0.06617294,-0.004284799,0.0,0.0,0.0,0.0,0.0,0.0,0.0009393282,0.010155837,-0.69802564
103699935,0.46797773,-0.10530717,-0.5295687,0.06775801,0.0,0.021346044,-0.06516215,-0.008996725,0.0,0.0,0.0,0.0,0.0,0.0,0.0014459174,0.012907585,-0.6967214
103800004,0.46797773,-0.10530717,-0.5295687,0.06775801,0.0,0.030875253,-0.06398681,-0.012854874,0.0,0.0,0.0,0.0,0.0,0.0,0.0001297365,0.0085299285,-0.69683313
103900065,0.46797773,-0.10530717,-0.5295687,0.06775801,0.0,0.037818056,-0.0630306,-0.015022516,0.0,0.0,0.0,0.0,0.0,0.0,-0.0013541845,0.016551483,-0.6961983
104000171,0.46797773,-0.10530717,-0.5295687,0.06775801,0.0,0.042630564,-0.061558153,-0.015643537,0.0,0.0,0.0,0.0,0.0,0.0,-0.0024006874,0.011092636,-0.6944274
104120374,0.46797773,-0.10530717,-0.5295687,0.06775801,0.0,0.04458258,-0.06000111,-0.013965189,0.0,0.0,0.0,0.0,0.0,0.0,-0.0017857151,0.009377366,-0.68963706
104220368,0.46797773,-0.10530717,-0.5295687,0.06775801,0.0,0.043991562,-0.060282435,-0.011186659,0.0,0.0,0.0,0.0,0.0,0.0,-0.005072532,0.011848751,-0.68927306
104320429,0.46797773,-0.10530717,-0.5295687,0.06775801,0.0,0.041998524,-0.0619352,-0.0068649054,0.0,0.0,0.0,0.0,0.0,0.0,-0.0042889775,0.012975052,-0.6846509
104420542,0.46797773,-0.10530717,-0.5295687,0.06775801,0.0,0.03934366,-0.06423286,-0.00238806,0.0,0.0,0.0,0.0,0.0,0.0,-0.0048242346,0.007417077,-0.68427783
104520854,0.46797773,-0.10530717,-0.5295687,0.06775801,0.0,0.036419265,-0.068096384,0.0016823411,0.0,0.0,0.0,0.0,0.0,0.0,-0.006087598,0.008485492,-0.685138
104622503,0.46797773,-0.10530717,-0.5295687,0.06775801,0.0,0.034080222,-0.073667414,0.004201174,0.0,0.0,0.0,0.0,0.0,0.0,-0.004825066,0.005825365,-0.6861548
104720912,0.46797773,-0.10530717,-0.5295687,0.06775801,0.0,0.03303924,-0.07928226,0.0054823756,0.0,0.0,0.0,0.0,0.0,0.0,-0.0042395853,0.008041101,-0.68576574
104821558,0.46797773,-0.10530717,-0.5295687,0.06775801,0.0,0.033670317,-0.08475813,0.0061522126,0.0,0.0,0.0,0.0,0.0,0.0,-0.0052221874,0.0056740856,-0.6861635
104921050,0.46797773,-0.10530717,-0.5295687,0.06775801,0.0,0.035877172,-0.089278534,0.006894946,0.0,0.0,0.0,0.0,0.0,0.0,-0.0016556075,0.0040415144,-0.68360436
105022065,0.46797773,-0.10530717,-0.5295687,0.06775801,0.0,0.03960736,-0.09293053,0.00771755,0.0,0.0,0.0,0.0,0.0,0.0,-0.0011773757,0.0035272837,-0.68390775
105121207,0.46797773,-0.10530717,-0.5295687,0.06775801,0.0,0.044067156,-0.09588208,0.008276343,0.0,0.0,0.0,0.0,0.0,0.0,0.00055327173,0.0042059887,-0.6849558
105221408,0.46797773,-0.10530717,-0.5295687,0.06775801,0.0,0.04926658,-0.098554015,0.008679092,0.0,0.0,0.0,0.0,0.0,0.0,0.00026349118,0.00442875,-0.68566746
105321591,0.46797773,-0.10530717,-0.5295687,0.06775801,0.0,0.054240637,-0.100109585,0.009106278,0.0,0.0,0.0,0.0,0.0,0.0,0.0014622454,0.002061475,-0.6864394
105441792,0.46797773,-0.10530717,-0.5295687,0.06775801,0.0,0.060027342,-0.099742666,0.00971657,0.0,0.0,0.0,0.0,0.0,0.0,0.0014019194,0.008114199,-0.6861989
105541750,0.46797773,-0.10530717,-0.5295687,0.06775801,0.0,0.064328335,-0.09803407,0.010736346,0.0,0.0,0.0,0.0,0.0,0.0,0.0012728958,0.006307645,-0.68533397
105641820,0.46797773,-0.10530717,-0.5295687,0.06775801,0.0,0.06741819,-0.09528865,0.01209259,0.0,0.0,0.0,0.0,0.0,0.0,0.0021075797,0.008808033,-0.6846001
105741868,0.46797773,-0.10530717,-0.5295687,0.06775801,0.0,0.06966747,-0.09109899,0.014354348,0.0,0.0,0.0,0.0,0.0,0.0,0.0011569303,0.00766494,-0.6825213
105841938,0.46797773,-0.10530717,-0.5295687,0.06775801,0.0,0.07025269,-0.08567679,0.016584456,0.0,0.0,0.0,0.0,0.0,0.0,-0.0012087128,0.011083742,-0.6832886
105942012,0.46797773,-0.10530717,-0.5295687,0.06775801,0.0,0.06929831,-0.07889986,0.018902004,0.0,0.0,0.0,0.0,0.0,0.0,-0.001688424,0.01261676,-0.68157697
106042390,0.46797773,-0.10530717,-0.5295687,0.06775801,0.0,0.06716536,-0.07188131,0.021081865,0.0,0.0,0.0,0.0,0.0,0.0,-0.0006610807,0.008961821,-0.67979693
106142684,0.46797773,-0.10530717,-0.5295687,0.06775801,0.0,0.063638024,-0.064202964,0.023187399,0.0,0.0,0.0,0.0,0.0,0.0,-0.0031134975,0.014792184,-0.67999434
106242421,0.46797773,-0.10530717,-0.5295687,0.06775801,0.0,0.059424657,-0.057115808,0.024868429,0.0,0.0,0.0,0.0,0.0,0.0,-0.0031537358,0.01138335,-0.68069434
106342741,0.46797773,-0.10530717,-0.5295687,0.06775801,0.0,0.05452628,-0.050155133,0.02611494,0.0,0.0,0.0,0.0,0.0,0.0,-0.006219321,0.012275998,-0.6798965
106442766,0.46797773,-0.10530717,-0.5295687,0.06775801,0.0,0.04894821,-0.04338879,0.02714163,0.0,0.0,0.0,0.0,0.0,0.0,-0.0024274318,0.0131231975,-0.6801584
106542747,0.46797773,-0.10530717,-0.5295687,0.06775801,0.0,0.04427644,-0.037920136,0.026903093,0.0,0.0,0.0,0.0,0.0,0.0,-0.00203927,0.013126015,-0.68266034
106663128,0.46797773,-0.10530717,-0.5295687,0.06775801,0.0,0.040021397,-0.032359924,0.02493447,0.0,0.0,0.0,0.0,0.0,0.0,-0.0038473224,0.01556638,-0.6850255
106763227,0.46797773,-0.10530717,-0.5295687,0.06775801,0.0,0.038390927,-0.029555585,0.022503436,0.0,0.0,0.0,0.0,0.0,0.0,-0.002551627,0.010957991,-0.6857098
106863186,0.46797773,-0.10530717,-0.5295687,0.06775801,0.0,0.03851227,-0.02902287,0.01975739,0.0,0.0,0.0,0.0,0.0,0.0,-0.0014879007,0.01020465,-0.6868051
106963276,0.46797773,-0.10530717,-0.5295687,0.06775801,0.0,0.04035452,-0.02986978,0.01812327,0.0,0.0,0.0,0.0,0.0,0.0,-0.00022188248,0.012568789,-0.683962
107064455,0.46797773,-0.10530717,-0.5295687,0.06775801,0.0,0.043429594,-0.03150377,0.017825425,0.0,0.0,0.0,0.0,0.0,0.0,0.001796816,0.009421149,-0.68228674
107163478,0.46797773,-0.10530717,-0.5295687,0.06775801,0.0,0.047016155,-0.033819575,0.018584847,0.0,0.0,0.0,0.0,0.0,0.0,0.0026261797,0.006812595,-0.682259
107263481,0.46797773,-0.10530717,-0.5295687,0.06775801,0.0,0.051596843,-0.03679666,0.02100271,0.0,0.0,0.0,0.0,0.0,0.0,0.0036431747,0.007526606,-0.6804905
107363546,0.46797773,-0.10530717,-0.5295687,0.06775801,0.0,0.056611218,-0.03980709,0.024860322,0.0,0.0,0.0,0.0,0.0,0.0,0.0039889254,0.008849414,-0.6748413
107463521,0.46797773,-0.10530717,-0.5295687,0.06775801,0.0,0.061451387,-0.042924337,0.02968973,0.0,0.0,0.0,0.0,0.0,0.0,0.0090361405,0.008767953,-0.6757969
107583761,nan,nan,-0.5295687,0.06775801,0.0,-0.015559439,0.22928092,0.033797204,0.0,0.0,0.0,0.0,0.0,0.0,0.0049788654,0.036268216,-0.67849797
107683785,nan,nan,-0.5295687,0.06775801,0.0,-0.047707513,0.70300883,0.034213006,0.0,0.0,0.0,0.0,0.0,0.0,0.001953293,0.07729605,-0.6832646
107783988,nan,nan,-0.5295687,0.06775801,0.0,-0.053532835,0.78884965,0.031391025,0.0,0.0,0.0,0.0,0.0,0.0,0.007073093,0.078027815,-0.68720776
107884126,nan,nan,-0.5295687,0.06775801,0.0,-0.06012848,0.8860418,0.026146173,0.0,0.0,0.0,0.0,0.0,0.0,0.015525131,0.079967126,-0.69156647
107984269,nan,nan,-0.5295687,0.06775801,0.0,-0.064425394,0.9493603,0.018896818,0.0,0.0,0.0,0.0,0.0,0.0,0.022054374,0.083438024,-0.69460285
108084280,nan,nan,-0.5295687,0.06775801,0.0,-0.062170725,0.91613597,0.011694431,0.0,0.0,0.0,0.0,0.0,0.0,0.02203022,0.075469695,-0.69444597
108184361,nan,nan,-0.5295687,0.06775801,0.0,-0.18779497,0.15603599,0.0044893622,0.0,0.0,0.0,0.0,0.0,0.0,0.017042058,-0.0018970501,-0.69716966
108284425,0.24756365,0.022074182,-0.5295687,0.06775801,0.0,0.017242884,-0.012355875,-0.0012288094,0.0,0.0,0.0,0.0,0.0,0.0,0.04416973,-0.010254554,-0.7001787
108384400,0.24756365,0.022074182,-0.5295687,0.06775801,0.0,0.0651012,-0.04571946,-0.0060549974,0.0,0.0,0.0,0.0,0.0,0.0,0.054768708,-0.012381321,-0.69784486
108484997,0.24756365,0.022074182,-0.5295687,0.06775801,0.0,0.11504728,-0.07967302,-0.009530842,0.0,0.0,0.0,0.0,0.0,0.0,0.06080952,-0.0186518,-0.70105946
108585254,0.24756365,0.022074182,-0.5295687,0.06775801,0.0,0.17270549,-0.11834665,-0.013106167,0.0,0.0,0.0,0.0,0.0,0.0,0.06862812,-0.020209283,-0.6982008
108685545,0.24756365,0.022074182,-0.5295687,0.06775801,0.0,0.22710837,-0.15179853,-0.016826332,0.0,0.0,0.0,0.0,0.0,0.0,0.07342184,-0.013343824,-0.7011332
108785147,0.24756365,0.022074182,-0.5295687,0.06775801,0.0,0.28532985,-0.18087482,-0.020110726,0.0,0.0,0.0,0.0,0.0,0.0,0.07584439,-0.011038449,-0.7008575
108905144,0.24756365,0.022074182,-0.5295687,0.06775801,0.0,0.34773526,-0.20052123,-0.022400022,0.0,0.0,0.0,0.0,0.0,0.0,0.08191847,-0.01039401,-0.6968737
109005142,0.24756365,0.022074182,-0.5295687,0.06775801,0.0,0.39173108,-0.20395805,-0.022874296,0.0,0.0,0.0,0.0,0.0,0.0,0.08276137,-0.00014190562,-0.69383687
109105238,0.24756365,0.022074182,-0.5295687,0.06775801,0.0,0.43169507,-0.19580022,-0.020944834,0.0,0.0,0.0,0.0,0.0,0.0,0.07988318,0.0040441193,-0.69171894
109205886,0.24756365,0.022074182,-0.5295687,0.06775801,0.0,0.4627278,-0.17794521,-0.018210113,0.0,0.0,0.0,0.0,0.0,0.0,0.08213968,0.014815571,-0.6894891
109305575,0.24756365,0.022074182,-0.5295687,0.06775801,0.0,0.48403537,-0.15556686,-0.015320957,0.0,0.0,0.0,0.0,0.0,0.0,0.078693435,0.018684687,-0.68721724
109405750,nan,nan,-0.5295687,0.06775801,0.0,-0.00041196216,0.0060705957,-0.012017369,0.0,0.0,0.0,0.0,0.0,0.0,0.025587464,0.033039123,-0.6878308
109505815,nan,nan,-0.5295687,0.06775801,0.0,-0.023506977,0.34639433,-0.008904576,0.0,0.0,0.0,0.0,0.0,0.0,0.027949927,0.062221102,-0.68497586
109605850,nan,nan,-0.5295687,0.06775801,0.0,-0.03213671,0.47356042,-0.00569427,0.0,0.0,0.0,0.0,0.0,0.0,0.027187936,0.07223564,-0.68510294
109705947,nan,nan,-0.5295687,0.06775801,0.0,-0.06601112,0.97272736,-0.0026087165,0.0,0.0,0.0,0.0,0.0,0.0,0.023295598,0.11028477,-0.684812
109826160,nan,nan,-0.5295687,0.06775801,0.0,-0.043811444,0.64559704,-0.0021798015,0.0,0.0,0.0,0.0,0.0,0.0,0.028032744,0.06924316,-0.690414
109926411,-0.3245347,0.088667385,-0.5295687,0.06775801,0.0,0.005361058,-0.0048904945,-0.0044603944,0.0,0.0,0.0,0.0,0.0,0.0,0.040315412,0.008620712,-0.6919225
110026388,-0.3245347,0.088667385,-0.5295687,0.06775801,0.0,0.02092793,-0.019503804,-0.0072155,0.0,0.0,0.0,0.0,0.0,0.0,0.037455626,0.005674783,-0.6933165
110126579,-0.3245347,0.088667385,-0.5295687,0.06775801,0.0,0.042616524,-0.039547786,-0.011233509,0.0,0.0,0.0,0.0,0.0,0.0,0.041405257,0.004141737,-0.6971293
110226482,-0.3245347,0.088667385,-0.5295687,0.06775801,0.0,0.06780544,-0.0629377,-0.0156238675,0.0,0.0,0.0,0.0,0.0,0.0,0.046901707,0.00031267852,-0.6971528
110326564,-0.3245347,0.088667385,-0.5295687,0.06775801,0.0,0.098519765,-0.091372415,-0.020843387,0.0,0.0,0.0,0.0,0.0,0.0,0.04533977,7.653795e-05,-0.69856495
110426627,-0.3245347,0.088667385,-0.5295687,0.06775801,0.0,0.12798955,-0.11680974,-0.02548933,0.0,0.0,0.0,0.0,0.0,0.0,0.054496944,0.002551157,-0.7002096
110526652,-0.3245347,0.088667385,-0.5295687,0.06775801,0.0,0.1591246,-0.13838194,-0.029071808,0.0,0.0,0.0,0.0,0.0,0.0,0.05075584,0.0029900782,-0.698046
110626793,-0.3245347,0.088667385,-0.5295687,0.06775801,0.0,0.18458064,-0.14942808,-0.030047834,0.0,0.0,0.0,0.0,0.0,0.0,0.054025777,0.0065412596,-0.6961051
110726842,-0.3245347,0.088667385,-0.5295687,0.06775801,0.0,0.20758843,-0.15047812,-0.028803945,0.0,0.0,0.0,0.0,0.0,0.0,0.048593156,0.009979565,-0.6906954
110827548,-0.3245347,0.088667385,-0.5295687,0.06775801,0.0,0.22330318,-0.14157195,-0.02482307,0.0,0.0,0.0,0.0,0.0,0.0,0.0515911,0.017935337,-0.68467236
110927649,-0.3245347,0.088667385,-0.5295687,0.06775801,0.0,0.23444913,-0.12326962,-0.017393827,0.0,0.0,0.0,0.0,0.0,0.0,0.043293357,0.022833444,-0.6809093
111047608,-0.3245347,0.088667385,-0.5295687,0.06775801,0.0,0.23987664,-0.09506115,-0.0070702434,0.0,0.0,0.0,0.0,0.0,0.0,0.047645804,0.029318556,-0.6784806
111147543,-0.3245347,0.088667385,-0.5295687,0.06775801,0.0,0.23928814,-0.07014323,0.0010655522,0.0,0.0,0.0,0.0,0.0,0.0,0.040226284,0.027542077,-0.67680955
111247758,-0.3245347,0.088667385,-0.5295687,0.06775801,0.0,0.23437908,-0.044204235,0.00822711,0.0,0.0,0.0,0.0,0.0,0.0,0.040934358,0.03267434,-0.680107
111347636,-0.3245347,0.088667385,-0.5295687,0.06775801,0.0,0.22669753,-0.02348794,0.012011051,0.0,0.0,0.0,0.0,0.0,0.0,0.036376618,0.030952133,-0.6796844
111447784,-0.3245347,0.088667385,-0.5295687,0.06775801,0.0,0.21663815,-0.005497862,0.01334399,0.0,0.0,0.0,0.0,0.0,0.0,0.036486004,0.032458305,-0.68299603
111547636,-0.3245347,0.088667385,-0.5295687,0.06775801,0.0,0.20655186,0.00583235,0.011913478,0.0,0.0,0.0,0.0,0.0,0.0,0.032474134,0.02669375,-0.68661046
111647801,-0.3245347,0.088667385,-0.5295687,0.06775801,0.0,0.19584554,0.011920557,0.008088291,0.0,0.0,0.0,0.0,0.0,0.0,0.0328385,0.02342009,-0.691923
111747948,-0.3245347,0.088667385,-0.5295687,0.06775801,0.0,0.18607132,0.011993702,0.0018407702,0.0,0.0,0.0,0.0,0.0,0.0,0.037553366,0.019569598,-0.69542944
111848056,-0.3245347,0.088667385,-0.5295687,0.06775801,0.0,0.17826293,0.0072911647,-0.0051724315,0.0,0.0,0.0,0.0,0.0,0.0,0.032509882,0.017685072,-0.69865924
111948147,-0.3245347,0.088667385,-0.5295687,0.06775801,0.0,0.17161365,-0.0020043696,-0.01310581,0.0,0.0,0.0,0.0,0.0,0.0,0.03668441,0.013386596,-0.7010931
112048198,-0.3245347,0.088667385,-0.5295687,0.06775801,0.0,0.16685843,-0.0139047755,-0.020528615,0.0,0.0,0.0,0.0,0.0,0.0,0.032794923,0.009751445,-0.70404977
112148243,-0.3245347,0.088667385,-0.5295687,0.06775801,0.0,0.1626288,-0.028893286,-0.028553128,0.0,0.0,0.0,0.0,0.0,0.0,0.033235632,0.00880018,-0.7085905
112248327,-0.3245347,0.088667385,-0.5295687,0.06775801,0.0,0.15935333,-0.044007394,-0.034725636,0.0,0.0,0.0,0.0,0.0,0.0,0.03386084,0.004187952,-0.70649374
112348403,-0.3245347,0.088667385,-0.5295687,0.06775801,0.0,0.15650064,-0.06094898,-0.03850618,0.0,0.0,0.0,0.0,0.0,0.0,0.037705176,0.0026576016,-0.70144486
112468812,-0.3245347,0.088667385,-0.5295687,0.06775801,0.0,0.15373126,-0.07911885,-0.03823036,0.0,0.0,0.0,0.0,0.0,0.0,0.0361935,0.0029604435,-0.69720525
112568915,-0.3245347,0.088667385,-0.5295687,0.06775801,0.0,0.15146784,-0.091803454,-0.034801573,0.0,0.0,0.0,0.0,0.0,0.0,0.03595718,-0.0021968968,-0.69422793
112669043,-0.3245347,0.088667385,-0.5295687,0.06775801,0.0,0.14866948,-0.10349485,-0.028831422,0.0,0.0,0.0,0.0,0.0,0.0,0.03743872,0.0033593187,-0.6899881
112769475,-0.3245347,0.088667385,-0.5295687,0.06775801,0.0,0.14561446,-0.11224872,-0.022572994,0.0,0.0,0.0,0.0,0.0,0.0,0.036550336,0.0037426772,-0.69001836
112868985,-0.3245347,0.088667385,-0.5295687,0.06775801,0.0,0.1421346,-0.118268214,-0.017521381,0.0,0.0,0.0,0.0,0.0,0.0,0.034287933,-0.00016451068,-0.6894797
112969100,-0.3245347,0.088667385,-0.5295687,0.06775801,0.0,0.13710879,-0.1230592,-0.013621569,0.0,0.0,0.0,0.0,0.0,0.0,0.030992337,0.0013271337,-0.689769
113069143,-0.3245347,0.088667385,-0.5295687,0.06775801,0.0,0.13079344,-0.12641014,-0.011386633,0.0,0.0,0.0,0.0,0.0,0.0,0.031907804,0.00096279103,-0.68725634
113169366,-0.3245347,0.088667385,-0.5295687,0.06775801,0.0,0.12210964,-0.12825622,-0.009417355,0.0,0.0,0.0,0.0,0.0,0.0,0.025952032,0.0013324097,-0.6875505
113269398,-0.3245347,0.088667385,-0.5295687,0.06775801,0.0,0.11229266,-0.12837431,-0.007065892,0.0,0.0,0.0,0.0,0.0,0.0,0.02533516,0.0024138708,-0.6841955
113370021,-0.3245347,0.088667385,-0.5295687,0.06775801,0.0,0.09949965,-0.12797473,-0.0039060712,0.0,0.0,0.0,0.0,0.0,0.0,0.023690313,0.0020250436,-0.68229306
113470349,-0.3245347,0.088667385,-0.5295687,0.06775801,0.0,0.0860047,-0.1268797,-0.0002656579,0.0,0.0,0.0,0.0,0.0,0.0,0.020213565,0.005015334,-0.68252736
113570401,-0.3245347,0.088667385,-0.5295687,0.06775801,0.0,0.06965295,-0.12451479,0.0030865073,0.0,0.0,0.0,0.0,0.0,0.0,0.017965235,0.009376778,-0.68595994
113689975,nan,nan,-0.5295687,0.06775801,0.0,-0.03309735,0.48771623,0.004992187,0.0,0.0,0.0,0.0,0.0,0.0,0.0120728575,0.06146506,-0.68592453
113789952,nan,nan,-0.5295687,0.06775801,0.0,-0.06695924,0.98669857,0.0057858825,0.0,0.0,0.0,0.0,0.0,0.0,0.008483702,0.10251247,-0.6849447
113890015,nan,nan,-0.5295687,0.06775801,0.0,-0.08854512,1.304784,0.0051518083,0.0,0.0,0.0,0.0,0.0,0.0,0.009871045,0.12840985,-0.690092
113990172,nan,nan,-0.5295687,0.06775801,0.0,-0.05858411,0.86328423,0.002017796,0.0,0.0,0.0,0.0,0.0,0.0,0.014561757,0.07788203,-0.69311595
114090332,nan,nan,-0.5295687,0.06775801,0.0,-0.050946962,0.75074476,-0.0028281212,0.0,0.0,0.0,0.0,0.0,0.0,0.014495527,0.06777062,-0.6991308
114190468,nan,nan,-0.5295687,0.06775801,0.0,-0.050979305,0.7512213,-0.009611428,0.0,0.0,0.0,0.0,0.0,0.0,0.013723689,0.0599124,-0.70399857
114290580,nan,nan,-0.5295687,0.06775801,0.0,0.05017432,0.23023659,-0.017154932,0.0,0.0,0.0,0.0,0.0,0.0,0.025720939,0.007652154,-0.70429087
114390537,-0.298278,0.3276422,-0.5295687,0.06775801,0.0,-0.0012062415,-0.015486862,-0.025182009,0.0,0.0,0.0,0.0,0.0,0.0,0.01932067,-0.014220353,-0.7064004
114490700,-0.298278,0.3276422,-0.5295687,0.06775801,0.0,-0.002671115,-0.054601673,-0.031435728,0.0,0.0,0.0,0.0,0.0,0.0,0.023613242,-0.013820013,-0.7060463
114590662,-0.298278,0.3276422,-0.5295687,0.06775801,0.0,-0.0026784479,-0.09711356,-0.03722626,0.0,0.0,0.0,0.0,0.0,0.0,0.022248512,-0.012048967,-0.70583034
114690743,-0.298278,0.3276422,-0.5295687,0.06775801,0.0,-0.0025297522,-0.13448456,-0.04143244,0.0,0.0,0.0,0.0,0.0,0.0,0.022344299,-0.015769685,-0.7075437
114790983,-0.298278,0.3276422,-0.5295687,0.06775801,0.0,-0.0028533323,-0.16817445,-0.044378698,0.0,0.0,0.0,0.0,0.0,0.0,0.022371568,-0.013840685,-0.70698524
114891256,-0.298278,0.3276422,-0.5295687,0.06775801,0.0,-0.004045446,-0.19039959,-0.045745224,0.0,0.0,0.0,0.0,0.0,0.0,0.023595013,-0.0073215216,-0.7024901
114991229,-0.298278,0.3276422,-0.5295687,0.06775801,0.0,-0.005950065,-0.20199077,-0.045699388,0.0,0.0,0.0,0.0,0.0,0.0,0.025664382,-0.0044575725,-0.7009736
115111294,-0.298278,0.3276422,-0.5295687,0.06775801,0.0,-0.009043202,-0.20191121,-0.0441505,0.0,0.0,0.0,0.0,0.0,0.0,0.022388129,0.0019163266,-0.699025
115211336,-0.298278,0.3276422,-0.5295687,0.06775801,0.0,-0.012021731,-0.19112636,-0.042403966,0.0,0.0,0.0,0.0,0.0,0.0,0.01970429,0.005767009,-0.6990934
115311412,-0.298278,0.3276422,-0.5295687,0.06775801,0.0,-0.014640299,-0.17514548,-0.040781885,0.0,0.0,0.0,0.0,0.0,0.0,0.025058372,0.010095341,-0.6968975
115411517,-0.298278,0.3276422,-0.5295687,0.06775801,0.0,-0.017223278,-0.15514907,-0.038778037,0.0,0.0,0.0,0.0,0.0,0.0,0.022790177,0.011975188,-0.69655514
115511520,-0.298278,0.3276422,-0.5295687,0.06775801,0.0,-0.019583043,-0.13630722,-0.037217855,0.0,0.0,0.0,0.0,0.0,0.0,0.023696192,0.01614766,-0.69791436
115611649,-0.298278,0.3276422,-0.5295687,0.06775801,0.0,-0.022387,-0.11685359,-0.036004126,0.0,0.0,0.0,0.0,0.0,0.0,0.025797736,0.017269453,-0.69504637
115712116,-0.298278,0.3276422,-0.5295687,0.06775801,0.0,-0.025175722,-0.10156449,-0.03499508,0.0,0.0,0.0,0.0,0.0,0.0,0.019500088,0.017230578,-0.69792193
115812353,-0.298278,0.3276422,-0.5295687,0.06775801,0.0,-0.028526274,-0.08889138,-0.033978015,0.0,0.0,0.0,0.0,0.0,0.0,0.02203437,0.016593093,-0.697264
115912392,-0.298278,0.3276422,-0.5295687,0.06775801,0.0,-0.03259287,-0.08173349,-0.033427298,0.0,0.0,0.0,0.0,0.0,0.0,0.016935786,0.015296431,-0.69619906
116012417,-0.298278,0.3276422,-0.5295687,0.06775801,0.0,-0.037810754,-0.07922177,-0.032666415,0.0,0.0,0.0,0.0,0.0,0.0,0.020940572,0.013633518,-0.6942594
116113352,-0.298278,0.3276422,-0.5295687,0.06775801,0.0,-0.044589233,-0.08110467,-0.031263232,0.0,0.0,0.0,0.0,0.0,0.0,0.013143563,0.011241799,-0.69387996
116212415,-0.298278,0.3276422,-0.5295687,0.06775801,0.0,-0.052175347,-0.08565739,-0.02913177,0.0,0.0,0.0,0.0,0.0,0.0,0.011981519,0.008827614,-0.69230795
116312592,-0.298278,0.3276422,-0.5295687,0.06775801,0.0,-0.061461356,-0.09237202,-0.025518239,0.0,0.0,0.0,0.0,0.0,0.0,0.015036873,0.0065649776,-0.68662304
116412576,-0.298278,0.3276422,-0.5295687,0.06775801,0.0,-0.07068465,-0.09873066,-0.021163404,0.0,0.0,0.0,0.0,0.0,0.0,0.009675777,0.0048499685,-0.68786156
116532769,-0.298278,0.3276422,-0.5295687,0.06775801,0.0,-0.082896225,-0.10545778,-0.015946865,0.0,0.0,0.0,0.0,0.0,0.0,0.00848151,0.0059454376,-0.68775076
116632860,-0.298278,0.3276422,-0.5295687,0.06775801,0.0,-0.09422343,-0.10942218,-0.0127850175,0.0,0.0,0.0,0.0,0.0,0.0,0.007908987,0.0064914757,-0.6897143
116732913,-0.298278,0.3276422,-0.5295687,0.06775801,0.0,-0.10467965,-0.111007966,-0.011831522,0.0,0.0,0.0,0.0,0.0,0.0,0.006259542,0.0065894164,-0.692341
116832928,-0.298278,0.3276422,-0.5295687,0.06775801,0.0,-0.1155216,-0.11019875,-0.013269246,0.0,0.0,0.0,0.0,0.0,0.0,0.0045187864,0.007464078,-0.6954485
116933025,-0.298278,0.3276422,-0.5295687,0.06775801,0.0,-0.124634534,-0.10753726,-0.01549387,0.0,0.0,0.0,0.0,0.0,0.0,0.0033806078,0.006864407,-0.69702226
117033190,-0.298278,0.3276422,-0.5295687,0.06775801,0.0,-0.13225742,-0.103748746,-0.017579257,0.0,0.0,0.0,0.0,0.0,0.0,0.0036280584,0.009768111,-0.6935715
117133185,-0.298278,0.3276422,-0.5295687,0.06775801,0.0,-0.13852556,-0.09889009,-0.01847899,0.0,0.0,0.0,0.0,0.0,0.0,0.006697313,0.012226346,-0.69196725
117233378,-0.298278,0.3276422,-0.5295687,0.06775801,0.0,-0.14304496,-0.0937805,-0.017966151,0.0,0.0,0.0,0.0,0.0,0.0,0.0028400235,0.010848558,-0.69343346
117333506,-0.298278,0.3276422,-0.5295687,0.06775801,0.0,-0.14592153,-0.08942113,-0.016814053,0.0,0.0,0.0,0.0,0.0,0.0,0.0067185666,0.007872958,-0.69243735
117433682,-0.298278,0.3276422,-0.5295687,0.06775801,0.0,-0.14691621,-0.084773734,-0.014962018,0.0,0.0,0.0,0.0,0.0,0.0,0.006903393,0.006967805,-0.6937276
117533701,-0.298278,0.3276422,-0.5295687,0.06775801,0.0,-0.14600798,-0.08060281,-0.013270378,0.0,0.0,0.0,0.0,0.0,0.0,0.008760466,0.009661468,-0.69338846
117633838,nan,nan,-0.5295687,0.06775801,0.0,0.013548344,-0.19964582,-0.012491345,0.0,0.0,0.0,0.0,0.0,0.0,0.024917448,-0.0013175625,-0.69482714
117733805,nan,nan,-0.5295687,0.06775801,0.0,0.020319905,-0.29943022,-0.013650835,0.0,0.0,0.0,0.0,0.0,0.0,0.021418089,-0.0043634055,-0.69955707
117833956,nan,nan,-0.5295687,0.06775801,0.0,0.01980662,-0.29186657,-0.015930295,0.0,0.0,0.0,0.0,0.0,0.0,0.021920905,-0.001951958,-0.6992222
117934005,nan,nan,-0.5295687,0.06775801,0.0,0.017554777,-0.25868383,-0.018478394,0.0,0.0,0.0,0.0,0.0,0.0,0.023050822,0.001596936,-0.6977034
118054593,nan,nan,-0.5295687,0.06775801,0.0,0.010964642,-0.16157287,-0.019500554,0.0,0.0,0.0,0.0,0.0,0.0,0.017846676,0.009077761,-0.694239
118154375,nan,nan,-0.5295687,0.06775801,0.0,0.010628073,-0.15661326,-0.017855942,0.0,0.0,0.0,0.0,0.0,0.0,0.016879447,0.011851265,-0.69255525
118254721,nan,nan,-0.5295687,0.06775801,0.0,0.00913855,-0.13466392,-0.013880432,0.0,0.0,0.0,0.0,0.0,0.0,0.013703894,0.011732606,-0.68671554
118354603,nan,nan,-0.5295687,0.06775801,0.0,0.009173289,-0.13517584,-0.0065870285,0.0,0.0,0.0,0.0,0.0,0.0,0.010465159,0.008768238,-0.68189144
118455522,nan,nan,-0.5295687,0.06775801,0.0,0.00917427,-0.13519028,0.0015563369,0.0,0.0,0.0,0.0,0.0,0.0,0.007902855,0.009603815,-0.6827665
118554666,nan,nan,-0.5295687,0.06775801,0.0,0.00917427,-0.13519028,0.007428646,0.0,0.0,0.0,0.0,0.0,0.0,0.0075379014,0.0073084706,-0.6865903
118654763,nan,nan,-0.5295687,0.06775801,0.0,0.009870373,-0.14544792,0.010491967,0.0,0.0,0.0,0.0,0.0,0.0,0.0052454844,0.0019513648,-0.68826383
118754861,nan,nan,-0.5295687,0.06775801,0.0,0.047339775,-0.017904092,0.009793341,0.0,0.0,0.0,0.0,0.0,0.0,0.009419497,0.014673552,-0.69332373
118855968,-0.073144004,0.287183,-0.5295687,0.06775801,0.0,-0.013834738,-0.0007672891,0.005325556,0.0,0.0,0.0,0.0,0.0,0.0,0.0031627212,0.008648302,-0.6972043
118975902,-0.073144004,0.287183,-0.5295687,0.06775801,0.0,-0.03370138,-0.0076464475,-0.0040785074,0.0,0.0,0.0,0.0,0.0,0.0,0.0038521057,0.006561814,-0.70405316
119075352,nan,nan,-0.5295687,0.06775801,0.0,-0.33246115,-0.022561446,-0.013480306,0.0,0.0,0.0,0.0,0.0,0.0,-0.023472711,0.003954296,-0.70693314
119175547,nan,nan,-0.5295687,0.06775801,0.0,-0.52833796,-0.035854015,-0.023551881,0.0,0.0,0.0,0.0,0.0,0.0,-0.03513073,-0.0004956303,-0.70807624
119275525,nan,nan,-0.5295687,0.06775801,0.0,-0.76325274,-0.05179578,-0.031455934,0.0,0.0,0.0,0.0,0.0,0.0,-0.052232206,-0.0022693472,-0.70825106
119375603,nan,nan,-0.5295687,0.06775801,0.0,-0.5402837,-0.036664676,-0.03710106,0.0,0.0,0.0,0.0,0.0,0.0,-0.026618086,-0.0020791618,-0.7077461
119475613,nan,nan,-0.5295687,0.06775801,0.0,-0.46628565,-0.03164303,-0.040016353,0.0,0.0,0.0,0.0,0.0,0.0,-0.01724536,-0.003116995,-0.7070838
119575884,nan,nan,-0.5295687,0.06775801,0.0,-0.45899558,-0.031148313,-0.04173079,0.0,0.0,0.0,0.0,0.0,0.0,-0.008874667,-0.0011167638,-0.7079282
119675912,nan,nan,-0.5295687,0.06775801,0.0,-0.4351914,-0.029532915,-0.041990012,0.0,0.0,0.0,0.0,0.0,0.0,-0.0052481415,-0.0028972132,-0.7046273
119775987,nan,nan,-0.5295687,0.06775801,0.0,-0.22243279,-0.015094712,-0.04026273,0.0,0.0,0.0,0.0,0.0,0.0,0.018105807,0.0006026607,-0.7002051
119876111,nan,nan,-0.5295687,0.06775801,0.0,-0.16121018,0.061937433,-0.036336362,0.0,0.0,0.0,0.0,0.0,0.0,0.021740263,0.0078428835,-0.6954212
119976250,nan,nan,-0.5295687,0.06775801,0.0,-0.12321471,-0.008361584,-0.029898763,0.0,0.0,0.0,0.0,0.0,0.0,0.023700915,-0.0026898365,-0.6920141
120076320,nan,nan,-0.5295687,0.06775801,0.0,-0.16170429,-0.01097356,-0.023409963,0.0,0.0,0.0,0.0,0.0,0.0,0.02062139,-0.0022577103,-0.68915504
120176439,nan,nan,-0.5295687,0.06775801,0.0,-0.13315846,-0.009036386,-0.016737282,0.0,0.0,0.0,0.0,0.0,0.0,0.022320755,-0.0023820708,-0.68931246
120276996,nan,nan,-0.5295687,0.06775801,0.0,-0.13516535,-0.009172577,-0.012094617,0.0,0.0,0.0,0.0,0.0,0.0,0.017231612,0.0026090275,-0.6904478
120396559,nan,nan,-0.5295687,0.06775801,0.0,-0.17841534,-0.012107603,-0.009897649,0.0,0.0,0.0,0.0,0.0,0.0,0.009879812,0.0013279677,-0.6944574
120496900,nan,nan,-0.5295687,0.06775801,0.0,-0.29994696,-0.02035497,-0.011173904,0.0,0.0,0.0,0.0,0.0,0.0,-0.00226314,0.003717287,-0.69612634
120597966,nan,nan,-0.5295687,0.06775801,0.0,-0.29745904,-0.020186134,-0.014490008,0.0,0.0,0.0,0.0,0.0,0.0,-0.0023107724,0.0051248884,-0.6997646
120696921,nan,nan,-0.5295687,0.06775801,0.0,-0.43872136,-0.029772464,-0.018693864,0.0,0.0,0.0,0.0,0.0,0.0,-0.013241634,0.005014153,-0.70075333
120797998,nan,nan,-0.5295687,0.06775801,0.0,-0.4879303,-0.033111878,-0.024553,0.0,0.0,0.0,0.0,0.0,0.0,-0.017012518,0.006715861,-0.70406127
120897002,nan,nan,-0.5295687,0.06775801,0.0,-0.3776883,-0.025630644,-0.030400127,0.0,0.0,0.0,0.0,0.0,0.0,-0.004678227,0.0037979106,-0.7104858
120997990,nan,nan,-0.5295687,0.06775801,0.0,-0.002870894,-0.00019482433,-0.036987185,0.0,0.0,0.0,0.0,0.0,0.0,0.029736452,0.007863733,-0.7113599
121097192,-0.315412,0.45589682,-0.5295687,0.06775801,0.0,0.009304297,0.0011657268,-0.04251486,0.0,0.0,0.0,0.0,0.0,0.0,0.029304702,0.011455398,-0.70888704
121197932,-0.315412,0.45589682,-0.5295687,0.06775801,0.0,0.028240321,0.0026933402,-0.04666832,0.0,0.0,0.0,0.0,0.0,0.0,0.027164124,0.010777965,-0.71018386
121297510,-0.315412,0.45589682,-0.5295687,0.06775801,0.0,0.04715265,0.003600803,-0.047605515,0.0,0.0,0.0,0.0,0.0,0.0,0.032766763,0.010427014,-0.7032131
121397607,-0.315412,0.45589682,-0.5295687,0.06775801,0.0,0.06759582,0.004451896,-0.04418978,0.0,0.0,0.0,0.0,0.0,0.0,0.028847545,0.008570094,-0.6969367
121497643,-0.315412,0.45589682,-0.5295687,0.06775801,0.0,0.08505539,0.0046744016,-0.03701213,0.0,0.0,0.0,0.0,0.0,0.0,0.029710442,0.011961948,-0.6883213
121617773,-0.315412,0.45589682,-0.5295687,0.06775801,0.0,0.1033494,0.0049896017,-0.02402538,0.0,0.0,0.0,0.0,0.0,0.0,0.030595288,0.010570797,-0.6838411
121717850,-0.315412,0.45589682,-0.5295687,0.06775801,0.0,0.11384434,0.006454673,-0.011239171,0.0,0.0,0.0,0.0,0.0,0.0,0.028304776,0.013734439,-0.677493
121817903,-0.315412,0.45589682,-0.5295687,0.06775801,0.0,0.118463986,0.008527495,-0.000121712685,0.0,0.0,0.0,0.0,0.0,0.0,0.026630145,0.016669683,-0.6778211
121917969,-0.315412,0.45589682,-0.5295687,0.06775801,0.0,0.117807545,0.011610694,0.009593427,0.0,0.0,0.0,0.0,0.0,0.0,0.025001507,0.021503806,-0.678907
122018175,-0.315412,0.45589682,-0.5295687,0.06775801,0.0,0.11274812,0.016060099,0.015131772,0.0,0.0,0.0,0.0,0.0,0.0,0.017954722,0.018344924,-0.6821137
122118309,-0.315412,0.45589682,-0.5295687,0.06775801,0.0,0.104302764,0.022820743,0.017063498,0.0,0.0,0.0,0.0,0.0,0.0,0.014920649,0.016910503,-0.68530893
122218399,-0.315412,0.45589682,-0.5295687,0.06775801,0.0,0.094859056,0.029970536,0.015809655,0.0,0.0,0.0,0.0,0.0,0.0,0.01264451,0.02417136,-0.68875885
122318514,-0.315412,0.45589682,-0.5295687,0.06775801,0.0,0.08426556,0.038612526,0.012379527,0.0,0.0,0.0,0.0,0.0,0.0,0.014495627,0.021913756,-0.69171435
122418540,-0.315412,0.45589682,-0.5295687,0.06775801,0.0,0.07457449,0.047261793,0.00784111,0.0,0.0,0.0,0.0,0.0,0.0,0.00962867,0.025755538,-0.6948892
122518583,-0.315412,0.45589682,-0.5295687,0.06775801,0.0,0.064467914,0.057045244,0.0026513934,0.0,0.0,0.0,0.0,0.0,0.0,0.0084770145,0.024254099,-0.69542146
122618706,-0.315412,0.45589682,-0.5295687,0.06775801,0.0,0.055649057,0.0652963,-0.0012774467,0.0,0.0,0.0,0.0,0.0,0.0,0.009426682,0.0257983,-0.6938112
122718851,nan,nan,-0.5295687,0.06775801,0.0,-0.004936091,0.0727373,-0.0022661686,0.0,0.0,0.0,0.0,0.0,0.0,0.005581026,0.024687652,-0.69042456
122839361,nan,nan,-0.5295687,0.06775801,0.0,-0.009446308,0.139199,-0.00014269352,0.0,0.0,0.0,0.0,0.0,0.0,0.0043396344,0.0305105,-0.6887027
122940387,nan,nan,-0.5295687,0.06775801,0.0,-0.0091777565,0.13524166,0.0033299923,0.0,0.0,0.0,0.0,0.0,0.0,0.0049912063,0.029166035,-0.68835783
123039269,nan,nan,-0.5295687,0.06775801,0.0,-0.08664847,0.12993076,0.0070661306,0.0,0.0,0.0,0.0,0.0,0.0,0.0012536813,0.023026407,-0.68636847
123139638,nan,nan,-0.5295687,0.06775801,0.0,-0.22285514,0.12068967,0.011132717,0.0,0.0,0.0,0.0,0.0,0.0,-0.008432515,0.021405539,-0.68641007
123239452,nan,nan,-0.5295687,0.06775801,0.0,-0.0737918,0.07414161,0.014580607,0.0,0.0,0.0,0.0,0.0,0.0,0.0049124043,0.019374011,-0.6869706
123340400,nan,nan,-0.5295687,0.06775801,0.0,-0.012750856,0.08067454,0.017103434,0.0,0.0,0.0,0.0,0.0,0.0,0.012811634,0.015934525,-0.686659
123439590,nan,nan,-0.5295687,0.06775801,0.0,-0.005504938,0.08111971,0.017687142,0.0,0.0,0.0,0.0,0.0,0.0,0.014437416,0.015313346,-0.6903751
123540423,nan,nan,-0.5295687,0.06775801,0.0,-0.007418413,0.10931632,0.015984833,0.0,0.0,0.0,0.0,0.0,0.0,0.013326033,0.021428237,-0.69157475
123639769,nan,nan,-0.5295687,0.06775801,0.0,-0.015480504,0.22811776,0.012479663,0.0,0.0,0.0,0.0,0.0,0.0,0.01171237,0.026558096,-0.69847673
123740045,nan,nan,-0.5295687,0.06775801,0.0,-0.017047184,0.24342401,0.007150829,0.0,0.0,0.0,0.0,0.0,0.0,0.011419567,0.030752987,-0.700387
123840130,nan,nan,-0.5295687,0.06775801,0.0,-0.016528558,0.24334891,-0.0010955334,0.0,0.0,0.0,0.0,0.0,0.0,0.00646603,0.029691707,-0.70647836
123940133,nan,nan,-0.5295687,0.06775801,0.0,-0.01651388,0.24334292,-0.010602295,0.0,0.0,0.0,0.0,0.0,0.0,0.008627127,0.030695898,-0.71190524
124040176,nan,nan,-0.5295687,0.06775801,0.0,-0.018427547,0.27154484,-0.02038157,0.0,0.0,0.0,0.0,0.0,0.0,0.0051726913,0.03260923,-0.71227914
124140283,nan,nan,-0.5295687,0.06775801,0.0,-0.018336426,0.27020207,-0.02904272,0.0,0.0,0.0,0.0,0.0,0.0,0.0070358543,0.032871656,-0.7141996
124260448,nan,nan,-0.5295687,0.06775801,0.0,-0.01834849,0.27037984,-0.037828237,0.0,0.0,0.0,0.0,0.0,0.0,0.006244088,0.031827867,-0.7131305
124360465,nan,nan,-0.5295687,0.06775801,0.0,-0.03792647,0.28027436,-0.04293269,0.0,0.0,0.0,0.0,0.0,0.0,0.00095859077,0.032404993,-0.7136013
124460748,nan,nan,-0.5295687,0.06775801,0.0,-0.048922677,0.32368743,-0.045407504,0.0,0.0,0.0,0.0,0.0,0.0,0.003573603,0.034635443,-0.7116999
124560868,nan,nan,-0.5295687,0.06775801,0.0,-0.018707864,0.27567554,-0.046383232,0.0,0.0,0.0,0.0,0.0,0.0,0.0036193142,0.024894612,-0.7101896
124660926,nan,nan,-0.5295687,0.06775801,0.0,0.0044080075,0.02514182,-0.046432227,0.0,0.0,0.0,0.0,0.0,0.0,0.011673639,0.007987141,-0.7083359
124760887,-0.3339655,0.48580274,-0.5295687,0.06775801,0.0,-0.00048827232,-0.010374045,-0.04571742,0.0,0.0,0.0,0.0,0.0,0.0,0.007962547,0.005490357,-0.7084403
124861339,-0.3339655,0.48580274,-0.5295687,0.06775801,0.0,7.8651305e-05,-0.02103396,-0.045856774,0.0,0.0,0.0,0.0,0.0,0.0,0.013300292,0.0063644303,-0.7102748
124961220,nan,nan,-0.5295687,0.06775801,0.0,-0.043670397,-0.002963556,-0.046804905,0.0,0.0,0.0,0.0,0.0,0.0,0.009512584,0.010886382,-0.70938224
125061625,nan,nan,-0.5295687,0.06775801,0.0,-0.05312662,-0.003605273,-0.04815647,0.0,0.0,0.0,0.0,0.0,0.0,0.0066892286,0.011372216,-0.70936096
125161577,nan,nan,-0.5295687,0.06775801,0.0,-0.054067854,-0.0036691474,-0.050116926,0.0,0.0,0.0,0.0,0.0,0.0,0.005040497,0.0148087125,-0.70890296
125261652,nan,nan,-0.5295687,0.06775801,0.0,-0.054076776,-0.0036697527,-0.051718235,0.0,0.0,0.0,0.0,0.0,0.0,0.008571674,0.018968983,-0.70883584
125361686,nan,nan,-0.5295687,0.06775801,0.0,-0.07289596,-0.004946858,-0.05389732,0.0,0.0,0.0,0.0,0.0,0.0,0.006983229,0.017547984,-0.7117182
125461735,nan,nan,-0.5295687,0.06775801,0.0,-0.08090917,-0.00549065,-0.056191653,0.0,0.0,0.0,0.0,0.0,0.0,0.0066420375,0.01992466,-0.7113751
125562025,nan,nan,-0.5295687,0.06775801,0.0,-0.052912533,-0.003590745,-0.058091074,0.0,0.0,0.0,0.0,0.0,0.0,0.0093241,0.020547424,-0.71036565
125663974,nan,nan,-0.5295687,0.06775801,0.0,-0.05425502,-0.0036818488,-0.058817685,0.0,0.0,0.0,0.0,0.0,0.0,0.008820724,0.022221703,-0.7073552
125782824,-0.35617623,0.4930839,-0.5295687,0.06775801,0.0,0.0,0.0,-0.05722487,0.0,0.0,0.0,0.0,0.0,0.0,0.012298838,0.02258446,-0.70468926
125881932,-0.35617623,0.4930839,-0.5295687,0.06775801,0.0,0.0034968972,0.00622005,-0.053708643,0.0,0.0,0.0,0.0,0.0,0.0,0.017004183,0.025659338,-0.6995984
125982041,-0.35617623,0.4930839,-0.5295687,0.06775801,0.0,0.0075902194,0.011136719,-0.047127157,0.0,0.0,0.0,0.0,0.0,0.0,0.017550755,0.019791106,-0.69267344
126082354,-0.35617623,0.4930839,-0.5295687,0.06775801,0.0,0.011163701,0.013453281,-0.0391452,0.0,0.0,0.0,0.0,0.0,0.0,0.01630831,0.020117797,-0.6912956
126182465,-0.35617623,0.4930839,-0.5295687,0.06775801,0.0,0.014575464,0.01494859,-0.030550182,0.0,0.0,0.0,0.0,0.0,0.0,0.01402573,0.018754229,-0.69021827
126282537,-0.35617623,0.4930839,-0.5295687,0.06775801,0.0,0.015932864,0.015556906,-0.024790168,0.0,0.0,0.0,0.0,0.0,0.0,0.011081931,0.018563144,-0.6934588
126382579,nan,nan,-0.5295687,0.06775801,0.0,-0.057250384,-0.0038851197,-0.020350277,0.0,0.0,0.0,0.0,0.0,0.0,0.0004225457,0.01748638,-0.693386
126482606,nan,nan,-0.5295687,0.06775801,0.0,-0.08286146,-0.0056231357,-0.017640293,0.0,0.0,0.0,0.0,0.0,0.0,-0.0014848066,0.018754527,-0.69312054
126582690,nan,nan,-0.5295687,0.06775801,0.0,-0.13836654,-0.009389816,-0.015781224,0.0,0.0,0.0,0.0,0.0,0.0,-0.0033179782,0.019166471,-0.6910999
126682746,nan,nan,-0.5295687,0.06775801,0.0,-0.22474204,-0.015251421,-0.013378859,0.0,0.0,0.0,0.0,0.0,0.0,-0.00938596,0.01665625,-0.68965536
126802941,nan,nan,-0.5295687,0.06775801,0.0,-0.23192884,-0.015739132,-0.010543704,0.0,0.0,0.0,0.0,0.0,0.0,-0.008066818,0.009507744,-0.6912221
126903002,nan,nan,-0.5295687,0.06775801,0.0,-0.106345646,-0.0072168177,-0.008793235,0.0,0.0,0.0,0.0,0.0,0.0,0.0031555458,0.012627721,-0.69304466
127003144,nan,nan,-0.5295687,0.06775801,0.0,-0.10825144,-0.007346148,-0.008220911,0.0,0.0,0.0,0.0,0.0,0.0,0.008165377,0.015915109,-0.6952027
127103317,nan,nan,-0.5295687,0.06775801,0.0,-0.061132394,-0.00414856,-0.009587288,0.0,0.0,0.0,0.0,0.0,0.0,0.011345362,0.007923296,-0.70096314
127203560,-0.3717186,0.50568897,-0.5295687,0.06775801,0.0,0.0,0.0,-0.013021469,0.0,0.0,0.0,0.0,0.0,0.0,0.02066942,0.011215058,-0.7030931
127303523,nan,nan,-0.5295687,0.06775801,0.0,-0.019861773,0.013030909,-0.017265499,0.0,0.0,0.0,0.0,0.0,0.0,0.015061967,0.0082420735,-0.70722765
127403552,-0.3869326,0.5138384,-0.5295687,0.06775801,0.0,0.012209554,-0.005348289,-0.022004128,0.0,0.0,0.0,0.0,0.0,0.0,0.022674788,0.010872012,-0.70720464
127503609,-0.3869326,0.5138384,-0.5295687,0.06775801,0.0,0.02873352,-0.0124052195,-0.02763325,0.0,0.0,0.0,0.0,0.0,0.0,0.019328723,0.010567087,-0.7095783
127603640,-0.3869326,0.5138384,-0.5295687,0.06775801,0.0,0.042813886,-0.018124795,-0.031725913,0.0,0.0,0.0,0.0,0.0,0.0,0.025389537,0.008207017,-0.7082877
127704017,-0.3869326,0.5138384,-0.5295687,0.06775801,0.0,0.055367604,-0.02308396,-0.033929884,0.0,0.0,0.0,0.0,0.0,0.0,0.023749288,0.011134736,-0.7048098
127823996,-0.3869326,0.5138384,-0.5295687,0.06775801,0.0,0.06439549,-0.026473781,-0.032706082,0.0,0.0,0.0,0.0,0.0,0.0,0.018742952,0.012102757,-0.7008138
127924569,-0.3869326,0.5138384,-0.5295687,0.06775801,0.0,0.06744392,-0.027253669,-0.028228462,0.0,0.0,0.0,0.0,0.0,0.0,0.014570503,0.01369358,-0.69703287
128024174,-0.3869326,0.5138384,-0.5295687,0.06775801,0.0,0.06604096,-0.026231995,-0.022209644,0.0,0.0,0.0,0.0,0.0,0.0,0.017347222,0.01372812,-0.6942611
128124354,-0.3869326,0.5138384,-0.5295687,0.06775801,0.0,0.06104678,-0.023087075,-0.01435262,0.0,0.0,0.0,0.0,0.0,0.0,0.017620936,0.018424863,-0.6870877
128224275,-0.3869326,0.5138384,-0.5295687,0.06775801,0.0,0.053492147,-0.016910598,-0.0052484274,0.0,0.0,0.0,0.0,0.0,0.0,0.0152071575,0.020984342,-0.6888592
128324584,-0.3869326,0.5138384,-0.5295687,0.06775801,0.0,0.044614825,-0.009454691,0.0012927651,0.0,0.0,0.0,0.0,0.0,0.0,0.008654713,0.017167464,-0.6914356
128424554,-0.3869326,0.5138384,-0.5295687,0.06775801,0.0,0.033100195,-0.0019979924,0.0047103763,0.0,0.0,0.0,0.0,0.0,0.0,0.008795649,0.019691894,-0.69327307
128524907,-0.3869326,0.5138384,-0.5295687,0.06775801,0.0,0.021299725,0.0037216395,0.0053109527,0.0,0.0,0.0,0.0,0.0,0.0,0.0024667168,0.021618588,-0.69432133
128624966,-0.3869326,0.5138384,-0.5295687,0.06775801,0.0,0.008470361,0.008857814,0.004849553,0.0,0.0,0.0,0.0,0.0,0.0,0.0044464637,0.016396139,-0.69436777
128725028,-0.3869326,0.5138384,-0.5295687,0.06775801,0.0,-0.002291137,0.01246309,0.0034474134,0.0,0.0,0.0,0.0,0.0,0.0,0.004530629,0.021118658,-0.6941164
128824980,-0.3869326,0.5138384,-0.5295687,0.06775801,0.0,-0.011605881,0.0143710775,0.0025165677,0.0,0.0,0.0,0.0,0.0,0.0,0.0033347835,0.0211743,-0.6952014
128925121,-0.3869326,0.5138384,-0.5295687,0.06775801,0.0,-0.01800427,0.014498482,0.001737535,0.0,0.0,0.0,0.0,0.0,0.0,0.0052433414,0.01788576,-0.6957038
129045172,-0.3869326,0.5138384,-0.5295687,0.06775801,0.0,-0.022911143,0.0138344765,0.002316773,0.0,0.0,0.0,0.0,0.0,0.0,0.006321486,0.019588938,-0.6923814
129145186,-0.3869326,0.5138384,-0.5295687,0.06775801,0.0,-0.023441572,0.013644983,0.004534483,0.0,0.0,0.0,0.0,0.0,0.0,0.0074419323,0.022125784,-0.69080245
129245528,-0.3869326,0.5138384,-0.5295687,0.06775801,0.0,-0.021134438,0.01426318,0.007649541,0.0,0.0,0.0,0.0,0.0,0.0,0.01384065,0.021968301,-0.6907984
129345612,-0.3869326,0.5138384,-0.5295687,0.06775801,0.0,-0.015740002,0.015831137,0.01131326,0.0,0.0,0.0,0.0,0.0,0.0,0.016147666,0.022799218,-0.6899019
129446214,-0.3869326,0.5138384,-0.5295687,0.06775801,0.0,-0.009089209,0.019480977,0.014206886,0.0,0.0,0.0,0.0,0.0,0.0,0.0128562935,0.025877371,-0.69187844
129545916,-0.3869326,0.5138384,-0.5295687,0.06775801,0.0,-0.00064631103,0.025048856,0.015711904,0.0,0.0,0.0,0.0,0.0,0.0,0.014032425,0.022068677,-0.69524777
129646437,-0.3869326,0.5138384,-0.5295687,0.06775801,0.0,0.007403104,0.031210724,0.015078425,0.0,0.0,0.0,0.0,0.0,0.0,0.017282313,0.025811056,-0.69347024
129745936,-0.3869326,0.5138384,-0.5295687,0.06775801,0.0,0.016360264,0.03873942,0.01391238,0.0,0.0,0.0,0.0,0.0,0.0,0.0146589065,0.023806177,-0.69608915
129846185,-0.3869326,0.5138384,-0.5295687,0.06775801,0.0,0.024693849,0.04501049,0.0124159455,0.0,0.0,0.0,0.0,0.0,0.0,0.02275762,0.024843313,-0.6927677
