timestamp,ref_timestamp,ref_lat,ref_lon,x,y,z,delta_xy[0],delta_xy[1],delta_z,vx,vy,vz,z_deriv,delta_vxy[0],delta_vxy[1],delta_vz,ax,ay,az,yaw,ref_alt,dist_bottom,dist_bottom_rate,eph,epv,evh,evv,vxy_max,vz_max,hagl_min,hagl_max,xy_valid,z_valid,v_xy_valid,v_z_valid,xy_reset_counter,z_reset_counter,vxy_reset_counter,vz_reset_counter,xy_global,z_global,dist_bottom_valid
24684870,0,0.0,0.0,0.29968497,0.42319435,-0.032667417,0.29108062,0.42253163,-0.25529203,0.0011502922,0.0016437366,0.017368345,0.0064539993,-0.0016956085,0.0025202872,-0.00033973085,-0.0107439775,0.016336247,0.031145226,-3.0531204,0.0,0.1,-0.017368345,0.0057504475,0.0039327308,0.026937127,0.017736964,inf,inf,inf,inf,1,1,1,1,2,1,2,3,0,0,0
24788870,0,0.0,0.0,0.29971108,0.42341447,-0.032770738,0.29108062,0.42253163,-0.25529203,0.0011259055,0.0022162576,0.016649636,0.0056222444,-0.0016956085,0.0025202872,-0.00033973085,-0.0076300185,0.0035708242,0.041614674,-3.053097,0.0,0.1,-0.016649636,0.0052931276,0.0036308323,0.026273252,0.017345408,inf,inf,inf,inf,1,1,1,1,2,1,2,3,0,0,0
24884876,0,0.0,0.0,0.2996916,0.42365065,-0.032898854,0.29108062,0.42253163,-0.25529203,0.0012915983,0.0025737917,0.016965015,0.0058465768,-0.0016956085,0.0025202872,-0.00033973085,0.015806925,0.004820646,0.049319223,-3.0530918,0.0,0.1,-0.016965015,0.0051979427,0.003565697,0.02616898,0.01728405,inf,inf,inf,inf,1,1,1,1,2,1,2,3,0,0,0
24988870,0,0.0,0.0,0.29974893,0.423897,-0.032979332,0.29108062,0.42253163,-0.25529203,0.0019905467,0.00253624,0.017023845,0.0058788173,-0.0016956085,0.0025202872,-0.00033973085,-0.03209413,0.11532231,0.053362682,-3.052714,0.0,0.1,-0.017023845,0.004994864,0.0034310601,0.025743552,0.017035482,inf,inf,inf,inf,1,1,1,1,2,1,2,3,0,0,0
25092099,0,0.0,0.0,0.29978815,0.42409575,-0.033000175,0.29108062,0.42253163,-0.25529203,0.0003219989,0.004305525,0.016962398,0.0058402745,-0.0016956085,0.0025202872,-0.00033973085,0.28116283,0.24999702,-0.025591582,-3.0530744,0.0,0.1,-0.016962398,0.005227508,0.0035778433,0.026442409,0.017446343,inf,inf,inf,inf,1,1,1,1,2,1,2,3,0,0,0
25188118,0,0.0,0.0,0.29978192,0.4242306,-0.0329814,0.29108062,0.42253163,-0.25529203,-0.0001521169,0.0052996743,0.017065179,0.0059772558,-0.0016956085,0.0025202872,-0.00033973085,-0.054942705,0.40987825,0.021395935,-3.0529637,0.0,0.1,-0.017065179,0.0052415477,0.003587832,0.02631086,0.01736297,inf,inf,inf,inf,1,1,1,1,2,1,2,3,0,0,0
25292078,0,0.0,0.0,0.2998383,0.42437893,-0.032905627,0.29108062,0.42253163,-0.25529203,0.001801512,0.002913201,0.017409597,0.0063450127,-0.0016956085,0.0025202872,-0.00033973085,0.21280979,0.347975,0.04686866,-3.0527275,0.0,0.1,-0.017409597,0.0053631617,0.0036686694,0.026496172,0.017478433,inf,inf,inf,inf,1,1,1,1,2,1,2,3,0,0,0
25396070,0,0.0,0.0,0.2999205,0.42450485,-0.03286323,0.29108062,0.42253163,-0.25529203,0.0013331585,0.002431359,0.017638048,0.0065620723,-0.0016956085,0.0025202872,-0.00033973085,0.007880355,-0.1832781,0.010024088,-3.0524597,0.0,0.1,-0.017638048,0.005471173,0.0037398841,0.026731817,0.017623542,inf,inf,inf,inf,1,1,1,1,2,1,2,3,0,0,0
25500075,0,0.0,0.0,0.299969,0.42454675,-0.03285801,0.29108062,0.42253163,-0.25529203,0.0011092873,0.0044487324,0.01727724,0.0061310316,-0.0016956085,0.0025202872,-0.00033973085,-0.34505937,0.7133103,-0.053512692,-3.052062,0.0,0.1,-0.01727724,0.005178703,0.0035525945,0.025970038,0.017178865,inf,inf,inf,inf,1,1,1,1,2,1,2,3,0,0,0
25604084,0,0.0,0.0,0.30001575,0.4245838,-0.032917622,0.29108062,0.42253163,-0.25529203,0.0017420547,0.005584524,0.017033862,0.005810247,-0.0016956085,0.0025202872,-0.00033973085,-0.7474119,0.5942591,0.20380019,-3.0540147,0.0,0.1,-0.017033862,0.0052926405,0.0036252763,0.026320616,0.017383924,inf,inf,inf,inf,1,1,1,1,2,1,2,3,0,0,0
25700076,0,0.0,0.0,0.30006722,0.42429265,-0.032928873,0.29108062,0.42253163,-0.25529203,0.0030791648,-0.002558354,0.019835413,0.008536377,-0.0016956085,0.0025202872,-0.00033973085,0.15815279,-0.66143787,0.1558761,-3.053155,0.0,0.1,-0.019835413,0.0053139045,0.0036371872,0.026458656,0.017464893,inf,inf,inf,inf,1,1,1,1,2,1,2,3,0,0,0
25804081,0,0.0,0.0,0.3000606,0.4241439,-0.03290203,0.29108062,0.42253163,-0.25529203,-0.0022227182,-0.0015301561,0.019269548,0.007926802,-0.0016956085,0.0025202872,-0.00033973085,-1.4068179,-0.27247828,-0.06798073,-3.0531478,0.0,0.1,-0.019269548,0.005145841,0.0035284054,0.026023423,0.017211162,inf,inf,inf,inf,1,1,1,1,2,1,2,3,0,0,0
25908070,0,0.0,0.0,0.3000074,0.4238152,-0.03275926,0.29108062,0.42253163,-0.25529203,0.0052826237,0.00071217585,0.020630896,0.009306492,-0.0016956085,0.0025202872,-0.00033973085,1.2844915,0.016258286,0.04072574,-3.0530229,0.0,0.1,-0.020630896,0.0052976008,0.0036272393,0.0263406,0.017397156,inf,inf,inf,inf,1,1,1,1,2,1,2,3,0,0,0
26004075,0,0.0,0.0,0.29993036,0.42351708,-0.0326073,0.29108062,0.42253163,-0.25529203,0.0035919386,-0.0021126964,0.019638177,0.008311971,-0.0016956085,0.0025202872,-0.00033973085,0.37706736,-1.2113149,-0.23386912,-3.0532794,0.0,0.1,-0.019638177,0.005244195,0.0035947026,0.026111087,0.017266063,inf,inf,inf,inf,1,1,1,1,2,1,2,3,0,0,0
26108076,0,0.0,0.0,0.2998204,0.42329895,-0.032462414,0.29108062,0.42253163,-0.25529203,-0.0010896713,-0.0015602239,0.020523034,0.009146051,-0.0016956085,0.0025202872,-0.00033973085,-1.5708919,-1.1937301,-0.41031778,-3.053874,0.0,0.1,-0.020523034,0.005302508,0.0036334684,0.02623642,0.017338675,inf,inf,inf,inf,1,1,1,1,2,1,2,3,0,0,0
26212070,0,0.0,0.0,0.2997113,0.42304662,-0.032312896,0.29108062,0.42253163,-0.25529203,-0.000991686,0.00062816247,0.018318074,0.006853699,-0.0016956085,0.0025202872,-0.00033973085,-0.24583335,0.68948686,-0.47613403,-3.0537937,0.0,0.1,-0.018318074,0.005371979,0.0036783472,0.026429292,0.017451014,inf,inf,inf,inf,1,1,1,1,2,1,2,3,0,0,0
26308070,0,0.0,0.0,0.29967427,0.42292982,-0.032242194,0.29108062,0.42253163,-0.25529203,6.2967556e-05,-0.0017914573,0.020864945,0.009311034,-0.0016956085,0.0025202872,-0.00033973085,-1.0819266,-1.4285367,-0.36258826,-3.0536594,0.0,0.1,-0.020864945,0.0052575367,0.0036051334,0.02613347,0.017279347,inf,inf,inf,inf,1,1,1,1,2,1,2,3,0,0,0
26411290,0,0.0,0.0,0.2997252,0.42290324,-0.032216717,0.29108062,0.42253163,-0.25529203,0.0009492664,-0.0013487369,0.020042032,0.008363627,-0.0016956085,0.0025202872,-0.00033973085,-0.27950478,-0.7431565,0.1295411,-3.0536733,0.0,0.1,-0.020042032,0.005358818,0.0036686847,0.026490262,0.017486421,inf,inf,inf,inf,1,1,1,1,2,1,2,3,0,0,0
26515283,0,0.0,0.0,0.29982272,0.42296967,-0.032341056,0.29108062,0.42253163,-0.25529203,0.001999287,-0.0008780842,0.019602437,0.0077860416,-0.0016956085,0.0025202872,-0.00033973085,0.39105085,-0.37370878,0.14113165,-3.053532,0.0,0.1,-0.019602437,0.0051442417,0.0035287817,0.026011616,0.017208692,inf,inf,inf,inf,1,1,1,1,2,1,2,3,0,0,0
26619311,0,0.0,0.0,0.2998593,0.42300326,-0.032444894,0.29108062,0.42253163,-0.25529203,0.0030028846,-0.004233386,0.019522224,0.0075816475,-0.0016956085,0.0025202872,-0.00033973085,1.3975762,-0.9022114,-0.25816652,-3.0534532,0.0,0.1,-0.019522224,0.0049734954,0.003417228,0.025580924,0.016952038,inf,inf,inf,inf,1,1,1,1,2,1,2,3,0,0,0
26715276,0,0.0,0.0,0.29988074,0.42310563,-0.032503657,0.29108062,0.42253163,-0.25529203,0.0023861926,-0.0009015405,0.019715166,0.007723422,-0.0016956085,0.0025202872,-0.00033973085,1.1243123,-0.58461404,0.18950516,-3.0535126,0.0,0.1,-0.019715166,0.0053548855,0.0036632705,0.026535116,0.017515136,inf,inf,inf,inf,1,1,1,1,2,1,2,3,0,0,0
26819270,0,0.0,0.0,0.29986468,0.4232177,-0.03251761,0.29108062,0.42253163,-0.25529203,0.0017264677,0.0055635567,0.01969665,0.007718434,-0.0016956085,0.0025202872,-0.00033973085,0.47603992,1.6997957,0.08754206,-3.0539613,0.0,0.1,-0.01969665,0.0050566914,0.003473983,0.025623709,0.016983712,inf,inf,inf,inf,1,1,1,1,2,1,2,3,0,0,0
26923286,0,0.0,0.0,0.29983857,0.42324027,-0.0325522,0.29108062,0.42253163,-0.25529203,0.0040665017,0.0024626497,0.017933242,0.005956743,-0.0016956085,0.0025202872,-0.00033973085,0.8461278,0.17743114,-0.121944726,-3.0540652,0.0,0.1,-0.017933242,0.005168569,0.0035462175,0.025941348,0.01717022,inf,inf,inf,inf,1,1,1,1,2,1,2,3,0,0,0
27019301,0,0.0,0.0,0.29976243,0.42319697,-0.032590237,0.29108062,0.42253163,-0.25529203,-0.002473871,-0.00077167863,0.01881429,0.006804061,-0.0016956085,0.0025202872,-0.00033973085,-0.67435503,0.12533121,-0.3180914,-3.0540683,0.0,0.1,-0.01881429,0.005138205,0.0035264562,0.025880074,0.017134096,inf,inf,inf,inf,1,1,1,1,2,1,2,3,0,0,0
27123309,0,0.0,0.0,0.29968554,0.42315632,-0.032627985,0.29108062,0.42253163,-0.25529203,0.0027615847,0.0045821676,0.018657207,0.0066297296,-0.0016956085,0.0025202872,-0.00033973085,0.6170788,1.2061594,-0.0245253,-3.054025,0.0,0.1,-0.018657207,0.0052066077,0.003571743,0.026000902,0.017205635,inf,inf,inf,inf,1,1,1,1,2,1,2,3,0,0,0
27227300,0,0.0,0.0,0.29965606,0.42310703,-0.032734178,0.29108062,0.42253163,-0.25529203,-0.0032360274,-0.00091648335,0.017189886,0.0051264567,-0.0016956085,0.0025202872,-0.00033973085,-1.6878142,-1.257995,-0.38326254,-3.0539567,0.0,0.1,-0.017189886,0.004993869,0.0034326725,0.025541283,0.016934078,inf,inf,inf,inf,1,1,1,1,2,1,2,3,0,0,0
27323313,0,0.0,0.0,0.29964066,0.4231443,-0.03288798,0.29108062,0.42253163,-0.25529203,0.0037614566,-0.001286531,0.01875651,0.0066467864,-0.0016956085,0.0025202872,-0.00033973085,1.0763435,-0.68989277,-0.030572893,-3.0539434,0.0,0.1,-0.01875651,0.0051455195,0.0035259079,0.026173513,0.01730508,inf,inf,inf,inf,1,1,1,1,2,1,2,3,0,0,0
27427278,0,0.0,0.0,0.29958838,0.4232398,-0.03297496,0.29108062,0.42253163,-0.25529203,0.0010996556,-0.00066805334,0.019558126,0.0074820984,-0.0016956085,0.0025202872,-0.00033973085,0.33994344,-0.23282476,-0.25632465,-3.0540023,0.0,0.1,-0.019558126,0.005400106,0.0036900481,0.026740149,0.01763643,inf,inf,inf,inf,1,1,1,1,2,1,2,3,0,0,0
27531269,0,0.0,0.0,0.2995486,0.42330456,-0.03293398,0.29108062,0.42253163,-0.25529203,-0.0009449961,0.0034915062,0.016746014,0.0047164266,-0.0016956085,0.0025202872,-0.00033973085,-0.44419804,0.72588605,-0.8421419,-3.0540185,0.0,0.1,-0.016746014,0.005166766,0.0035435783,0.025939854,0.017169844,inf,inf,inf,inf,1,1,1,1,2,1,2,3,0,0,0
28338470,0,0.0,0.0,0.29987723,0.4229041,-0.031941608,0.29108062,0.42253163,-0.25529203,0.0048469156,0.0013341046,0.017776862,0.0052430076,-0.0016956085,0.0025202872,-0.00033973085,0.31534886,0.71181923,0.299951,-3.054348,0.0,0.1,-0.017776862,0.0052561886,0.0036018135,0.026216157,0.017333983,inf,inf,inf,inf,1,1,1,1,2,1,2,3,0,0,0
28442470,0,0.0,0.0,0.3000414,0.42287207,-0.03237314,0.29108062,0.42253163,-0.25529203,0.0013913779,0.0037125337,0.016078955,0.0034172586,-0.0016956085,0.0025202872,-0.00033973085,-0.64114785,1.2832823,-0.0001099633,-3.0543406,0.0,0.1,-0.016078955,0.005017352,0.003448171,0.025559528,0.01694696,inf,inf,inf,inf,1,1,1,1,2,1,2,3,0,0,0
28546476,0,0.0,0.0,0.30017132,0.42291158,-0.032925073,0.29108062,0.42253163,-0.25529203,0.0006164125,0.0035976428,0.013264983,0.000507961,-0.0016956085,0.0025202872,-0.00033973085,-0.680621,-0.04862666,-0.32545748,-3.054395,0.0,0.1,-0.013264983,0.005184978,0.0035554604,0.026050214,0.017235456,inf,inf,inf,inf,1,1,1,1,2,1,2,3,0,0,0
28642470,0,0.0,0.0,0.30021906,0.42304114,-0.03340285,0.29108062,0.42253163,-0.25529203,-0.00013279427,0.0022844225,0.01563129,0.002906622,-0.0016956085,0.0025202872,-0.00033973085,-0.7350736,1.1406995,-0.35147554,-3.054474,0.0,0.1,-0.01563129,0.005149532,0.0035337363,0.025885629,0.01714047,inf,inf,inf,inf,1,1,1,1,2,1,2,3,0,0,0
28746481,0,0.0,0.0,0.30024183,0.42322478,-0.03384326,0.29108062,0.42253163,-0.25529203,0.0024072651,-0.0010132523,0.012502617,-8.880123e-05,-0.0016956085,0.0025202872,-0.00033973085,0.85444844,-1.1734719,-0.5549021,-3.054677,0.0,0.1,-0.012502617,0.0049629393,0.0034120744,0.025457999,0.016887935,inf,inf,inf,inf,1,1,1,1,2,1,2,3,0,0,0
28850486,0,0.0,0.0,0.30022985,0.42337507,-0.03423553,0.29108062,0.42253163,-0.25529203,0.0020739287,0.0020378716,0.012307829,-8.867003e-05,-0.0016956085,0.0025202872,-0.00033973085,-0.11448159,0.5435383,-0.4402621,-3.054746,0.0,0.1,-0.012307829,0.0051306793,0.0035202678,0.025904154,0.017150514,inf,inf,inf,inf,1,1,1,1,2,1,2,3,0,0,0
28954511,0,0.0,0.0,0.30023897,0.42358354,-0.034515034,0.29108062,0.42253163,-0.25529203,0.005048616,0.005273897,0.01436821,0.002201492,-0.0016956085,0.0025202872,-0.00033973085,1.3612607,1.9521525,0.09417165,-3.0549724,0.0,0.1,-0.01436821,0.0049741445,0.003418497,0.02551367,0.01692215,inf,inf,inf,inf,1,1,1,1,2,1,2,3,0,0,0
29058482,0,0.0,0.0,0.30027434,0.42373994,-0.034579564,0.29108062,0.42253163,-0.25529203,0.0034717878,0.0029575464,0.015077737,0.003176304,-0.0016956085,0.0025202872,-0.00033973085,-0.7424824,-0.9155718,-0.067076236,-3.0548327,0.0,0.1,-0.015077737,0.0051918044,0.003558031,0.02612973,0.017285326,inf,inf,inf,inf,1,1,1,1,2,1,2,3,0,0,0
29154477,0,0.0,0.0,0.3000627,0.42358273,-0.03452284,0.29108062,0.42253163,-0.25529203,0.0019219349,0.0026819946,0.014118207,0.0024838117,-0.0016956085,0.0025202872,-0.00033973085,0.35827965,0.8445727,0.010841346,-3.054833,0.0,0.1,-0.014118207,0.0051924074,0.0035601126,0.026034106,0.017230053,inf,inf,inf,inf,1,1,1,1,2,1,2,3,0,0,0
29257691,0,0.0,0.0,0.29981473,0.42346108,-0.034362912,0.29108062,0.42253163,-0.25529203,-0.0008315164,0.0009526069,0.016726425,0.0053203087,-0.0016956085,0.0025202872,-0.00033973085,-0.1945585,-0.6256437,0.24641761,-3.0547347,0.0,0.1,-0.016726425,0.005024092,0.003451332,0.025604859,0.01697751,inf,inf,inf,inf,1,1,1,1,2,1,2,3,0,0,0
29361670,0,0.0,0.0,0.29960763,0.42350966,-0.034141194,0.29108062,0.42253163,-0.25529203,0.0026729393,0.004880908,0.019046504,0.0078101708,-0.0016956085,0.0025202872,-0.00033973085,1.1511487,0.41875276,0.59696823,-3.0548105,0.0,0.1,-0.019046504,0.004922527,0.0033837813,0.025403114,0.016855383,inf,inf,inf,inf,1,1,1,1,2,1,2,3,0,0,0
29465669,0,0.0,0.0,0.29951805,0.42356458,-0.033901956,0.29108062,0.42253163,-0.25529203,0.003552535,0.00095292326,0.017529143,0.006392457,-0.0016956085,0.0025202872,-0.00033973085,-0.18648934,-1.8605821,-0.45303234,-3.0548382,0.0,0.1,-0.017529143,0.00495929,0.0034040094,0.025680263,0.017020088,inf,inf,inf,inf,1,1,1,1,2,1,2,3,0,0,0
29569681,0,0.0,0.0,0.2995993,0.42357776,-0.0336827,0.29108062,0.42253163,-0.25529203,0.0022552721,-0.0030196523,0.017245902,0.006184328,-0.0016956085,0.0025202872,-0.00033973085,-0.7707938,-2.3911686,-0.21863623,-3.0548599,0.0,0.1,-0.017245902,0.0050046532,0.003432916,0.025761345,0.017068828,inf,inf,inf,inf,1,1,1,1,2,1,2,3,0,0,0
29665670,0,0.0,0.0,0.29971382,0.42366323,-0.033457547,0.29108062,0.42253163,-0.25529203,0.0004323293,0.005984278,0.018113,0.0071218866,-0.0016956085,0.0025202872,-0.00033973085,-0.041272838,1.9378247,-0.02907689,-3.0551937,0.0,0.1,-0.018113,0.0053939656,0.003687756,0.026545312,0.017532509,inf,inf,inf,inf,1,1,1,1,2,1,2,3,0,0,0
29769679,0,0.0,0.0,0.29994532,0.4237421,-0.03334504,0.29108062,0.42253163,-0.25529203,0.0038823532,0.008306065,0.018517883,0.0075171962,-0.0016956085,0.0025202872,-0.00033973085,0.66408366,2.1749682,0.28917772,-3.0552754,0.0,0.1,-0.018517883,0.005161672,0.003541268,0.025845265,0.017123725,inf,inf,inf,inf,1,1,1,1,2,1,2,3,0,0,0
29873670,0,0.0,0.0,0.30025893,0.42379528,-0.03324107,0.29108062,0.42253163,-0.25529203,0.007938102,0.0070523303,0.020003255,0.008949901,-0.0016956085,0.0025202872,-0.00033973085,1.2987318,1.5659,0.3867102,-3.0551372,0.0,0.1,-0.020003255,0.005336403,0.0036535778,0.026360262,0.017425658,inf,inf,inf,inf,1,1,1,1,2,1,2,3,0,0,0
29969669,0,0.0,0.0,0.30057758,0.42390716,-0.03316613,0.29108062,0.42253163,-0.25529203,0.0033254933,-0.0019457522,0.017893888,0.0068069054,-0.0016956085,0.0025202872,-0.00033973085,-0.6928497,-2.098934,0.20254652,-3.0549154,0.0,0.1,-0.017893888,0.0053115757,0.003638711,0.026259951,0.017366512,inf,inf,inf,inf,1,1,1,1,2,1,2,3,0,0,0
30073680,0,0.0,0.0,0.3009171,0.423971,-0.03303495,0.29108062,0.42253163,-0.25529203,0.0055882945,-0.00030650277,0.019161018,0.008052443,-0.0016956085,0.0025202872,-0.00033973085,0.7912917,-0.99940753,0.38681468,-3.055067,0.0,0.1,-0.019161018,0.005402639,0.003698238,0.026472447,0.017492121,inf,inf,inf,inf,1,1,1,1,2,1,2,3,0,0,0
30177691,0,0.0,0.0,0.3012336,0.42399132,-0.032896385,0.29108062,0.42253163,-0.25529203,0.009950331,0.0064784964,0.021589138,0.010434957,-0.0016956085,0.0025202872,-0.00033973085,1.2419612,1.5350839,0.4711792,-3.0551896,0.0,0.1,-0.021589138,0.0051175663,0.0035150445,0.025720624,0.017052012,inf,inf,inf,inf,1,1,1,1,2,1,2,3,0,0,0
30273704,0,0.0,0.0,0.30148545,0.42399845,-0.032785505,0.29108062,0.42253163,-0.25529203,0.0067704627,0.0055100173,0.02075528,0.0095494,-0.0016956085,0.0025202872,-0.00033973085,0.33250067,1.799021,0.654708,-3.0552878,0.0,0.1,-0.02075528,0.005422892,0.003711788,0.026536388,0.017528495,inf,inf,inf,inf,1,1,1,1,2,1,2,3,0,0,0
30377671,0,0.0,0.0,0.30167753,0.4240065,-0.032665055,0.29108062,0.42253163,-0.25529203,0.0026923397,0.0011983422,0.019307,0.008039604,-0.0016956085,0.0025202872,-0.00033973085,-1.9667705,-0.9901117,-0.27421546,-3.05531,0.0,0.1,-0.019307,0.0054970896,0.0037597793,0.026712397,0.017633095,inf,inf,inf,inf,1,1,1,1,2,1,2,3,0,0,0
30481670,0,0.0,0.0,0.3017258,0.42398635,-0.032537226,0.29108062,0.42253163,-0.25529203,0.0082728,0.009070289,0.01947809,0.0081209205,-0.0016956085,0.0025202872,-0.00033973085,1.1252538,2.5541077,0.497026,-3.0552871,0.0,0.1,-0.01947809,0.005163184,0.003545549,0.025821364,0.01711007,inf,inf,inf,inf,1,1,1,1,2,1,2,3,0,0,0
30580880,0,0.0,0.0,0.30167973,0.42391908,-0.032314304,0.29108062,0.42253163,-0.25529203,0.0068142926,0.0029936286,0.020382062,0.008931966,-0.0016956085,0.0025202872,-0.00033973085,1.1313099,1.3669412,-0.15384395,-3.0554054,0.0,0.1,-0.020382062,0.005112229,0.003511448,0.025763972,0.017075375,inf,inf,inf,inf,1,1,1,1,2,1,2,3,0,0,0
30684919,0,0.0,0.0,0.30148274,0.4236967,-0.032249875,0.29108062,0.42253163,-0.25529203,0.005837268,0.00238565,0.01982061,0.008229272,-0.0016956085,0.0025202872,-0.00033973085,1.0565323,0.48918766,-0.06308957,-3.0555542,0.0,0.1,-0.01982061,0.0049982863,0.0034342632,0.02563425,0.016998606,inf,inf,inf,inf,1,1,1,1,2,1,2,3,0,0,0
30788901,0,0.0,0.0,0.30118963,0.42345476,-0.032279722,0.29108062,0.42253163,-0.25529203,0.0043975296,0.002453291,0.018552287,0.006851107,-0.0016956085,0.0025202872,-0.00033973085,0.75747395,0.88906527,-0.28756544,-3.055218,0.0,0.1,-0.018552287,0.0052589173,0.0036023716,0.026437663,0.017489655,inf,inf,inf,inf,1,1,1,1,2,1,2,3,0,0,0
30892885,0,0.0,0.0,0.30088386,0.42341927,-0.032403074,0.29108062,0.42253163,-0.25529203,0.0021120873,-0.0020143422,0.018340055,0.006532481,-0.0016956085,0.0025202872,-0.00033973085,-0.7212174,-2.1781285,0.06194751,-3.0549593,0.0,0.1,-0.018340055,0.005409426,0.0037012738,0.026657112,0.017614935,inf,inf,inf,inf,1,1,1,1,2,1,2,3,0,0,0
30988870,0,0.0,0.0,0.30065584,0.42348215,-0.03253627,0.29108062,0.42253163,-0.25529203,0.006318293,0.0048623984,0.017780904,0.0058859293,-0.0016956085,0.0025202872,-0.00033973085,1.4240627,1.2204142,-0.3235145,-3.05504,0.0,0.1,-0.017780904,0.005333619,0.003655036,0.02632068,0.017414726,inf,inf,inf,inf,1,1,1,1,2,1,2,3,0,0,0
31092870,0,0.0,0.0,0.3004357,0.42359218,-0.03262232,0.29108062,0.42253163,-0.25529203,0.005746369,0.0060918755,0.018446162,0.006506199,-0.0016956085,0.0025202872,-0.00033973085,-0.02327508,0.16675636,0.32112554,-3.0552452,0.0,0.1,-0.018446162,0.005371216,0.0036809228,0.026333127,0.017417632,inf,inf,inf,inf,1,1,1,1,2,1,2,3,0,0,0
31196880,0,0.0,0.0,0.30024943,0.42370513,-0.032714076,0.29108062,0.42253163,-0.25529203,0.0014924196,0.0016440409,0.019198254,0.0071773794,-0.0016956085,0.0025202872,-0.00033973085,-0.7119574,-1.0349638,0.23411977,-3.0552886,0.0,0.1,-0.019198254,0.004897172,0.0033696054,0.025349878,0.016832044,inf,inf,inf,inf,1,1,1,1,2,1,2,3,0,0,0
31300869,0,0.0,0.0,0.3001308,0.42389733,-0.03265409,0.29108062,0.42253163,-0.25529203,0.0027347524,0.008343758,0.020850236,0.008832131,-0.0016956085,0.0025202872,-0.00033973085,-0.73274505,1.5322423,0.21251401,-3.0552344,0.0,0.1,-0.020850236,0.005088549,0.0034928618,0.025828883,0.01711385,inf,inf,inf,inf,1,1,1,1,2,1,2,3,0,0,0
31404881,0,0.0,0.0,0.3000327,0.42404407,-0.03257252,0.29108062,0.42253163,-0.25529203,-0.0013753534,0.004971691,0.019132797,0.0071372925,-0.0016956085,0.0025202872,-0.00033973085,-1.061025,0.7425164,0.20213078,-3.0552137,0.0,0.1,-0.019132797,0.0051913005,0.0035614972,0.025942123,0.017180908,inf,inf,inf,inf,1,1,1,1,2,1,2,3,0,0,0
31508870,0,0.0,0.0,0.29991472,0.42406502,-0.032531396,0.29108062,0.42253163,-0.25529203,0.002248661,0.009826531,0.019580457,0.0075645526,-0.0016956085,0.0025202872,-0.00033973085,0.7383769,2.5231133,0.23765592,-3.0553668,0.0,0.1,-0.019580457,0.005296631,0.0036297322,0.026214167,0.017339272,inf,inf,inf,inf,1,1,1,1,2,1,2,3,0,0,0
31604870,0,0.0,0.0,0.29984963,0.42400733,-0.032483436,0.29108062,0.42253163,-0.25529203,0.00085597835,-0.0018542605,0.019004773,0.006967168,-0.0016956085,0.0025202872,-0.00033973085,-0.36570665,-2.7366855,-0.48868918,-3.0551589,0.0,0.1,-0.019004773,0.005255496,0.0036033085,0.026111443,0.017277662,inf,inf,inf,inf,1,1,1,1,2,1,2,3,0,0,0
31708891,0,0.0,0.0,0.29982558,0.42390764,-0.032487217,0.29108062,0.42253163,-0.25529203,-6.807064e-05,-0.0022477445,0.019928232,0.007830936,-0.0016956085,0.0025202872,-0.00033973085,-0.27279747,-1.9518348,-0.097899586,-3.0553827,0.0,0.1,-0.019928232,0.005147974,0.003530239,0.02602281,0.017223919,inf,inf,inf,inf,1,1,1,1,2,1,2,3,0,0,0
31812870,0,0.0,0.0,0.2998314,0.42379567,-0.03241652,0.29108062,0.42253163,-0.25529203,0.00376482,0.0072259693,0.020561935,0.008460621,-0.0016956085,0.0025202872,-0.00033973085,1.5075691,2.0792944,0.12516293,-3.055344,0.0,0.1,-0.020561935,0.0053334874,0.0036506583,0.026407888,0.017451724,inf,inf,inf,inf,1,1,1,1,2,1,2,3,0,0,0
31916089,0,0.0,0.0,0.29976013,0.42369598,-0.032377552,0.29108062,0.42253163,-0.25529203,0.003183256,0.0045346385,0.020540042,0.008374482,-0.0016956085,0.0025202872,-0.00033973085,1.2258176,0.7914556,0.06559213,-3.0554826,0.0,0.1,-0.020540042,0.0050842436,0.0034921626,0.025644971,0.017002927,inf,inf,inf,inf,1,1,1,1,2,1,2,3,0,0,0
32020070,0,0.0,0.0,0.29994208,0.42393884,-0.032383002,0.29108062,0.42253163,-0.25529203,0.0036358624,0.0035069794,0.019256515,0.0070505547,-0.0016956085,0.0025202872,-0.00033973085,-0.4002291,-0.22427738,-0.17431153,-3.0552387,0.0,0.1,-0.019256515,0.0051454543,0.0035334348,0.025740284,0.017060392,inf,inf,inf,inf,1,1,1,1,2,1,2,3,0,0,0
32116070,0,0.0,0.0,0.30027503,0.4242197,-0.032475006,0.29108062,0.42253163,-0.25529203,0.002903311,0.0042798375,0.01782999,0.005569015,-0.0016956085,0.0025202872,-0.00033973085,-1.6777649,-0.16716422,-0.5367917,-3.0552015,0.0,0.1,-0.01782999,0.0054564993,0.0037336291,0.026603216,0.017572343,inf,inf,inf,inf,1,1,1,1,2,1,2,3,0,0,0
32220102,0,0.0,0.0,0.300585,0.42446783,-0.032619555,0.29108062,0.42253163,-0.25529203,0.0069033788,0.006968404,0.017735992,0.0054189446,-0.0016956085,0.0025202872,-0.00033973085,0.3041325,2.0628476,-0.050865334,-3.055432,0.0,0.1,-0.017735992,0.005127778,0.0035221842,0.02573548,0.017058544,inf,inf,inf,inf,1,1,1,1,2,1,2,3,0,0,0
32324070,0,0.0,0.0,0.30078724,0.42459822,-0.03269986,0.29108062,0.42253163,-0.25529203,0.003616087,0.0073903715,0.019013498,0.006676883,-0.0016956085,0.0025202872,-0.00033973085,-1.0113256,0.70757574,0.11309079,-3.0553665,0.0,0.1,-0.019013498,0.0053140363,0.0036391478,0.026394391,0.01744511,inf,inf,inf,inf,1,1,1,1,2,1,2,3,0,0,0
32420070,0,0.0,0.0,0.3008703,0.4245627,-0.032743625,0.29108062,0.42253163,-0.25529203,0.0051025474,0.0055729044,0.017913537,0.00555976,-0.0016956085,0.0025202872,-0.00033973085,0.91877294,1.1408807,0.3298114,-3.0555847,0.0,0.1,-0.017913537,0.0049825544,0.0034247732,0.025518589,0.016929358,inf,inf,inf,inf,1,1,1,1,2,1,2,3,0,0,0
32524077,0,0.0,0.0,0.30078322,0.4244536,-0.032836538,0.29108062,0.42253163,-0.25529203,0.004608381,0.005948343,0.01843392,0.0060847034,-0.0016956085,0.0025202872,-0.00033973085,0.38243,0.7241532,0.59800386,-3.0556664,0.0,0.1,-0.01843392,0.0051684026,0.0035447716,0.025978852,0.017202461,inf,inf,inf,inf,1,1,1,1,2,1,2,3,0,0,0
32628070,0,0.0,0.0,0.30055645,0.42427918,-0.03299457,0.29108062,0.42253163,-0.25529203,0.0030551837,0.004221795,0.018362373,0.006029469,-0.0016956085,0.0025202872,-0.00033973085,0.8771498,0.8736255,0.78715986,-3.055339,0.0,0.1,-0.018362373,0.0049877795,0.0034281844,0.025488516,0.01691303,inf,inf,inf,inf,1,1,1,1,2,1,2,3,0,0,0
32724078,0,0.0,0.0,0.30032757,0.4240856,-0.03318197,0.29108062,0.42253163,-0.25529203,0.00010235763,0.004731029,0.01764237,0.005325995,-0.0016956085,0.0025202872,-0.00033973085,0.113301106,1.3501439,0.08147482,-3.055194,0.0,0.1,-0.01764237,0.0050702537,0.0034804712,0.025748618,0.017065065,inf,inf,inf,inf,1,1,1,1,2,1,2,3,0,0,0
32828077,0,0.0,0.0,0.30004174,0.42387906,-0.033312596,0.29108062,0.42253163,-0.25529203,0.0024603142,0.009447898,0.019051904,0.0067680296,-0.0016956085,0.0025202872,-0.00033973085,0.78718394,2.0090997,0.06742096,-3.055456,0.0,0.1,-0.019051904,0.004938111,0.003394815,0.025393963,0.01685516,inf,inf,inf,inf,1,1,1,1,2,1,2,3,0,0,0
32932120,0,0.0,0.0,0.29980662,0.4236704,-0.033388212,0.29108062,0.42253163,-0.25529203,0.00022938223,0.00064639165,0.018064985,0.005846369,-0.0016956085,0.0025202872,-0.00033973085,-0.560199,-1.4091097,-0.50833076,-3.0553775,0.0,0.1,-0.018064985,0.005188358,0.0035555102,0.026095048,0.017270068,inf,inf,inf,inf,1,1,1,1,2,1,2,3,0,0,0
33028069,0,0.0,0.0,0.29965398,0.4234634,-0.033321727,0.29108062,0.42253163,-0.25529203,0.0054337797,0.00468907,0.020790393,0.008652476,-0.0016956085,0.0025202872,-0.00033973085,1.872899,1.7757256,0.39803723,-3.0555518,0.0,0.1,-0.020790393,0.0050040507,0.0034348613,0.025685752,0.017028134,inf,inf,inf,inf,1,1,1,1,2,1,2,3,0,0,0
33132076,0,0.0,0.0,0.2995308,0.42321396,-0.03315095,0.29108062,0.42253163,-0.25529203,-0.0025260083,-0.00021473295,0.019412212,0.00738773,-0.0016956085,0.0025202872,-0.00033973085,-1.9207324,-1.4171273,-0.59490216,-3.055446,0.0,0.1,-0.019412212,0.0052802362,0.0036133854,0.026354311,0.017422674,inf,inf,inf,inf,1,1,1,1,2,1,2,3,0,0,0
33232870,0,0.0,0.0,0.29942727,0.42301154,-0.033116084,0.29108062,0.42253163,-0.25529203,0.00031567397,-0.0027895267,0.01898289,0.0070664543,-0.0016956085,0.0025202872,-0.00033973085,0.1135974,-0.5308553,0.16598848,-3.0552976,0.0,0.1,-0.01898289,0.005423944,0.0037094923,0.026543966,0.017535042,inf,inf,inf,inf,1,1,1,1,2,1,2,3,0,0,0
33340070,0,0.0,0.0,0.29925275,0.4228146,-0.032903716,0.29108062,0.42253163,-0.25529203,-0.006224357,-0.0013129206,0.019723598,0.007836266,-0.0016956085,0.0025202872,-0.00033973085,-1.557667,0.09747906,-0.36311114,-3.0552413,0.0,0.1,-0.019723598,0.0051169964,0.0035147935,0.025635233,0.017001601,inf,inf,inf,inf,1,1,1,1,2,1,2,3,0,0,0
33443320,0,0.0,0.0,0.29898062,0.4225098,-0.032733552,0.29108062,0.42253163,-0.25529203,0.0012120642,0.002778763,0.020115824,0.008214653,-0.0016956085,0.0025202872,-0.00033973085,1.1595044,2.9414856,-0.23444021,-3.0553482,0.0,0.1,-0.020115824,0.0051904507,0.0035622658,0.02590886,0.017167581,inf,inf,inf,inf,1,1,1,1,2,1,2,3,0,0,0
33539291,0,0.0,0.0,0.29887202,0.42226902,-0.032508943,0.29108062,0.42253163,-0.25529203,-0.0033593625,-0.0067441594,0.021713484,0.009809874,-0.0016956085,0.0025202872,-0.00033973085,-1.1307753,-2.566565,-0.091722794,-3.0556042,0.0,0.1,-0.021713484,0.005147529,0.0035342255,0.025868429,0.017150683,inf,inf,inf,inf,1,1,1,1,2,1,2,3,0,0,0
33643308,0,0.0,0.0,0.29878196,0.42201772,-0.032185443,0.29108062,0.42253163,-0.25529203,-0.0018345515,-0.0066843876,0.020494422,0.00857673,-0.0016956085,0.0025202872,-0.00033973085,0.48136717,-1.2554181,-0.08896152,-3.0555744,0.0,0.1,-0.020494422,0.00520595,0.003573229,0.02594755,0.017194102,inf,inf,inf,inf,1,1,1,1,2,1,2,3,0,0,0
33747282,0,0.0,0.0,0.29872867,0.42174688,-0.031923108,0.29108062,0.42253163,-0.25529203,0.002365881,0.003026192,0.02139576,0.009381553,-0.0016956085,0.0025202872,-0.00033973085,1.43265,2.2864788,0.41147685,-3.0558157,0.0,0.1,-0.02139576,0.005279155,0.003620358,0.026148982,0.01730899,inf,inf,inf,inf,1,1,1,1,2,1,2,3,0,0,0
33851316,0,0.0,0.0,0.298793,0.42154518,-0.03174852,0.29108062,0.42253163,-0.25529203,-0.0022383528,-0.006231117,0.02080719,0.008665347,-0.0016956085,0.0025202872,-0.00033973085,-1.291724,-1.6608045,0.25733334,-3.0552964,0.0,0.1,-0.02080719,0.0053451904,0.003662998,0.026307546,0.017398791,inf,inf,inf,inf,1,1,1,1,2,1,2,3,0,0,0
33955284,0,0.0,0.0,0.2989519,0.42145404,-0.031660616,0.29108062,0.42253163,-0.25529203,0.00313154,-0.0017640998,0.022543399,0.010217165,-0.0016956085,0.0025202872,-0.00033973085,0.30123562,-0.41980156,0.108559944,-3.0554724,0.0,0.1,-0.022543399,0.0054249456,0.0037137868,0.026529672,0.017525574,inf,inf,inf,inf,1,1,1,1,2,1,2,3,0,0,0
34051270,0,0.0,0.0,0.2990825,0.42139277,-0.031631827,0.29108062,0.42253163,-0.25529203,0.002169182,0.005611147,0.02276249,0.01026323,-0.0016956085,0.0025202872,-0.00033973085,0.783239,3.460894,0.55996925,-3.05556,0.0,0.1,-0.02276249,0.005358466,0.003670608,0.026366249,0.017427886,inf,inf,inf,inf,1,1,1,1,2,1,2,3,0,0,0
34155270,0,0.0,0.0,0.29924485,0.42143324,-0.031725902,0.29108062,0.42253163,-0.25529203,-0.0005596012,0.0027334914,0.02269812,0.010041402,-0.0016956085,0.0025202872,-0.00033973085,-1.1868156,1.4678575,0.41057947,-3.055407,0.0,0.1,-0.02269812,0.0050710808,0.0034850356,0.025610121,0.016984679,inf,inf,inf,inf,1,1,1,1,2,1,2,3,0,0,0
34259294,0,0.0,0.0,0.29943606,0.42157316,-0.031837802,0.29108062,0.42253163,-0.25529203,-0.001222837,-0.003664418,0.02115473,0.008356627,-0.0016956085,0.0025202872,-0.00033973085,-1.6657169,-1.7024777,-0.40493086,-3.0558965,0.0,0.1,-0.02115473,0.005154505,0.0035386982,0.0258406,0.017118208,inf,inf,inf,inf,1,1,1,1,2,1,2,3,0,0,0
34355278,0,0.0,0.0,0.29959366,0.42170396,-0.031981714,0.29108062,0.42253163,-0.25529203,0.006302578,0.0030730087,0.02320681,0.0103102615,-0.0016956085,0.0025202872,-0.00033973085,1.3151648,0.9667128,0.597113,-3.0556185,0.0,0.1,-0.02320681,0.005463047,0.0037372324,0.026634447,0.017585702,inf,inf,inf,inf,1,1,1,1,2,1,2,3,0,0,0
34459269,0,0.0,0.0,0.29977396,0.42194048,-0.032134917,0.29108062,0.42253163,-0.25529203,0.0006450142,-0.004558907,0.019854402,0.0068798736,-0.0016956085,0.0025202872,-0.00033973085,-0.54685646,-1.1946553,-0.3631866,-3.055407,0.0,0.1,-0.019854402,0.0051386612,0.0035291137,0.025753755,0.017069366,inf,inf,inf,inf,1,1,1,1,2,1,2,3,0,0,0
34563315,0,0.0,0.0,0.299974,0.42217365,-0.032313745,0.29108062,0.42253163,-0.25529203,0.004627098,0.00052968785,0.018468352,0.005446241,-0.0016956085,0.0025202872,-0.00033973085,0.3029121,-1.3958,0.19776951,-3.0552785,0.0,0.1,-0.018468352,0.0051968032,0.003566794,0.025904715,0.017156363,inf,inf,inf,inf,1,1,1,1,2,1,2,3,0,0,0
34666497,0,0.0,0.0,0.3001077,0.42246494,-0.03254068,0.29108062,0.42253163,-0.25529203,-0.00093134743,-0.0036232453,0.018342234,0.0053205993,-0.0016956085,0.0025202872,-0.00033973085,-1.1421882,-2.0563188,-0.112376586,-3.055508,0.0,0.1,-0.018342234,0.005251796,0.003602603,0.026030561,0.017230883,inf,inf,inf,inf,1,1,1,1,2,1,2,3,0,0,0
34770476,0,0.0,0.0,0.30009785,0.42278266,-0.032678615,0.29108062,0.42253163,-0.25529203,0.0023662806,0.0023863215,0.018066417,0.005022719,-0.0016956085,0.0025202872,-0.00033973085,1.1231219,1.2592889,-0.09093341,-3.055706,0.0,0.1,-0.018066417,0.005039914,0.003462722,0.025619887,0.016982982,inf,inf,inf,inf,1,1,1,1,2,1,2,3,0,0,0
34866476,0,0.0,0.0,0.3000156,0.42297402,-0.032668453,0.29108062,0.42253163,-0.25529203,-0.002408993,-0.0013424992,0.019933302,0.0069509754,-0.0016956085,0.0025202872,-0.00033973085,-0.83672756,-0.8926577,-0.19965033,-3.0559835,0.0,0.1,-0.019933302,0.0053994986,0.0036943273,0.026570154,0.017549075,inf,inf,inf,inf,1,1,1,1,2,1,2,3,0,0,0
34970470,0,0.0,0.0,0.29985332,0.42302513,-0.03267509,0.29108062,0.42253163,-0.25529203,0.00065004796,0.0015845268,0.019795131,0.006865739,-0.0016956085,0.0025202872,-0.00033973085,-0.0033509347,0.7848829,0.26858476,-3.055789,0.0,0.1,-0.019795131,0.0052000373,0.0035648071,0.026081394,0.01725805,inf,inf,inf,inf,1,1,1,1,2,1,2,3,0,0,0
35074470,0,0.0,0.0,0.29964572,0.4230297,-0.03267185,0.29108062,0.42253163,-0.25529203,-0.0032579948,-0.004140019,0.020419855,0.007554917,-0.0016956085,0.0025202872,-0.00033973085,-0.6637248,-0.263447,0.4595834,-3.0555484,0.0,0.1,-0.020419855,0.005358747,0.003667419,0.026452914,0.017477894,inf,inf,inf,inf,1,1,1,1,2,1,2,3,0,0,0
35170478,0,0.0,0.0,0.29951614,0.42295974,-0.032726947,0.29108062,0.42253163,-0.25529203,-0.0022358785,0.0027486905,0.017957667,0.0051169507,-0.0016956085,0.0025202872,-0.00033973085,-1.0749129,-0.04592487,-0.35308108,-3.0555563,0.0,0.1,-0.017957667,0.005011828,0.003444036,0.025524234,0.016933177,inf,inf,inf,inf,1,1,1,1,2,1,2,3,0,0,0
35274505,0,0.0,0.0,0.29945922,0.42272583,-0.03286175,0.29108062,0.42253163,-0.25529203,-0.003219827,-0.0044287504,0.018037368,0.0051901457,-0.0016956085,0.0025202872,-0.00033973085,-0.97804445,-1.3329175,-0.13749264,-3.0557413,0.0,0.1,-0.018037368,0.00526781,0.0036068675,0.026313892,0.017396944,inf,inf,inf,inf,1,1,1,1,2,1,2,3,0,0,0
35378469,0,0.0,0.0,0.29950467,0.42240185,-0.033015165,0.29108062,0.42253163,-0.25529203,0.0021746457,0.0019458552,0.021302994,0.008497833,-0.0016956085,0.0025202872,-0.00033973085,0.6940003,1.8941654,0.74005157,-3.0554452,0.0,0.1,-0.021302994,0.005080412,0.0034880012,0.025687302,0.017031115,inf,inf,inf,inf,1,1,1,1,2,1,2,3,0,0,0
35474470,0,0.0,0.0,0.29960617,0.42218563,-0.033182207,0.29108062,0.42253163,-0.25529203,0.00017085513,-0.0018184267,0.01788373,0.0051193982,-0.0016956085,0.0025202872,-0.00033973085,-0.11715577,0.882667,0.5111127,-3.0554285,0.0,0.1,-0.01788373,0.0051196506,0.0035129506,0.025827995,0.017112305,inf,inf,inf,inf,1,1,1,1,2,1,2,3,0,0,0
35578470,0,0.0,0.0,0.2998237,0.42188004,-0.033356827,0.29108062,0.42253163,-0.25529203,0.0012688444,-0.0035409736,0.016968608,0.0042854515,-0.0016956085,0.0025202872,-0.00033973085,-0.92796856,-1.0606352,-0.12489227,-3.0555444,0.0,0.1,-0.016968608,0.0049537807,0.003405793,0.02538048,0.016849037,inf,inf,inf,inf,1,1,1,1,2,1,2,3,0,0,0
35682469,0,0.0,0.0,0.30007395,0.42172322,-0.033643447,0.29108062,0.42253163,-0.25529203,0.0010453077,-0.002372325,0.015563585,0.0029597506,-0.0016956085,0.0025202872,-0.00033973085,-0.14483936,0.5789466,0.10097693,-3.055607,0.0,0.1,-0.015563585,0.0052247583,0.0035785493,0.026210014,0.01733612,inf,inf,inf,inf,1,1,1,1,2,1,2,3,0,0,0
35786477,0,0.0,0.0,0.30029622,0.42166775,-0.033945348,0.29108062,0.42253163,-0.25529203,0.005390813,0.0010501276,0.01570522,0.003214766,-0.0016956085,0.0025202872,-0.00033973085,1.0503308,0.91561925,0.28360587,-3.0557697,0.0,0.1,-0.01570522,0.0051025557,0.0035003768,0.025836132,0.017116519,inf,inf,inf,inf,1,1,1,1,2,1,2,3,0,0,0
35882470,0,0.0,0.0,0.30048564,0.4216602,-0.03421562,0.29108062,0.42253163,-0.25529203,0.0011431144,-0.002222274,0.015621952,0.0032888097,-0.0016956085,0.0025202872,-0.00033973085,0.8053069,0.2732951,-0.037044533,-3.0559776,0.0,0.1,-0.015621952,0.0051299366,0.0035196622,0.02581253,0.01710174,inf,inf,inf,inf,1,1,1,1,2,1,2,3,0,0,0
35986470,0,0.0,0.0,0.30068532,0.4216529,-0.03444176,0.29108062,0.42253163,-0.25529203,0.003925118,-0.0010483342,0.016478201,0.0043210965,-0.0016956085,0.0025202872,-0.00033973085,-0.0957819,-0.8768517,-0.09361625,-3.0558605,0.0,0.1,-0.016478201,0.005104663,0.0035001421,0.025926761,0.01716817,inf,inf,inf,inf,1,1,1,1,2,1,2,3,0,0,0
36089700,0,0.0,0.0,0.30090088,0.42188048,-0.034507737,0.29108062,0.42253163,-0.25529203,0.0057468284,0.0005125583,0.015700744,0.0037855378,-0.0016956085,0.0025202872,-0.00033973085,0.8385052,0.6215855,-0.050811958,-3.0556037,0.0,0.1,-0.015700744,0.005036242,0.003456727,0.025664963,0.017015034,inf,inf,inf,inf,1,1,1,1,2,1,2,3,0,0,0
36186470,0,0.0,0.0,0.30112544,0.42215994,-0.034463122,0.29108062,0.42253163,-0.25529203,0.0012451309,-0.0005267732,0.016207874,0.0045106774,-0.0016956085,0.0025202872,-0.00033973085,-0.82675004,0.5827101,-0.39614144,-3.055407,0.0,0.1,-0.016207874,0.0051207626,0.0035120156,0.02584926,0.017125929,inf,inf,inf,inf,1,1,1,1,2,1,2,3,0,0,0
36289670,0,0.0,0.0,0.3012755,0.42239672,-0.03428841,0.29108062,0.42253163,-0.25529203,0.006662338,0.00455917,0.016773306,0.005296203,-0.0016956085,0.0025202872,-0.00033973085,1.6667681,1.0595512,-0.39488065,-3.0556715,0.0,0.1,-0.016773306,0.0052783447,0.0036155484,0.026151702,0.017300831,inf,inf,inf,inf,1,1,1,1,2,1,2,3,0,0,0
36393691,0,0.0,0.0,0.30133072,0.4224737,-0.03396398,0.29108062,0.42253163,-0.25529203,0.0060396427,0.0018352006,0.017722305,0.006441987,-0.0016956085,0.0025202872,-0.00033973085,0.93129176,0.15105024,-0.15956189,-3.0555487,0.0,0.1,-0.017722305,0.0054026176,0.0036973057,0.026426367,0.017464455,inf,inf,inf,inf,1,1,1,1,2,1,2,3,0,0,0
36489670,0,0.0,0.0,0.30128387,0.42253557,-0.033630144,0.29108062,0.42253163,-0.25529203,0.0034943044,-0.006688095,0.020830033,0.009658846,-0.0016956085,0.0025202872,-0.00033973085,-0.2039163,-2.063065,0.49064818,-3.0555456,0.0,0.1,-0.020830033,0.004990137,0.0034321027,0.02533637,0.016822575,inf,inf,inf,inf,1,1,1,1,2,1,2,3,0,0,0
36593681,0,0.0,0.0,0.3011435,0.42249686,-0.033374865,0.29108062,0.42253163,-0.25529203,0.003518425,-0.0044160224,0.017709225,0.006557488,-0.0016956085,0.0025202872,-0.00033973085,-0.055186786,-0.51182055,0.09175998,-3.0555036,0.0,0.1,-0.017709225,0.0051306607,0.003522126,0.025780119,0.017084986,inf,inf,inf,inf,1,1,1,1,2,1,2,3,0,0,0
36697676,0,0.0,0.0,0.3010152,0.42244944,-0.03324609,0.29108062,0.42253163,-0.25529203,0.0025152827,-0.0033541818,0.018533655,0.0073430976,-0.0016956085,0.0025202872,-0.00033973085,-0.041969784,-0.11617371,-0.14988004,-3.0558064,0.0,0.1,-0.018533655,0.0052666315,0.0036095567,0.02615667,0.017303973,inf,inf,inf,inf,1,1,1,1,2,1,2,3,0,0,0
36801699,0,0.0,0.0,0.3008647,0.42238873,-0.03318792,0.29108062,0.42253163,-0.25529203,0.0036699423,-0.0021489258,0.018240556,0.0069817635,-0.0016956085,0.0025202872,-0.00033973085,0.79490805,1.1573513,0.15458712,-3.0558074,0.0,0.1,-0.018240556,0.0050308174,0.0034575087,0.02552903,0.016935416,inf,inf,inf,inf,1,1,1,1,2,1,2,3,0,0,0
36905670,0,0.0,0.0,0.30067283,0.42234132,-0.03320051,0.29108062,0.42253163,-0.25529203,0.003997629,0.0018131188,0.018192114,0.0068664425,-0.0016956085,0.0025202872,-0.00033973085,0.82467914,1.5277847,0.24408188,-3.0558548,0.0,0.1,-0.018192114,0.0051663546,0.0035450493,0.025877604,0.017140578,inf,inf,inf,inf,1,1,1,1,2,1,2,3,0,0,0
37001703,0,0.0,0.0,0.30049124,0.4222687,-0.033261966,0.29108062,0.42253163,-0.25529203,-0.0033135728,-0.003853457,0.015257641,0.0038673242,-0.0016956085,0.0025202872,-0.00033973085,-1.27048,-1.1278375,-0.46120298,-3.0557866,0.0,0.1,-0.015257641,0.0051484886,0.0035336127,0.025826469,0.017112054,inf,inf,inf,inf,1,1,1,1,2,1,2,3,0,0,0
37105670,0,0.0,0.0,0.3002542,0.42220676,-0.033357788,0.29108062,0.42253163,-0.25529203,0.0028717022,0.00068703754,0.015697705,0.004234561,-0.0016956085,0.0025202872,-0.00033973085,1.0121238,1.1328892,0.17066106,-3.0556643,0.0,0.1,-0.015697705,0.005062267,0.0034743997,0.025786644,0.017088262,inf,inf,inf,inf,1,1,1,1,2,1,2,3,0,0,0
37209672,0,0.0,0.0,0.3000472,0.4221391,-0.033431906,0.29108062,0.42253163,-0.25529203,0.002986991,-0.0032522457,0.016807731,0.00533947,-0.0016956085,0.0025202872,-0.00033973085,0.47580147,-0.4073664,0.12336466,-3.0555077,0.0,0.1,-0.016807731,0.0050039287,0.0034356292,0.025636664,0.016997986,inf,inf,inf,inf,1,1,1,1,2,1,2,3,0,0,0
37305676,0,0.0,0.0,0.29994643,0.42206642,-0.03344021,0.29108062,0.42253163,-0.25529203,-0.003045259,0.00068131875,0.016484594,0.005060574,-0.0016956085,0.0025202872,-0.00033973085,-1.8388116,1.1963452,-0.25267762,-3.0556788,0.0,0.1,-0.016484594,0.0053997133,0.0036922232,0.02656204,0.017541196,inf,inf,inf,inf,1,1,1,1,2,1,2,3,0,0,0
37408114,0,0.0,0.0,0.29991424,0.4220642,-0.033475015,0.29108062,0.42253163,-0.25529203,-0.0015262525,0.002620068,0.019577397,0.008170218,-0.0016956085,0.0025202872,-0.00033973085,-0.42439288,2.1249785,0.3917122,-3.0558066,0.0,0.1,-0.019577397,0.005209663,0.0035711334,0.026026586,0.01722833,inf,inf,inf,inf,1,1,1,1,2,1,2,3,0,0,0
37508913,0,0.0,0.0,0.30005875,0.42227918,-0.033398915,0.29108062,0.42253163,-0.25529203,0.0022698867,-0.0042108083,0.017041707,0.005673619,-0.0016956085,0.0025202872,-0.00033973085,-0.097750135,-0.9793127,0.24857798,-3.0556724,0.0,0.1,-0.017041707,0.0052063367,0.003569825,0.025954483,0.017183227,inf,inf,inf,inf,1,1,1,1,2,1,2,3,0,0,0
37612869,0,0.0,0.0,0.30020738,0.42244798,-0.03342704,0.29108062,0.42253163,-0.25529203,0.0034763408,0.0015545456,0.017582534,0.0062639015,-0.0016956085,0.0025202872,-0.00033973085,0.7301575,1.5165478,0.32854834,-3.0557058,0.0,0.1,-0.017582534,0.00533075,0.0036513912,0.026270762,0.017375678,inf,inf,inf,inf,1,1,1,1,2,1,2,3,0,0,0
37716881,0,0.0,0.0,0.30039155,0.4224217,-0.033575002,0.29108062,0.42253163,-0.25529203,0.0069128387,0.0031722665,0.018044213,0.0067433035,-0.0016956085,0.0025202872,-0.00033973085,1.2706953,1.8807621,0.75466776,-3.0558267,0.0,0.1,-0.018044213,0.00510323,0.003506545,0.025819996,0.01713937,inf,inf,inf,inf,1,1,1,1,2,1,2,3,0,0,0
37812869,0,0.0,0.0,0.30050644,0.42235067,-0.033701807,0.29108062,0.42253163,-0.25529203,-0.0009094741,-0.005604272,0.01708882,0.00581901,-0.0016956085,0.0025202872,-0.00033973085,-0.5535336,-1.0427054,0.2786861,-3.0558598,0.0,0.1,-0.01708882,0.0053993585,0.0036981434,0.026542455,0.017556034,inf,inf,inf,inf,1,1,1,1,2,1,2,3,0,0,0
37916870,0,0.0,0.0,0.3005434,0.42223033,-0.033711493,0.29108062,0.42253163,-0.25529203,0.0060551106,-0.0007633319,0.018933207,0.0077070566,-0.0016956085,0.0025202872,-0.00033973085,1.2483844,-0.19267097,0.1781321,-3.055564,0.0,0.1,-0.018933207,0.005452266,0.0037331278,0.026583787,0.017575117,inf,inf,inf,inf,1,1,1,1,2,1,2,3,0,0,0
38020897,0,0.0,0.0,0.30050343,0.42204618,-0.03380363,0.29108062,0.42253163,-0.25529203,0.0023503152,-6.377146e-05,0.017102797,0.005914517,-0.0016956085,0.0025202872,-0.00033973085,0.91353977,0.18086828,0.20469648,-3.0558636,0.0,0.1,-0.017102797,0.005182976,0.0035579866,0.025945049,0.017191026,inf,inf,inf,inf,1,1,1,1,2,1,2,3,0,0,0
38124870,0,0.0,0.0,0.3003914,0.4218949,-0.033822984,0.29108062,0.42253163,-0.25529203,0.001617455,-0.00645009,0.016043147,0.004928803,-0.0016956085,0.0025202872,-0.00033973085,0.26430544,-3.008842,0.031351868,-3.0558338,0.0,0.1,-0.016043147,0.0053556515,0.0036671346,0.026451819,0.01748155,inf,inf,inf,inf,1,1,1,1,2,1,2,3,0,0,0
38220870,0,0.0,0.0,0.3002613,0.42177942,-0.033858433,0.29108062,0.42253163,-0.25529203,0.0030539082,0.0015331378,0.016346483,0.0052663367,-0.0016956085,0.0025202872,-0.00033973085,0.75611943,2.388171,0.4897568,-3.0558295,0.0,0.1,-0.016346483,0.0050254874,0.0034529895,0.025600974,0.016975248,inf,inf,inf,inf,1,1,1,1,2,1,2,3,0,0,0
38324870,0,0.0,0.0,0.30012047,0.42165112,-0.033879746,0.29108062,0.42253163,-0.25529203,-0.0011821429,-0.0033249878,0.01618363,0.0051481873,-0.0016956085,0.0025202872,-0.00033973085,-1.4022479,-1.3651522,-0.17413037,-3.0557742,0.0,0.1,-0.01618363,0.005191166,0.0035597328,0.026004985,0.017211528,inf,inf,inf,inf,1,1,1,1,2,1,2,3,0,0,0
38428870,0,0.0,0.0,0.3000178,0.42154375,-0.03384078,0.29108062,0.42253163,-0.25529203,-0.0011872683,-0.0052553457,0.014812701,0.003810848,-0.0016956085,0.0025202872,-0.00033973085,-0.33156717,-0.64549387,-0.17359444,-3.0558906,0.0,0.1,-0.014812701,0.0049914843,0.0034308557,0.025453359,0.016886506,inf,inf,inf,inf,1,1,1,1,2,1,2,3,0,0,0
38532872,0,0.0,0.0,0.30001244,0.42148003,-0.033737786,0.29108062,0.42253163,-0.25529203,0.0018990247,-0.002752554,0.016739007,0.005788985,-0.0016956085,0.0025202872,-0.00033973085,0.3400675,-0.89343727,0.028535426,-3.0556703,0.0,0.1,-0.016739007,0.005139017,0.0035263735,0.025822692,0.017103767,inf,inf,inf,inf,1,1,1,1,2,1,2,3,0,0,0
38636879,0,0.0,0.0,0.3000501,0.42148796,-0.033590727,0.29108062,0.42253163,-0.25529203,0.006587299,0.0018001843,0.018543014,0.0076230657,-0.0016956085,0.0025202872,-0.00033973085,2.6848264,0.7001149,0.03978838,-3.0558307,0.0,0.1,-0.018543014,0.0049569164,0.0034080606,0.02537699,0.016841633,inf,inf,inf,inf,1,1,1,1,2,1,2,3,0,0,0
38740870,0,0.0,0.0,0.30014828,0.42147782,-0.03343603,0.29108062,0.42253163,-0.25529203,-0.0013246397,-0.007849457,0.016566163,0.005673276,-0.0016956085,0.0025202872,-0.00033973085,-0.56231165,-2.6073155,-0.66346025,-3.0561838,0.0,0.1,-0.016566163,0.0051607625,0.0035385399,0.025976393,0.017195176,inf,inf,inf,inf,1,1,1,1,2,1,2,3,0,0,0
38835293,0,0.0,0.0,0.30026558,0.42155448,-0.033341415,0.29108062,0.42253163,-0.25529203,0.00427333,0.0001971079,0.020132288,0.009271157,-0.0016956085,0.0025202872,-0.00033973085,1.439381,1.8013848,0.6113562,-3.0560226,0.0,0.1,-0.020132288,0.005271807,0.0036086356,0.026314564,0.017394125,inf,inf,inf,inf,1,1,1,1,2,1,2,3,0,0,0
38940077,0,0.0,0.0,0.30030796,0.4215151,-0.033169735,0.29108062,0.42253163,-0.25529203,-0.0043476685,-0.00791745,0.018616332,0.0077452427,-0.0016956085,0.0025202872,-0.00033973085,-1.8678958,-1.6346858,-0.22185029,-3.055822,0.0,0.1,-0.018616332,0.0050851367,0.0034903742,0.02567325,0.017014625,inf,inf,inf,inf,1,1,1,1,2,1,2,3,0,0,0
39044094,0,0.0,0.0,0.30023316,0.42132393,-0.033006057,0.29108062,0.42253163,-0.25529203,-0.00016037561,-0.0037975295,0.01855119,0.0076152068,-0.0016956085,0.0025202872,-0.00033973085,-0.9053141,-0.12708868,-0.20426881,-3.0555668,0.0,0.1,-0.01855119,0.005184227,0.0035567177,0.025854481,0.017128058,inf,inf,inf,inf,1,1,1,1,2,1,2,3,0,0,0
39140071,0,0.0,0.0,0.30013484,0.42126468,-0.03286765,0.29108062,0.42253163,-0.25529203,0.0019030173,0.00027324766,0.018661065,0.0076441346,-0.0016956085,0.0025202872,-0.00033973085,1.0997599,0.4874495,0.26724347,-3.0553832,0.0,0.1,-0.018661065,0.005086801,0.003495932,0.02552698,0.016938686,inf,inf,inf,inf,1,1,1,1,2,1,2,3,0,0,0
39244115,0,0.0,0.0,0.30000094,0.42119932,-0.032864615,0.29108062,0.42253163,-0.25529203,-0.0031884937,-0.006267702,0.018537328,0.0073878276,-0.0016956085,0.0025202872,-0.00033973085,-1.3498243,-1.6819818,0.027462773,-3.0556865,0.0,0.1,-0.018537328,0.005224782,0.0035830084,0.026048224,0.017246585,inf,inf,inf,inf,1,1,1,1,2,1,2,3,0,0,0
39348070,0,0.0,0.0,0.29988697,0.42112166,-0.03288947,0.29108062,0.42253163,-0.25529203,0.0016728243,-0.0019233959,0.01599421,0.0047355844,-0.0016956085,0.0025202872,-0.00033973085,1.4055021,1.3766806,-0.23574106,-3.055567,0.0,0.1,-0.01599421,0.0050710817,0.003481797,0.02573877,0.017060729,inf,inf,inf,inf,1,1,1,1,2,1,2,3,0,0,0
39444090,0,0.0,0.0,0.29981235,0.4211415,-0.032872155,0.29108062,0.42253163,-0.25529203,-0.0021394317,-0.0037580878,0.016485084,0.0051583154,-0.0016956085,0.0025202872,-0.00033973085,-1.0586314,-0.06986972,-0.6797142,-3.0558038,0.0,0.1,-0.016485084,0.005112718,0.003508409,0.025828017,0.017111678,inf,inf,inf,inf,1,1,1,1,2,1,2,3,0,0,0
39548089,0,0.0,0.0,0.2997341,0.42117012,-0.032843713,0.29108062,0.42253163,-0.25529203,-0.0019167481,0.0014415473,0.017429745,0.0060503054,-0.0016956085,0.0025202872,-0.00033973085,-0.73253125,0.9682183,-0.2319748,-3.0557003,0.0,0.1,-0.017429745,0.0049201325,0.0033847347,0.025250116,0.016769988,inf,inf,inf,inf,1,1,1,1,2,1,2,3,0,0,0
39652070,0,0.0,0.0,0.29968572,0.42131275,-0.03289093,0.29108062,0.42253163,-0.25529203,-0.0040101884,-0.003003789,0.018099165,0.006639009,-0.0016956085,0.0025202872,-0.00033973085,-0.42130548,0.11815167,0.18614803,-3.0554934,0.0,0.1,-0.018099165,0.005171445,0.003544813,0.026039286,0.017233748,inf,inf,inf,inf,1,1,1,1,2,1,2,3,0,0,0
39748069,0,0.0,0.0,0.2996721,0.42152506,-0.03294366,0.29108062,0.42253163,-0.25529203,-0.0021507256,-0.0047407467,0.01795467,0.0064632436,-0.0016956085,0.0025202872,-0.00033973085,-0.73484254,-2.6398351,0.26636624,-3.055541,0.0,0.1,-0.01795467,0.0051904023,0.0035589158,0.02595537,0.017185276,inf,inf,inf,inf,1,1,1,1,2,1,2,3,0,0,0
39852076,0,0.0,0.0,0.299626,0.4217065,-0.03296261,0.29108062,0.42253163,-0.25529203,-0.002070846,-0.0026590358,0.017469466,0.0059662056,-0.0016956085,0.0025202872,-0.00033973085,0.4772717,-0.8635479,0.11823151,-3.0556886,0.0,0.1,-0.017469466,0.005312347,0.0036390715,0.026203461,0.017330512,inf,inf,inf,inf,1,1,1,1,2,1,2,3,0,0,0
39956076,0,0.0,0.0,0.29957333,0.4219715,-0.032956757,0.29108062,0.42253163,-0.25529203,0.0016309017,-0.0003488256,0.02111157,0.009602,-0.0016956085,0.0025202872,-0.00033973085,0.92366457,-0.14655504,0.29659352,-3.0560198,0.0,0.1,-0.02111157,0.0053914166,0.0036916183,0.026340956,0.017413152,inf,inf,inf,inf,1,1,1,1,2,1,2,3,0,0,0
40060069,0,0.0,0.0,0.29954317,0.4222208,-0.032968953,0.29108062,0.42253163,-0.25529203,-0.002769933,0.0015968462,0.018568048,0.0070100264,-0.0016956085,0.0025202872,-0.00033973085,-0.60187155,0.97082597,0.11980936,-3.0559413,0.0,0.1,-0.018568048,0.0051442124,0.003531041,0.025806457,0.017097637,inf,inf,inf,inf,1,1,1,1,2,1,2,3,0,0,0
40155276,0,0.0,0.0,0.29944986,0.42238936,-0.03312774,0.29108062,0.42253163,-0.25529203,-0.006375962,-0.0026498095,0.016940506,0.005343419,-0.0016956085,0.0025202872,-0.00033973085,-1.1261525,-0.54459167,-0.1358577,-3.055792,0.0,0.1,-0.016940506,0.0051848204,0.003555421,0.026000496,0.017213322,inf,inf,inf,inf,1,1,1,1,2,1,2,3,0,0,0
40259270,0,0.0,0.0,0.2992015,0.4224897,-0.033259295,0.29108062,0.42253163,-0.25529203,-0.003567957,0.0045335996,0.017910643,0.0063120765,-0.0016956085,0.0025202872,-0.00033973085,0.748561,2.2168229,0.41205856,-3.0557432,0.0,0.1,-0.017910643,0.0050594048,0.0034731766,0.025713116,0.017042518,inf,inf,inf,inf,1,1,1,1,2,1,2,3,0,0,0
40363316,0,0.0,0.0,0.29892623,0.42260844,-0.03332058,0.29108062,0.42253163,-0.25529203,-0.0077912835,-0.003397815,0.01632976,0.0047614276,-0.0016956085,0.0025202872,-0.00033973085,-1.7215587,-2.046633,-0.1502413,-3.0558608,0.0,0.1,-0.01632976,0.005165796,0.0035439006,0.025849488,0.01712202,inf,inf,inf,inf,1,1,1,1,2,1,2,3,0,0,0
40467269,0,0.0,0.0,0.298685,0.42259422,-0.033338,0.29108062,0.42253163,-0.25529203,-0.0013116952,0.004566741,0.016962482,0.00539741,-0.0016956085,0.0025202872,-0.00033973085,1.327572,2.0934036,0.17207521,-3.0559118,0.0,0.1,-0.016962482,0.005042357,0.0034618748,0.025681235,0.017024005,inf,inf,inf,inf,1,1,1,1,2,1,2,3,0,0,0
40571290,0,0.0,0.0,0.2986042,0.42258725,-0.033298314,0.29108062,0.42253163,-0.25529203,-0.005904432,-0.0052116183,0.017361512,0.0058602304,-0.0016956085,0.0025202872,-0.00033973085,-1.4083005,-1.851041,0.21457574,-3.0558987,0.0,0.1,-0.017361512,0.0052328473,0.0035854944,0.02611437,0.01727986,inf,inf,inf,inf,1,1,1,1,2,1,2,3,0,0,0
40667270,0,0.0,0.0,0.29861423,0.42246735,-0.033265896,0.29108062,0.42253163,-0.25529203,-0.007512911,-0.0018920788,0.016264068,0.0047992943,-0.0016956085,0.0025202872,-0.00033973085,-1.6350266,-0.6234822,-0.17119195,-3.055766,0.0,0.1,-0.016264068,0.005233478,0.003587244,0.026057264,0.01724616,inf,inf,inf,inf,1,1,1,1,2,1,2,3,0,0,0
40771270,0,0.0,0.0,0.29871732,0.42229128,-0.033319645,0.29108062,0.42253163,-0.25529203,-0.0023146216,0.0032360554,0.018006453,0.0065618805,-0.0016956085,0.0025202872,-0.00033973085,1.0927163,1.8066244,0.11726754,-3.0555701,0.0,0.1,-0.018006453,0.0050506173,0.0034688592,0.025614101,0.016986268,inf,inf,inf,inf,1,1,1,1,2,1,2,3,0,0,0
40875281,0,0.0,0.0,0.298913,0.42206904,-0.033326924,0.29108062,0.42253163,-0.25529203,-0.0006239573,-0.002787577,0.017402116,0.005989765,-0.0016956085,0.0025202872,-0.00033973085,0.42651287,-1.4218574,-0.4148302,-3.055854,0.0,0.1,-0.017402116,0.005253467,0.0035987059,0.026197346,0.017329508,inf,inf,inf,inf,1,1,1,1,2,1,2,3,0,0,0
40971270,0,0.0,0.0,0.29921946,0.42176235,-0.03329419,0.29108062,0.42253163,-0.25529203,-0.00052724784,-0.002396014,0.019268945,0.007900894,-0.0016956085,0.0025202872,-0.00033973085,0.68447393,1.4854538,0.59586257,-3.0557797,0.0,0.1,-0.019268945,0.0052939565,0.0036252257,0.026259396,0.017364,inf,inf,inf,inf,1,1,1,1,2,1,2,3,0,0,0
41075303,0,0.0,0.0,0.29960197,0.4215181,-0.033272,0.29108062,0.42253163,-0.25529203,0.00089485536,-0.0037929777,0.019617558,0.008297078,-0.0016956085,0.0025202872,-0.00033973085,-0.2859743,-1.0505801,0.21080925,-3.05586,0.0,0.1,-0.019617558,0.005412116,0.0037032175,0.026464207,0.017485656,inf,inf,inf,inf,1,1,1,1,2,1,2,3,0,0,0
41179270,0,0.0,0.0,0.29991674,0.4212951,-0.0333225,0.29108062,0.42253163,-0.25529203,0.00022502763,-0.0003971913,0.01794859,0.006602946,-0.0016956085,0.0025202872,-0.00033973085,1.046726,1.6074123,0.16627264,-3.055851,0.0,0.1,-0.01794859,0.005187142,0.003558009,0.025930751,0.017171778,inf,inf,inf,inf,1,1,1,1,2,1,2,3,0,0,0
41275278,0,0.0,0.0,0.30016586,0.4211177,-0.03338695,0.29108062,0.42253163,-0.25529203,0.0027813753,-0.00088642543,0.016964694,0.005621361,-0.0016956085,0.0025202872,-0.00033973085,1.723818,1.0169946,0.35142288,-3.0555995,0.0,0.1,-0.016964694,0.0051737623,0.0035496645,0.025877448,0.017142378,inf,inf,inf,inf,1,1,1,1,2,1,2,3,0,0,0
41379300,0,0.0,0.0,0.30037373,0.42101228,-0.03354733,0.29108062,0.42253163,-0.25529203,-0.003946907,-0.007414303,0.014507754,0.003182069,-0.0016956085,0.0025202872,-0.00033973085,-2.0573504,-1.8612738,-0.26312208,-3.0559702,0.0,0.1,-0.014507754,0.0052668946,0.0036106922,0.026077986,0.017258592,inf,inf,inf,inf,1,1,1,1,2,1,2,3,0,0,0
41478516,0,0.0,0.0,0.30055287,0.4209834,-0.03369414,0.29108062,0.42253163,-0.25529203,-0.0026918426,-0.0074369023,0.012819912,0.0015058761,-0.0016956085,0.0025202872,-0.00033973085,-1.5745648,-1.7044759,-0.9518932,-3.0556436,0.0,0.1,-0.012819912,0.004932367,0.0033927008,0.025316207,0.016806385,inf,inf,inf,inf,1,1,1,1,2,1,2,3,0,0,0
41583285,0,0.0,0.0,0.30062732,0.4208768,-0.033857603,0.29108062,0.42253163,-0.25529203,0.0012286754,-0.004521763,0.013754771,0.0024859344,-0.0016956085,0.0025202872,-0.00033973085,0.016217656,-0.37708807,-0.30100206,-3.0554636,0.0,0.1,-0.013754771,0.0051120943,0.0035081892,0.025810944,0.017098954,inf,inf,inf,inf,1,1,1,1,2,1,2,3,0,0,0
41686496,0,0.0,0.0,0.30072144,0.4206926,-0.034035034,0.29108062,0.42253163,-0.25529203,0.00010531431,-0.0009657958,0.016469719,0.00531744,-0.0016956085,0.0025202872,-0.00033973085,0.6258678,1.6558242,0.3488106,-3.0554929,0.0,0.1,-0.016469719,0.005290066,0.0036250958,0.026377715,0.017459786,inf,inf,inf,inf,1,1,1,1,2,1,2,3,0,0,0
41781726,0,0.0,0.0,0.30070505,0.42046556,-0.034149326,0.29108062,0.42253163,-0.25529203,-0.00084327057,-0.012097405,0.014638612,0.0036130582,-0.0016956085,0.0025202872,-0.00033973085,0.31917563,-1.9725546,0.17654388,-3.055744,0.0,0.1,-0.014638612,0.005177219,0.00355495,0.025867734,0.017156163,inf,inf,inf,inf,1,1,1,1,2,1,2,3,0,0,0
41886469,0,0.0,0.0,0.30065247,0.42041504,-0.034242414,0.29108062,0.42253163,-0.25529203,0.004588975,-0.0016930464,0.017283356,0.0063680955,-0.0016956085,0.0025202872,-0.00033973085,2.1673276,1.5344042,0.6200735,-3.0560336,0.0,0.1,-0.017283356,0.005265813,0.0036121542,0.02610404,0.017289199,inf,inf,inf,inf,1,1,1,1,2,1,2,3,0,0,0
41990475,0,0.0,0.0,0.30053392,0.42047238,-0.034324527,0.29108062,0.42253163,-0.25529203,-0.005384231,-0.0046210173,0.015718965,0.0049109766,-0.0016956085,0.0025202872,-0.00033973085,-1.8380522,-0.38129482,-0.30630845,-3.0559871,0.0,0.1,-0.015718965,0.005338176,0.0036589317,0.026271233,0.017382504,inf,inf,inf,inf,1,1,1,1,2,1,2,3,0,0,0
42086470,0,0.0,0.0,0.3004568,0.42049932,-0.034347758,0.29108062,0.42253163,-0.25529203,-0.0031615621,-0.0038730332,0.015903305,0.005180957,-0.0016956085,0.0025202872,-0.00033973085,-0.9101851,-0.47590032,-0.08434529,-3.0558329,0.0,0.1,-0.015903305,0.0049823457,0.0034266142,0.025446942,0.01688965,inf,inf,inf,inf,1,1,1,1,2,1,2,3,0,0,0
42190470,0,0.0,0.0,0.30041486,0.4206717,-0.034245454,0.29108062,0.42253163,-0.25529203,-9.751296e-06,-0.004381604,0.01703696,0.006411884,-0.0016956085,0.0025202872,-0.00033973085,0.08801131,-0.9581912,0.009301055,-3.0555396,0.0,0.1,-0.01703696,0.0051869336,0.0035563144,0.02607471,0.01725605,inf,inf,inf,inf,1,1,1,1,2,1,2,3,0,0,0
42294470,0,0.0,0.0,0.30041513,0.4209077,-0.03408898,0.29108062,0.42253163,-0.25529203,0.0005352549,-0.004251672,0.014051599,0.0035483025,-0.0016956085,0.0025202872,-0.00033973085,0.9278353,0.35180184,-0.36821336,-3.0557976,0.0,0.1,-0.014051599,0.0053829853,0.0036824334,0.026521878,0.017516935,inf,inf,inf,inf,1,1,1,1,2,1,2,3,0,0,0
42398476,0,0.0,0.0,0.30052966,0.42103806,-0.033936933,0.29108062,0.42253163,-0.25529203,-0.0018510555,-0.004357833,0.016145205,0.0057084667,-0.0016956085,0.0025202872,-0.00033973085,-1.848824,-2.2500958,0.26366153,-3.0558617,0.0,0.1,-0.016145205,0.0052021705,0.003565988,0.026043816,0.017235147,inf,inf,inf,inf,1,1,1,1,2,1,2,3,0,0,0
42502471,0,0.0,0.0,0.30064496,0.4211807,-0.033718243,0.29108062,0.42253163,-0.25529203,0.0060810293,-0.0005351583,0.018001009,0.007597258,-0.0016956085,0.0025202872,-0.00033973085,1.5402187,-0.22148763,-0.018237973,-3.0557277,0.0,0.1,-0.018001009,0.0050221076,0.0034502808,0.02552335,0.016930083,inf,inf,inf,inf,1,1,1,1,2,1,2,3,0,0,0
42606469,0,0.0,0.0,0.30071205,0.42137384,-0.033489965,0.29108062,0.42253163,-0.25529203,0.0011941529,0.00028997322,0.01733971,0.0069174776,-0.0016956085,0.0025202872,-0.00033973085,0.9162086,1.1326393,0.055252418,-3.0561147,0.0,0.1,-0.01733971,0.0052018934,0.003566138,0.02600475,0.017212778,inf,inf,inf,inf,1,1,1,1,2,1,2,3,0,0,0
42702476,0,0.0,0.0,0.30078924,0.42151442,-0.033338692,0.29108062,0.42253163,-0.25529203,-0.0037629316,-0.0024286262,0.018154318,0.0077027148,-0.0016956085,0.0025202872,-0.00033973085,-1.4349108,-0.3138897,-0.06789445,-3.0560396,0.0,0.1,-0.018154318,0.0051722038,0.0035482312,0.02587096,0.017134713,inf,inf,inf,inf,1,1,1,1,2,1,2,3,0,0,0
42806470,0,0.0,0.0,0.3009216,0.4216885,-0.033261325,0.29108062,0.42253163,-0.25529203,-0.00033785382,-0.001064972,0.017203903,0.0066810586,-0.0016956085,0.0025202872,-0.00033973085,-1.2077508,-0.3433716,-0.3804351,-3.0558183,0.0,0.1,-0.017203903,0.005369983,0.0036742764,0.026457876,0.017478408,inf,inf,inf,inf,1,1,1,1,2,1,2,3,0,0,0
42909670,0,0.0,0.0,0.30101326,0.4217118,-0.03320776,0.29108062,0.42253163,-0.25529203,0.006104412,0.00053601305,0.016889757,0.0062612416,-0.0016956085,0.0025202872,-0.00033973085,1.335546,1.695568,0.1213496,-3.0558274,0.0,0.1,-0.016889757,0.0051955325,0.003561556,0.026029699,0.017229198,inf,inf,inf,inf,1,1,1,1,2,1,2,3,0,0,0
43006504,0,0.0,0.0,0.3013242,0.4217668,-0.033109475,0.29108062,0.42253163,-0.25529203,0.0054609994,0.0005181032,0.015505752,0.004826444,-0.0016956085,0.0025202872,-0.00033973085,0.8679348,1.4503767,-0.108924784,-3.0557554,0.0,0.1,-0.015505752,0.00516703,0.0035450356,0.025846913,0.017124467,inf,inf,inf,inf,1,1,1,1,2,1,2,3,0,0,0
43109670,0,0.0,0.0,0.3017832,0.4220426,-0.033049893,0.29108062,0.42253163,-0.25529203,0.0013920935,0.0009069452,0.015498194,0.0047548222,-0.0016956085,0.0025202872,-0.00033973085,-1.1916435,-1.2574017,-0.2916916,-3.0555353,0.0,0.1,-0.015498194,0.005252263,0.003601053,0.026012376,0.017215658,inf,inf,inf,inf,1,1,1,1,2,1,2,3,0,0,0
43213670,0,0.0,0.0,0.30217013,0.4222505,-0.033007596,0.29108062,0.42253163,-0.25529203,0.008386485,0.0016176589,0.0190888,0.008259765,-0.0016956085,0.0025202872,-0.00033973085,1.41071,-0.72449327,-0.17966521,-3.0553877,0.0,0.1,-0.0190888,0.0053783734,0.0036819167,0.026382457,0.01743428,inf,inf,inf,inf,1,1,1,1,2,1,2,3,0,0,0
43317669,0,0.0,0.0,0.3025061,0.42237315,-0.033049412,0.29108062,0.42253163,-0.25529203,0.001687358,-0.0013749485,0.017738655,0.0068066763,-0.0016956085,0.0025202872,-0.00033973085,-0.2863233,-0.26891503,-0.32881778,-3.0558906,0.0,0.1,-0.017738655,0.005131373,0.0035222245,0.025794093,0.01709042,inf,inf,inf,inf,1,1,1,1,2,1,2,3,0,0,0
43413670,0,0.0,0.0,0.3027403,0.42232892,-0.03309806,0.29108062,0.42253163,-0.25529203,-0.00016892057,-0.0018720011,0.017192176,0.0062067276,-0.0016956085,0.0025202872,-0.00033973085,-1.9505254,-1.2310697,-0.7463643,-3.0559301,0.0,0.1,-0.017192176,0.0051513617,0.0035340341,0.025897272,0.017151494,inf,inf,inf,inf,1,1,1,1,2,1,2,3,0,0,0
43517678,0,0.0,0.0,0.30285576,0.4222997,-0.033143915,0.29108062,0.42253163,-0.25529203,0.0025756287,-0.0033080468,0.01809436,0.0070484634,-0.0016956085,0.0025202872,-0.00033973085,-1.4282331,-1.0417691,-0.20108995,-3.055848,0.0,0.1,-0.01809436,0.0050641373,0.0034752795,0.02578044,0.017082658,inf,inf,inf,inf,1,1,1,1,2,1,2,3,0,0,0
43621670,0,0.0,0.0,0.30282122,0.42221427,-0.03310423,0.29108062,0.42253163,-0.25529203,0.007898384,0.0018683485,0.018345512,0.0072412463,-0.0016956085,0.0025202872,-0.00033973085,2.2109075,1.457025,0.50063515,-3.0559273,0.0,0.1,-0.018345512,0.0050216992,0.0034465755,0.025692793,0.017032837,inf,inf,inf,inf,1,1,1,1,2,1,2,3,0,0,0
43725670,0,0.0,0.0,0.3026555,0.42202437,-0.033027012,0.29108062,0.42253163,-0.25529203,8.814833e-05,-0.0056973677,0.017339045,0.006228091,-0.0016956085,0.0025202872,-0.00033973085,-0.78788465,-1.0360068,0.30851695,-3.0558195,0.0,0.1,-0.017339045,0.005202183,0.0035654977,0.026015138,0.017222054,inf,inf,inf,inf,1,1,1,1,2,1,2,3,0,0,0
43829676,0,0.0,0.0,0.30236408,0.42182213,-0.032989062,0.29108062,0.42253163,-0.25529203,-0.0010727828,-0.0067988564,0.017912775,0.0067844107,-0.0016956085,0.0025202872,-0.00033973085,-1.4183602,-1.9608226,-0.5575136,-3.0557761,0.0,0.1,-0.017912775,0.0053205495,0.003644446,0.026200078,0.017333047,inf,inf,inf,inf,1,1,1,1,2,1,2,3,0,0,0
43933670,0,0.0,0.0,0.30201977,0.4216197,-0.032994263,0.29108062,0.42253163,-0.25529203,0.0055813887,0.003535143,0.017220333,0.0060516954,-0.0016956085,0.0025202872,-0.00033973085,1.9534081,1.7294527,0.11375988,-3.0559456,0.0,0.1,-0.017220333,0.0053980886,0.0036960884,0.02635534,0.017423278,inf,inf,inf,inf,1,1,1,1,2,1,2,3,0,0,0
44029689,0,0.0,0.0,0.30171934,0.42133245,-0.033066116,0.29108062,0.42253163,-0.25529203,0.0015209236,-0.0025504641,0.018340204,0.0070930603,-0.0016956085,0.0025202872,-0.00033973085,1.0358547,1.10024,-0.0071846545,-3.0558426,0.0,0.1,-0.018340204,0.005047635,0.0034680816,0.025584443,0.016970264,inf,inf,inf,inf,1,1,1,1,2,1,2,3,0,0,0
44133676,0,0.0,0.0,0.30143872,0.42112544,-0.033184156,0.29108062,0.42253163,-0.25529203,-0.0046204147,-0.00446779,0.015749758,0.004457476,-0.0016956085,0.0025202872,-0.00033973085,-1.6492802,0.029839765,-0.3211744,-3.055651,0.0,0.1,-0.015749758,0.0052440963,0.0035935198,0.02615471,0.017306698,inf,inf,inf,inf,1,1,1,1,2,1,2,3,0,0,0
44236894,0,0.0,0.0,0.30115798,0.42099681,-0.033298306,0.29108062,0.42253163,-0.25529203,4.9290997e-05,0.005365515,0.016624868,0.0053289603,-0.0016956085,0.0025202872,-0.00033973085,-0.09443697,1.5731814,-0.036793623,-3.055516,0.0,0.1,-0.016624868,0.0053904587,0.0036887429,0.026466299,0.017489053,inf,inf,inf,inf,1,1,1,1,2,1,2,3,0,0,0
44335270,0,0.0,0.0,0.30085176,0.4209357,-0.033319928,0.29108062,0.42253163,-0.25529203,0.0015787077,-0.00076359353,0.016679408,0.0053962353,-0.0016956085,0.0025202872,-0.00033973085,1.3171537,0.4241558,0.4723956,-3.0558577,0.0,0.1,-0.016679408,0.005037486,0.0034608538,0.025574496,0.016963448,inf,inf,inf,inf,1,1,1,1,2,1,2,3,0,0,0
44436877,0,0.0,0.0,0.30072287,0.42101628,-0.03338186,0.29108062,0.42253163,-0.25529203,-0.003730215,-0.004554778,0.016108524,0.0048602796,-0.0016956085,0.0025202872,-0.00033973085,-2.1396694,-2.1674328,-0.0018312356,-3.0561538,0.0,0.1,-0.016108524,0.0052365325,0.003589217,0.026195632,0.017342377,inf,inf,inf,inf,1,1,1,1,2,1,2,3,0,0,0
44540870,0,0.0,0.0,0.3007076,0.42128754,-0.033376683,0.29108062,0.42253163,-0.25529203,0.0006254615,0.00089204696,0.01885424,0.0076159853,-0.0016956085,0.0025202872,-0.00033973085,-0.32450673,-1.3054572,0.11891957,-3.0560079,0.0,0.1,-0.01885424,0.0050703133,0.003481241,0.025714211,0.017052788,inf,inf,inf,inf,1,1,1,1,2,1,2,3,0,0,0
44644870,0,0.0,0.0,0.30075723,0.4215808,-0.033263702,0.29108062,0.42253163,-0.25529203,0.0045396453,0.0050381864,0.018471058,0.007268143,-0.0016956085,0.0025202872,-0.00033973085,2.490596,1.9981425,-0.15694374,-3.0560696,0.0,0.1,-0.018471058,0.0051832385,0.0035562564,0.025859315,0.017134141,inf,inf,inf,inf,1,1,1,1,2,1,2,3,0,0,0
44748891,0,0.0,0.0,0.30087462,0.42185703,-0.033074602,0.29108062,0.42253163,-0.25529203,-0.003314178,-0.001759513,0.017731491,0.0065534827,-0.0016956085,0.0025202872,-0.00033973085,-1.2995353,-0.29090965,-0.36028194,-3.055857,0.0,0.1,-0.017731491,0.004939091,0.0033989851,0.025207428,0.016746765,inf,inf,inf,inf,1,1,1,1,2,1,2,3,0,0,0
44844870,0,0.0,0.0,0.3009547,0.421998,-0.03289295,0.29108062,0.42253163,-0.25529203,-0.0020139948,0.00027578272,0.018356316,0.0071742153,-0.0016956085,0.0025202872,-0.00033973085,-1.2966084,0.7571707,-0.37020168,-3.0555282,0.0,0.1,-0.018356316,0.005320678,0.0036437328,0.026316265,0.017400485,inf,inf,inf,inf,1,1,1,1,2,1,2,3,0,0,0
44948870,0,0.0,0.0,0.30094928,0.42205387,-0.032682437,0.29108062,0.42253163,-0.25529203,-2.0614954e-05,0.0008720689,0.020253181,0.009038314,-0.0016956085,0.0025202872,-0.00033973085,-0.9815491,-0.46677506,0.22603069,-3.0558558,0.0,0.1,-0.020253181,0.005074885,0.003486467,0.025597345,0.016980305,inf,inf,inf,inf,1,1,1,1,2,1,2,3,0,0,0
45052871,0,0.0,0.0,0.30079982,0.42184153,-0.032525145,0.29108062,0.42253163,-0.25529203,0.0013431868,0.0013549428,0.020430276,0.009107268,-0.0016956085,0.0025202872,-0.00033973085,1.4377334,1.0647768,0.33126047,-3.055683,0.0,0.1,-0.020430276,0.0052392324,0.0035915442,0.026093943,0.017273178,inf,inf,inf,inf,1,1,1,1,2,1,2,3,0,0,0
45148870,0,0.0,0.0,0.30066586,0.4216075,-0.03250707,0.29108062,0.42253163,-0.25529203,-0.001660247,-0.0027662967,0.0182152,0.006802603,-0.0016956085,0.0025202872,-0.00033973085,0.19570506,-0.022365721,0.56221795,-3.0558658,0.0,0.1,-0.0182152,0.005246018,0.003596022,0.026093908,0.017273078,inf,inf,inf,inf,1,1,1,1,2,1,2,3,0,0,0
45252870,0,0.0,0.0,0.30055603,0.42121416,-0.03252655,0.29108062,0.42253163,-0.25529203,-0.0040989467,-0.0057504936,0.017036721,0.0055294973,-0.0016956085,0.0025202872,-0.00033973085,-0.62515444,-1.1168236,-0.82636255,-3.0555127,0.0,0.1,-0.017036721,0.005334825,0.0036548886,0.026241397,0.017359627,inf,inf,inf,inf,1,1,1,1,2,1,2,3,0,0,0
45356876,0,0.0,0.0,0.3005354,0.4208539,-0.032643635,0.29108062,0.42253163,-0.25529203,0.0008834947,-0.0037261257,0.017277649,0.005650057,-0.0016956085,0.0025202872,-0.00033973085,0.14725128,-0.53791016,-0.45412692,-3.0554893,0.0,0.1,-0.017277649,0.0054549235,0.0037319828,0.026577245,0.017553428,inf,inf,inf,inf,1,1,1,1,2,1,2,3,0,0,0
45556868,0,0.0,0.0,0.30061558,0.42010012,-0.032980952,0.29108062,0.42253163,-0.25529203,0.00013520913,0.00021789825,0.017624704,0.0057987673,-0.0016956085,0.0025202872,-0.00033973085,0.5599765,2.9619632,0.28032038,-3.0555696,0.0,0.1,-0.017624704,0.0052913497,0.0036235936,0.026323032,0.01740967,inf,inf,inf,inf,1,1,1,1,2,1,2,3,0,0,0
45660099,0,0.0,0.0,0.30086458,0.41999015,-0.033136573,0.29108062,0.42253163,-0.25529203,-0.002782493,-0.0061131637,0.016926896,0.005094159,-0.0016956085,0.0025202872,-0.00033973085,-2.001104,-1.0578121,-0.21794273,-3.0559442,0.0,0.1,-0.016926896,0.005135726,0.0035232548,0.025894593,0.017158125,inf,inf,inf,inf,1,1,1,1,2,1,2,3,0,0,0
45764097,0,0.0,0.0,0.30104852,0.41993248,-0.03322211,0.29108062,0.42253163,-0.25529203,0.0054844692,-0.0018195759,0.020991448,0.009196787,-0.0016956085,0.0025202872,-0.00033973085,1.430986,-0.41407576,0.1341979,-3.0559063,0.0,0.1,-0.020991448,0.005321951,0.0036442196,0.026306776,0.017403215,inf,inf,inf,inf,1,1,1,1,2,1,2,3,0,0,0
45860071,0,0.0,0.0,0.30124784,0.42006287,-0.03324653,0.29108062,0.42253163,-0.25529203,0.0034406537,-0.00095978065,0.01902868,0.0072465977,-0.0016956085,0.0025202872,-0.00033973085,0.2899258,-0.6353674,0.20704253,-3.0557184,0.0,0.1,-0.01902868,0.005017829,0.0034476796,0.02555577,0.016961057,inf,inf,inf,inf,1,1,1,1,2,1,2,3,0,0,0
45964076,0,0.0,0.0,0.3014421,0.4203212,-0.03323403,0.29108062,0.42253163,-0.25529203,0.0033478062,0.001797668,0.019334316,0.007577428,-0.0016956085,0.0025202872,-0.00033973085,1.5049696,1.7520345,0.16146442,-3.0557318,0.0,0.1,-0.019334316,0.0049484237,0.0034004934,0.025466125,0.016906766,inf,inf,inf,inf,1,1,1,1,2,1,2,3,0,0,0
46068081,0,0.0,0.0,0.30158293,0.42055723,-0.03314208,0.29108062,0.42253163,-0.25529203,-0.0033730243,-0.0051630293,0.015956853,0.0042576618,-0.0016956085,0.0025202872,-0.00033973085,-1.5572436,-1.2568054,-0.7012675,-3.0556018,0.0,0.1,-0.015956853,0.0049230233,0.0033827648,0.025450287,0.016893892,inf,inf,inf,inf,1,1,1,1,2,1,2,3,0,0,0
46164070,0,0.0,0.0,0.30170733,0.42068726,-0.033060614,0.29108062,0.42253163,-0.25529203,-0.001344542,-0.0015246677,0.016933233,0.0052999724,-0.0016956085,0.0025202872,-0.00033973085,-0.66960084,0.78352445,-0.3232116,-3.0555255,0.0,0.1,-0.016933233,0.00506453,0.0034748772,0.02575499,0.017076952,inf,inf,inf,inf,1,1,1,1,2,1,2,3,0,0,0
46268084,0,0.0,0.0,0.3017916,0.42078972,-0.03300991,0.29108062,0.42253163,-0.25529203,-0.0020079967,-0.0041229627,0.017856663,0.0062399693,-0.0016956085,0.0025202872,-0.00033973085,-1.6743993,-1.4988834,-0.23503236,-3.0556686,0.0,0.1,-0.017856663,0.0049661454,0.0034127499,0.025410311,0.016876003,inf,inf,inf,inf,1,1,1,1,2,1,2,3,0,0,0
46372070,0,0.0,0.0,0.30181208,0.42070597,-0.032936987,0.29108062,0.42253163,-0.25529203,0.0026928158,-0.00089781336,0.020288235,0.0086539835,-0.0016956085,0.0025202872,-0.00033973085,0.66021675,0.42449147,0.048776094,-3.0554938,0.0,0.1,-0.020288235,0.005186923,0.0035560937,0.02598152,0.017214093,inf,inf,inf,inf,1,1,1,1,2,1,2,3,0,0,0
46468071,0,0.0,0.0,0.3017789,0.42051098,-0.032965146,0.29108062,0.42253163,-0.25529203,0.0015858047,-0.0010338759,0.018388767,0.006739229,-0.0016956085,0.0025202872,-0.00033973085,0.004245971,0.5487569,-0.14250942,-3.0553236,0.0,0.1,-0.018388767,0.0052136276,0.0035749332,0.025982305,0.01721368,inf,inf,inf,inf,1,1,1,1,2,1,2,3,0,0,0
46572089,0,0.0,0.0,0.30168435,0.42028952,-0.03308181,0.29108062,0.42253163,-0.25529203,0.0022329348,0.0012725334,0.017545285,0.005884361,-0.0016956085,0.0025202872,-0.00033973085,1.4284711,1.7118536,0.026460368,-3.0552723,0.0,0.1,-0.017545285,0.0053218543,0.0036468874,0.02618045,0.017335737,inf,inf,inf,inf,1,1,1,1,2,1,2,3,0,0,0
46676071,0,0.0,0.0,0.3015226,0.42010677,-0.03326236,0.29108062,0.42253163,-0.25529203,-0.0033077202,-0.003924136,0.014525166,0.0028062074,-0.0016956085,0.0025202872,-0.00033973085,-0.33491108,0.20062907,-0.20875531,-3.0556755,0.0,0.1,-0.014525166,0.005151157,0.0035350525,0.02586619,0.017146952,inf,inf,inf,inf,1,1,1,1,2,1,2,3,0,0,0
46780076,0,0.0,0.0,0.30141076,0.41995642,-0.033430703,0.29108062,0.42253163,-0.25529203,-0.003437293,-0.0043654,0.0157285,0.004043296,-0.0016956085,0.0025202872,-0.00033973085,-1.0191721,-1.1917577,-0.01902198,-3.0554633,0.0,0.1,-0.0157285,0.0052605825,0.003607114,0.026076008,0.01726779,inf,inf,inf,inf,1,1,1,1,2,1,2,3,0,0,0
46884070,0,0.0,0.0,0.30140105,0.4199464,-0.033667743,0.29108062,0.42253163,-0.25529203,-0.0009210565,-0.005274474,0.016759027,0.0050621713,-0.0016956085,0.0025202872,-0.00033973085,-0.15449862,-2.3333523,-0.57455444,-3.0553339,0.0,0.1,-0.016759027,0.004841498,0.0033321534,0.02519023,0.01674404,inf,inf,inf,inf,1,1,1,1,2,1,2,3,0,0,0
46983303,0,0.0,0.0,0.3014747,0.42001417,-0.033761024,0.29108062,0.42253163,-0.25529203,-0.0054985695,-0.0062083704,0.01823314,0.0065900865,-0.0016956085,0.0025202872,-0.00033973085,-2.1085851,-1.0768547,-0.40301025,-3.0556169,0.0,0.1,-0.01823314,0.005011239,0.0034397764,0.02573567,0.017062996,inf,inf,inf,inf,1,1,1,1,2,1,2,3,0,0,0
47087270,0,0.0,0.0,0.3017417,0.42023322,-0.0337857,0.29108062,0.42253163,-0.25529203,0.003070019,-0.0031771718,0.018272657,0.006733432,-0.0016956085,0.0025202872,-0.00033973085,0.31659636,-2.175165,-0.16270892,-3.0557306,0.0,0.1,-0.018272657,0.0050245593,0.0034477077,0.025753729,0.017078362,inf,inf,inf,inf,1,1,1,1,2,1,2,3,0,0,0
47183310,0,0.0,0.0,0.3021384,0.42059636,-0.03363772,0.29108062,0.42253163,-0.25529203,0.0025080582,-0.005061599,0.018839048,0.007465178,-0.0016956085,0.0025202872,-0.00033973085,0.06990886,-2.0203273,0.19894512,-3.0556667,0.0,0.1,-0.018839048,0.0051321294,0.003520683,0.025995575,0.017249975,inf,inf,inf,inf,1,1,1,1,2,1,2,3,0,0,0
47287309,0,0.0,0.0,0.30245632,0.42090124,-0.0333425,0.29108062,0.42253163,-0.25529203,0.0077161235,0.0056598177,0.018975534,0.0077513955,-0.0016956085,0.0025202872,-0.00033973085,2.3519084,2.2913883,0.36551675,-3.0557683,0.0,0.1,-0.018975534,0.005252006,0.0036025348,0.026108546,0.017319163,inf,inf,inf,inf,1,1,1,1,2,1,2,3,0,0,0
47391270,0,0.0,0.0,0.30263272,0.4210524,-0.033013165,0.29108062,0.42253163,-0.25529203,-8.985353e-05,0.0016761227,0.020429453,0.009257497,-0.0016956085,0.0025202872,-0.00033973085,0.09134983,0.83353513,0.41376692,-3.0555787,0.0,0.1,-0.020429453,0.005336935,0.003659608,0.026232004,0.017385961,inf,inf,inf,inf,1,1,1,1,2,1,2,3,0,0,0
47487293,0,0.0,0.0,0.3026802,0.4211343,-0.032769762,0.29108062,0.42253163,-0.25529203,-0.00020243284,0.0035036777,0.02250873,0.011300663,-0.0016956085,0.0025202872,-0.00033973085,0.35454506,2.2811244,0.38767627,-3.055116,0.0,0.1,-0.02250873,0.005306276,0.0036390875,0.02621429,0.017369311,inf,inf,inf,inf,1,1,1,1,2,1,2,3,0,0,0
47591281,0,0.0,0.0,0.30260602,0.4211372,-0.032639608,0.29108062,0.42253163,-0.25529203,-0.008680678,-0.003020512,0.020339137,0.009048738,-0.0016956085,0.0025202872,-0.00033973085,-2.7978268,-0.86347955,-0.17245881,-3.0557113,0.0,0.1,-0.020339137,0.005112145,0.003512123,0.025759915,0.017092546,inf,inf,inf,inf,1,1,1,1,2,1,2,3,0,0,0
47695270,0,0.0,0.0,0.302434,0.42096955,-0.03259838,0.29108062,0.42253163,-0.25529203,0.00064075243,-0.0030678664,0.018640976,0.007227148,-0.0016956085,0.0025202872,-0.00033973085,0.12425946,-1.4776431,-0.14300258,-3.0553641,0.0,0.1,-0.018640976,0.005246291,0.0035984537,0.026107151,0.01729346,inf,inf,inf,inf,1,1,1,1,2,1,2,3,0,0,0
47791272,0,0.0,0.0,0.30224672,0.42084694,-0.03268869,0.29108062,0.42253163,-0.25529203,-0.00174146,-0.0074792993,0.016696652,0.005144976,-0.0016956085,0.0025202872,-0.00033973085,-1.1235509,-2.0375981,-0.2978669,-3.0552106,0.0,0.1,-0.016696652,0.005284083,0.003621549,0.026236309,0.017367907,inf,inf,inf,inf,1,1,1,1,2,1,2,3,0,0,0
47895276,0,0.0,0.0,0.3020285,0.42064285,-0.032895923,0.29108062,0.42253163,-0.25529203,0.003570022,-0.0020046933,0.0185741,0.0068830275,-0.0016956085,0.0025202872,-0.00033973085,1.1394749,-0.9298544,0.5919414,-3.0557547,0.0,0.1,-0.0185741,0.005125708,0.0035185684,0.025832864,0.017128764,inf,inf,inf,inf,1,1,1,1,2,1,2,3,0,0,0
47999288,0,0.0,0.0,0.3018195,0.42034593,-0.033117644,0.29108062,0.42253163,-0.25529203,-6.5821423e-06,0.0020667065,0.016863527,0.005092781,-0.0016956085,0.0025202872,-0.00033973085,0.93712735,1.5558119,0.5133531,-3.0553832,0.0,0.1,-0.016863527,0.005284975,0.003622012,0.026198458,0.017344266,inf,inf,inf,inf,1,1,1,1,2,1,2,3,0,0,0
48103297,0,0.0,0.0,0.30161744,0.42014962,-0.033303022,0.29108062,0.42253163,-0.25529203,8.847498e-05,5.553412e-05,0.017715376,0.0059352266,-0.0016956085,0.0025202872,-0.00033973085,0.9136278,2.3154867,0.3628722,-3.0551412,0.0,0.1,-0.017715376,0.0053669265,0.0036771838,0.026290612,0.017403485,inf,inf,inf,inf,1,1,1,1,2,1,2,3,0,0,0
48207311,0,0.0,0.0,0.30141646,0.42003185,-0.03350597,0.29108062,0.42253163,-0.25529203,-0.0072552077,-0.005060562,0.012431501,0.0006429626,-0.0016956085,0.0025202872,-0.00033973085,-2.188249,-1.1829218,-0.9072811,-3.0556102,0.0,0.1,-0.012431501,0.0051794625,0.0035543514,0.025935287,0.017191464,inf,inf,inf,inf,1,1,1,1,2,1,2,3,0,0,0
48302479,0,0.0,0.0,0.30126965,0.41986567,-0.03367509,0.29108062,0.42253163,-0.25529203,-0.004533372,-0.0039726817,0.013972999,0.0022437219,-0.0016956085,0.0025202872,-0.00033973085,-1.2317361,-0.90863764,-0.27153984,-3.0552444,0.0,0.1,-0.013972999,0.005156013,0.0035399853,0.025829496,0.017129954,inf,inf,inf,inf,1,1,1,1,2,1,2,3,0,0,0
48406470,0,0.0,0.0,0.30115774,0.420042,-0.033854734,0.29108062,0.42253163,-0.25529203,-0.005404805,-0.008839765,0.015835956,0.0042042425,-0.0016956085,0.0025202872,-0.00033973085,-0.90445346,-2.8754117,0.010202688,-3.0550656,0.0,0.1,-0.015835956,0.0052582244,0.0036067504,0.026069656,0.017270183,inf,inf,inf,inf,1,1,1,1,2,1,2,3,0,0,0
48510483,0,0.0,0.0,0.3010919,0.42026263,-0.034021754,0.29108062,0.42253163,-0.25529203,-0.0030812332,-0.0039041666,0.01830419,0.006766333,-0.0016956085,0.0025202872,-0.00033973085,-0.51328444,-2.542197,0.045459837,-3.0553029,0.0,0.1,-0.01830419,0.005371286,0.0036796643,0.026376553,0.017450716,inf,inf,inf,inf,1,1,1,1,2,1,2,3,0,0,0
48606506,0,0.0,0.0,0.3010731,0.420334,-0.034181047,0.29108062,0.42253163,-0.25529203,-0.005666343,0.00018140477,0.015944332,0.0044793426,-0.0016956085,0.0025202872,-0.00033973085,-1.3542778,-0.75111896,0.052226033,-3.0552924,0.0,0.1,-0.015944332,0.005034381,0.0034600054,0.025597591,0.016992029,inf,inf,inf,inf,1,1,1,1,2,1,2,3,0,0,0
48710470,0,0.0,0.0,0.30108753,0.42041126,-0.03423076,0.29108062,0.42253163,-0.25529203,-0.003004253,-0.0044037374,0.0156382,0.0042952294,-0.0016956085,0.0025202872,-0.00033973085,-0.027188879,-1.7951059,-0.05563413,-3.055232,0.0,0.1,-0.0156382,0.0052413265,0.0035927887,0.026164716,0.017333843,inf,inf,inf,inf,1,1,1,1,2,1,2,3,0,0,0
48814485,0,0.0,0.0,0.30104247,0.42039168,-0.034190863,0.29108062,0.42253163,-0.25529203,0.00042382447,-0.00032153295,0.015210397,0.0040235235,-0.0016956085,0.0025202872,-0.00033973085,1.4254726,0.7732228,0.43262857,-3.055335,0.0,0.1,-0.015210397,0.0053730262,0.0036795693,0.026398364,0.017472712,inf,inf,inf,inf,1,1,1,1,2,1,2,3,0,0,0
48918470,0,0.0,0.0,0.3010172,0.420185,-0.03409534,0.29108062,0.42253163,-0.25529203,-0.0034666525,0.00090456294,0.017293101,0.0062310146,-0.0016956085,0.0025202872,-0.00033973085,0.33664054,0.32572457,0.45000473,-3.0552173,0.0,0.1,-0.017293101,0.00510726,0.0035096314,0.02564501,0.017029025,inf,inf,inf,inf,1,1,1,1,2,1,2,3,0,0,0
49022500,0,0.0,0.0,0.30099654,0.4199137,-0.03396376,0.29108062,0.42253163,-0.25529203,-0.0020460591,0.0015401074,0.016500423,0.0055384785,-0.0016956085,0.0025202872,-0.00033973085,0.7524768,2.2045202,-0.07228785,-3.055097,0.0,0.1,-0.016500423,0.0051660007,0.003549184,0.025743075,0.017089024,inf,inf,inf,inf,1,1,1,1,2,1,2,3,0,0,0
49118470,0,0.0,0.0,0.3010315,0.41967756,-0.033843867,0.29108062,0.42253163,-0.25529203,-0.0013687811,0.00049810304,0.01835176,0.0074464516,-0.0016956085,0.0025202872,-0.00033973085,1.967159,1.0695415,0.03320251,-3.0552976,0.0,0.1,-0.01835176,0.0051128743,0.003513951,0.02568967,0.017057652,inf,inf,inf,inf,1,1,1,1,2,1,2,3,0,0,0
49222470,0,0.0,0.0,0.30115634,0.41934127,-0.033723217,0.29108062,0.42253163,-0.25529203,-0.0016728217,-0.00039103476,0.019360734,0.008473965,-0.0016956085,0.0025202872,-0.00033973085,0.47403094,1.7895098,0.48487997,-3.0552092,0.0,0.1,-0.019360734,0.004993405,0.003433508,0.025538683,0.016965456,inf,inf,inf,inf,1,1,1,1,2,1,2,3,0,0,0
49326482,0,0.0,0.0,0.3013139,0.41912192,-0.033584982,0.29108062,0.42253163,-0.25529203,-0.006632819,-0.00027315164,0.020540921,0.009656365,-0.0016956085,0.0025202872,-0.00033973085,-1.2135189,2.352005,0.67748976,-3.0551088,0.0,0.1,-0.020540921,0.0051761926,0.0035519882,0.025983859,0.017230019,inf,inf,inf,inf,1,1,1,1,2,1,2,3,0,0,0
49422476,0,0.0,0.0,0.3014815,0.4190038,-0.03341622,0.29108062,0.42253163,-0.25529203,0.0016192723,0.001263015,0.02116361,0.01027096,-0.0016956085,0.0025202872,-0.00033973085,1.9498804,1.6743364,0.63245,-3.0553946,0.0,0.1,-0.02116361,0.005158048,0.0035418991,0.025832444,0.017142778,inf,inf,inf,inf,1,1,1,1,2,1,2,3,0,0,0
49526470,0,0.0,0.0,0.30171594,0.4188319,-0.033286687,0.29108062,0.42253163,-0.25529203,-0.0038566245,-0.0020416235,0.018586185,0.0076698377,-0.0016956085,0.0025202872,-0.00033973085,-0.78065157,1.2105814,0.05884003,-3.0549738,0.0,0.1,-0.018586185,0.0052605784,0.0036094715,0.026048914,0.017271886,inf,inf,inf,inf,1,1,1,1,2,1,2,3,0,0,0
49630469,0,0.0,0.0,0.30190247,0.4187173,-0.033354055,0.29108062,0.42253163,-0.25529203,-0.0018509111,-0.0065366197,0.015711432,0.004736743,-0.0016956085,0.0025202872,-0.00033973085,-0.05782125,1.1338416,-0.13194287,-3.0546439,0.0,0.1,-0.015711432,0.0050090835,0.003446661,0.025417477,0.016897509,inf,inf,inf,inf,1,1,1,1,2,1,2,3,0,0,0
49725699,0,0.0,0.0,0.3019928,0.41859934,-0.033545386,0.29108062,0.42253163,-0.25529203,-0.0061586183,-0.005610589,0.012573049,0.0015256079,-0.0016956085,0.0025202872,-0.00033973085,-0.85496837,0.25043675,-0.04883651,-3.0551891,0.0,0.1,-0.012573049,0.0053617503,0.0036739856,0.026391769,0.017475555,inf,inf,inf,inf,1,1,1,1,2,1,2,3,0,0,0
49829714,0,0.0,0.0,0.30177552,0.4182559,-0.03386721,0.29108062,0.42253163,-0.25529203,-0.0064019104,-0.008196537,0.013127057,0.0020103222,-0.0016956085,0.0025202872,-0.00033973085,-0.90651983,-1.4391195,0.03934329,-3.0552552,0.0,0.1,-0.013127057,0.0052027856,0.0035697012,0.026069464,0.017288212,inf,inf,inf,inf,1,1,1,1,2,1,2,3,0,0,0
49933676,0,0.0,0.0,0.30148157,0.41799092,-0.034250773,0.29108062,0.42253163,-0.25529203,-0.008123195,-0.012689104,0.014720315,0.003599437,-0.0016956085,0.0025202872,-0.00033973085,-1.4179734,-2.5705104,-0.2941393,-3.0551527,0.0,0.1,-0.014720315,0.005343382,0.0036615052,0.026370373,0.017465323,inf,inf,inf,inf,1,1,1,1,2,1,2,3,0,0,0
50845673,0,0.0,0.0,0.3031185,0.41790482,-0.034687884,0.29108062,0.42253163,-0.25529203,-0.003010051,-0.006676009,0.016605377,0.006855154,-0.0016956085,0.0025202872,-0.00033973085,-1.8866708,-1.8830173,-0.38804904,-3.0549386,0.0,0.1,-0.016605377,0.0050057387,0.0034424148,0.025511118,0.016972737,inf,inf,inf,inf,1,1,1,1,2,1,2,3,0,0,0
50949670,0,0.0,0.0,0.30361158,0.4181415,-0.034443393,0.29108062,0.42253163,-0.25529203,0.0033943097,-0.007964973,0.015513765,0.005827722,-0.0016956085,0.0025202872,-0.00033973085,-0.277694,-1.3751241,-0.1648233,-3.0548983,0.0,0.1,-0.015513765,0.0052302973,0.00358782,0.026105046,0.017322622,inf,inf,inf,inf,1,1,1,1,2,1,2,3,0,0,0
51052870,0,0.0,0.0,0.30407318,0.4182288,-0.034289647,0.29108062,0.42253163,-0.25529203,0.007891736,-0.0058781826,0.014137781,0.004505162,-0.0016956085,0.0025202872,-0.00033973085,1.2623261,-0.80905783,0.016432095,-3.0546248,0.0,0.1,-0.014137781,0.0053507364,0.0036684568,0.02628232,0.01742877,inf,inf,inf,inf,1,1,1,1,2,1,2,3,0,0,0
51148898,0,0.0,0.0,0.30469587,0.41813257,-0.0342015,0.29108062,0.42253163,-0.25529203,0.009439043,-0.00483467,0.016661454,0.007005932,-0.0016956085,0.0025202872,-0.00033973085,0.30995256,-0.89794385,0.5833667,-3.0551271,0.0,0.1,-0.016661454,0.0053102574,0.003643371,0.026162378,0.017364759,inf,inf,inf,inf,1,1,1,1,2,1,2,3,0,0,0
51252870,0,0.0,0.0,0.30547267,0.4181857,-0.03411792,0.29108062,0.42253163,-0.25529203,0.0127745345,0.00032952082,0.017086847,0.0073505025,-0.0016956085,0.0025202872,-0.00033973085,1.5081064,0.89150363,0.31521258,-3.055045,0.0,0.1,-0.017086847,0.0051334067,0.0035273226,0.025851594,0.017181752,inf,inf,inf,inf,1,1,1,1,2,1,2,3,0,0,0
51356871,0,0.0,0.0,0.30632836,0.41837853,-0.03406618,0.29108062,0.42253163,-0.25529203,0.013530101,-0.005057629,0.014953924,0.005158442,-0.0016956085,0.0025202872,-0.00033973085,0.9612295,-1.911934,-0.14792997,-3.0550306,0.0,0.1,-0.014953924,0.0053444155,0.0036628915,0.026426932,0.01752288,inf,inf,inf,inf,1,1,1,1,2,1,2,3,0,0,0
51452891,0,0.0,0.0,0.30702618,0.41856116,-0.034088887,0.29108062,0.42253163,-0.25529203,0.008699981,0.0033105402,0.01357467,0.0037133042,-0.0016956085,0.0025202872,-0.00033973085,-0.8821404,2.512248,0.6071484,-3.0549853,0.0,0.1,-0.01357467,0.0050591836,0.0034777338,0.02572649,0.01710889,inf,inf,inf,inf,1,1,1,1,2,1,2,3,0,0,0
51556869,0,0.0,0.0,0.3075632,0.4188232,-0.034187216,0.29108062,0.42253163,-0.25529203,0.0035918949,-0.0014511249,0.015623059,0.0057247505,-0.0016956085,0.0025202872,-0.00033973085,-2.482428,-0.3854449,-0.5960919,-3.0547943,0.0,0.1,-0.015623059,0.005323371,0.0036482085,0.026419692,0.017522307,inf,inf,inf,inf,1,1,1,1,2,1,2,3,0,0,0
51660879,0,0.0,0.0,0.30782738,0.41905838,-0.034324694,0.29108062,0.42253163,-0.25529203,0.0087041445,0.0009989698,0.014632306,0.004718637,-0.0016956085,0.0025202872,-0.00033973085,-0.40048248,0.5513885,0.2050424,-3.054773,0.0,0.1,-0.014632306,0.005116769,0.003517038,0.0257284,0.017111082,inf,inf,inf,inf,1,1,1,1,2,1,2,3,0,0,0
51756870,0,0.0,0.0,0.30783287,0.41926602,-0.034454037,0.29108062,0.42253163,-0.25529203,0.009660921,-0.004756275,0.016388943,0.0064806202,-0.0016956085,0.0025202872,-0.00033973085,1.215951,-2.898001,-0.40911606,-3.0549548,0.0,0.1,-0.016388943,0.0050826548,0.0034963372,0.025577834,0.017015547,inf,inf,inf,inf,1,1,1,1,2,1,2,3,0,0,0
51860870,0,0.0,0.0,0.30755967,0.4194415,-0.034570195,0.29108062,0.42253163,-0.25529203,0.009175863,0.00052121223,0.013366991,0.0034844205,-0.0016956085,0.0025202872,-0.00033973085,1.6336597,-0.77470416,0.16267404,-3.0546713,0.0,0.1,-0.013366991,0.0051739044,0.0035564313,0.025793929,0.017144058,inf,inf,inf,inf,1,1,1,1,2,1,2,3,0,0,0
51964869,0,0.0,0.0,0.3071392,0.41952047,-0.034640674,0.29108062,0.42253163,-0.25529203,0.0039066086,0.0017685252,0.014959079,0.0051166415,-0.0016956085,0.0025202872,-0.00033973085,0.43360326,1.745282,-0.2142569,-3.0548465,0.0,0.1,-0.014959079,0.004920118,0.0033911238,0.025175992,0.01678434,inf,inf,inf,inf,1,1,1,1,2,1,2,3,0,0,0
52068877,0,0.0,0.0,0.30661264,0.4194768,-0.034654967,0.29108062,0.42253163,-0.25529203,0.0010612481,0.0046210885,0.01783063,0.008051069,-0.0016956085,0.0025202872,-0.00033973085,-0.4676675,2.6313562,0.7123665,-3.0548315,0.0,0.1,-0.01783063,0.005066474,0.0034851949,0.02562528,0.017047388,inf,inf,inf,inf,1,1,1,1,2,1,2,3,0,0,0
52172870,0,0.0,0.0,0.30601618,0.41931546,-0.034553636,0.29108062,0.42253163,-0.25529203,0.001980202,-0.001602204,0.012070694,0.002381746,-0.0016956085,0.0025202872,-0.00033973085,-0.868777,0.8449987,-0.3839958,-3.0550213,0.0,0.1,-0.012070694,0.0051749866,0.003556083,0.025895853,0.01720582,inf,inf,inf,inf,1,1,1,1,2,1,2,3,0,0,0
52268869,0,0.0,0.0,0.30546606,0.41912663,-0.034433868,0.29108062,0.42253163,-0.25529203,0.00026437946,0.002758266,0.021299671,0.01166247,-0.0016956085,0.0025202872,-0.00033973085,0.07277311,2.7030299,1.6495245,-3.0547104,0.0,0.1,-0.021299671,0.005186658,0.003562826,0.025962932,0.017256327,inf,inf,inf,inf,1,1,1,1,2,1,2,3,0,0,0
52372876,0,0.0,0.0,0.30484742,0.41891998,-0.03429211,0.29108062,0.42253163,-0.25529203,-0.00024676937,-0.0038413152,0.013480228,0.0038790177,-0.0016956085,0.0025202872,-0.00033973085,-0.350186,0.547566,0.053932596,-3.0549188,0.0,0.1,-0.013480228,0.0053548752,0.003671943,0.026374819,0.017489119,inf,inf,inf,inf,1,1,1,1,2,1,2,3,0,0,0
52474528,0,0.0,0.0,0.30413982,0.41887796,-0.034180306,0.29108062,0.42253163,-0.25529203,-0.0037735037,-0.0034011086,0.017344007,0.007755243,-0.0016956085,0.0025202872,-0.00033973085,-0.958084,-2.770429,-0.79795706,-3.0547957,0.0,0.1,-0.017344007,0.0054340214,0.003725028,0.026482547,0.017556379,inf,inf,inf,inf,1,1,1,1,2,1,2,3,0,0,0
52572083,0,0.0,0.0,0.30335757,0.41883448,-0.03417643,0.29108062,0.42253163,-0.25529203,-0.0035217807,-0.0060896734,0.012177002,0.0025757023,-0.0016956085,0.0025202872,-0.00033973085,0.0373995,-0.8706819,0.29048306,-3.0546694,0.0,0.1,-0.012177002,0.005327824,0.0036576113,0.026176427,0.017385421,inf,inf,inf,inf,1,1,1,1,2,1,2,3,0,0,0
52676093,0,0.0,0.0,0.3026019,0.4184973,-0.03435818,0.29108062,0.42253163,-0.25529203,-0.009611516,-0.0073732347,0.014625262,0.0049616657,-0.0016956085,0.0025202872,-0.00033973085,-2.3716378,-0.5790847,-0.3283988,-3.0550747,0.0,0.1,-0.014625262,0.005392982,0.0036984114,0.026345445,0.017454643,inf,inf,inf,inf,1,1,1,1,2,1,2,3,0,0,0
52780082,0,0.0,0.0,0.30220693,0.41791913,-0.03453003,0.29108062,0.42253163,-0.25529203,-0.0074094413,-0.006249164,0.014019005,0.00430752,-0.0016956085,0.0025202872,-0.00033973085,-2.3247142,0.09252647,-0.084259085,-3.0545523,0.0,0.1,-0.014019005,0.005166187,0.0035512787,0.025933634,0.017237011,inf,inf,inf,inf,1,1,1,1,2,1,2,3,0,0,0
52884073,0,0.0,0.0,0.30206236,0.41751173,-0.034692094,0.29108062,0.42253163,-0.25529203,-0.005212118,-0.010730707,0.01572911,0.0060001197,-0.0016956085,0.0025202872,-0.00033973085,-1.4504948,-2.061171,-0.15599808,-3.0546823,0.0,0.1,-0.01572911,0.0050713145,0.0034865052,0.025829988,0.017174998,inf,inf,inf,inf,1,1,1,1,2,1,2,3,0,0,0
52988092,0,0.0,0.0,0.3022039,0.41720203,-0.034806255,0.29108062,0.42253163,-0.25529203,-0.0015037586,-0.0035147585,0.01283656,0.0031803125,-0.0016956085,0.0025202872,-0.00033973085,-0.5803005,-0.703401,0.00345215,-3.0548158,0.0,0.1,-0.01283656,0.005016271,0.0034492165,0.025729911,0.017130883,inf,inf,inf,inf,1,1,1,1,2,1,2,3,0,0,0
53084083,0,0.0,0.0,0.3025821,0.41697365,-0.034886163,0.29108062,0.42253163,-0.25529203,0.0004154633,-0.0042657205,0.013766541,0.0042349054,-0.0016956085,0.0025202872,-0.00033973085,0.12073878,0.3776411,0.16892712,-3.0545242,0.0,0.1,-0.013766541,0.0051813466,0.00355561,0.026159417,0.017380614,inf,inf,inf,inf,1,1,1,1,2,1,2,3,0,0,0
53188082,0,0.0,0.0,0.30312228,0.41691834,-0.03497067,0.29108062,0.42253163,-0.25529203,0.0023543774,-0.005879231,0.012843171,0.0034293905,-0.0016956085,0.0025202872,-0.00033973085,0.42537084,-0.2537317,0.24046035,-3.0544622,0.0,0.1,-0.012843171,0.005120856,0.0035175073,0.025906991,0.017229507,inf,inf,inf,inf,1,1,1,1,2,1,2,3,0,0,0
53292070,0,0.0,0.0,0.30375767,0.41686794,-0.035090987,0.29108062,0.42253163,-0.25529203,0.0034180284,-0.0040986394,0.010747044,0.0014580718,-0.0016956085,0.0025202872,-0.00033973085,0.10619953,-0.27246067,-0.46645293,-3.0544147,0.0,0.1,-0.010747044,0.005322517,0.003650914,0.026272308,0.017449658,inf,inf,inf,inf,1,1,1,1,2,1,2,3,0,0,0
53388069,0,0.0,0.0,0.3043488,0.41685373,-0.03526855,0.29108062,0.42253163,-0.25529203,0.0032854741,-0.004011217,0.010634641,0.0014516354,-0.0016956085,0.0025202872,-0.00033973085,-0.42470253,0.1910125,-0.37682015,-3.054429,0.0,0.1,-0.010634641,0.0052860454,0.0036301236,0.026070481,0.017331043,inf,inf,inf,inf,1,1,1,1,2,1,2,3,0,0,0
53492070,0,0.0,0.0,0.3049317,0.41687018,-0.035470936,0.29108062,0.42253163,-0.25529203,0.004873541,-0.0041918713,0.01004074,0.0009884983,-0.0016956085,0.0025202872,-0.00033973085,0.10169582,0.16943406,-0.3692778,-3.054446,0.0,0.1,-0.01004074,0.0053270864,0.0036591843,0.026105482,0.017354544,inf,inf,inf,inf,1,1,1,1,2,1,2,3,0,0,0
53596071,0,0.0,0.0,0.30542067,0.41687438,-0.035692077,0.29108062,0.42253163,-0.25529203,0.0058751004,-0.0040980172,0.011187692,0.0022411519,-0.0016956085,0.0025202872,-0.00033973085,0.27894807,0.0668488,-0.008526183,-3.0543504,0.0,0.1,-0.011187692,0.0050845863,0.003500152,0.02561832,0.017062683,inf,inf,inf,inf,1,1,1,1,2,1,2,3,0,0,0
53692105,0,0.0,0.0,0.30576724,0.4168791,-0.035898678,0.29108062,0.42253163,-0.25529203,0.00602121,-0.0060507488,0.010969263,0.0021342458,-0.0016956085,0.0025202872,-0.00033973085,-0.13772187,-0.4989792,0.28143033,-3.0543513,0.0,0.1,-0.010969263,0.0051873014,0.0035637012,0.026070297,0.017334133,inf,inf,inf,inf,1,1,1,1,2,1,2,3,0,0,0
53794504,0,0.0,0.0,0.30605787,0.41687667,-0.036002956,0.29108062,0.42253163,-0.25529203,0.005232818,-0.0049988697,0.009220328,0.00057370577,-0.0016956085,0.0025202872,-0.00033973085,0.13443013,-0.12682877,-0.08799404,-3.054288,0.0,0.1,-0.009220328,0.005367737,0.003681443,0.026462048,0.017569384,inf,inf,inf,inf,1,1,1,1,2,1,2,3,0,0,0
53899297,0,0.0,0.0,0.30625847,0.4168273,-0.03610124,0.29108062,0.42253163,-0.25529203,0.0059248996,-0.004038438,0.009235415,0.00077559054,-0.0016956085,0.0025202872,-0.00033973085,0.22861034,0.004565623,-0.1561871,-3.0542536,0.0,0.1,-0.009235415,0.004908393,0.0033817685,0.025342096,0.016905734,inf,inf,inf,inf,1,1,1,1,2,1,2,3,0,0,0
54002509,0,0.0,0.0,0.30639127,0.41682392,-0.036203213,0.29108062,0.42253163,-0.25529203,0.0044390378,-0.0045813713,0.01037407,0.0021057362,-0.0016956085,0.0025202872,-0.00033973085,0.040272888,-0.95380396,-0.10601105,-3.0541463,0.0,0.1,-0.01037407,0.0050874236,0.0034991186,0.025718965,0.017127588,inf,inf,inf,inf,1,1,1,1,2,1,2,3,0,0,0
54099270,0,0.0,0.0,0.30643696,0.41684124,-0.036250945,0.29108062,0.42253163,-0.25529203,0.004379949,-0.0011359478,0.009778521,0.0016609703,-0.0016956085,0.0025202872,-0.00033973085,0.20689681,0.50652206,-0.012337133,-3.0540428,0.0,0.1,-0.009778521,0.0048455885,0.0033416173,0.025120763,0.016775843,inf,inf,inf,inf,1,1,1,1,2,1,2,3,0,0,0
54203293,0,0.0,0.0,0.30637848,0.41686696,-0.036186405,0.29108062,0.42253163,-0.25529203,0.0034624075,-0.0033937942,0.010604236,0.0026730802,-0.0016956085,0.0025202872,-0.00033973085,-0.091939844,-0.08861978,-0.02193157,-3.0540986,0.0,0.1,-0.010604236,0.0050764587,0.003492149,0.025740692,0.0171501,inf,inf,inf,inf,1,1,1,1,2,1,2,3,0,0,0
54307275,0,0.0,0.0,0.3062919,0.4169415,-0.03599937,0.29108062,0.42253163,-0.25529203,0.0041910117,-0.002686652,0.01190516,0.004156915,-0.0016956085,0.0025202872,-0.00033973085,0.098291345,0.1014296,0.0045653437,-3.0541923,0.0,0.1,-0.01190516,0.0052330904,0.0035959727,0.026035445,0.017327167,inf,inf,inf,inf,1,1,1,1,2,1,2,3,0,0,0
54403309,0,0.0,0.0,0.30625555,0.4170052,-0.03581702,0.29108062,0.42253163,-0.25529203,0.0040057176,-0.0026276426,0.011304349,0.0036932179,-0.0016956085,0.0025202872,-0.00033973085,-0.2722802,0.34894484,0.18536927,-3.0541108,0.0,0.1,-0.011304349,0.0051614693,0.0035520403,0.025722288,0.017142128,inf,inf,inf,inf,1,1,1,1,2,1,2,3,0,0,0
54507314,0,0.0,0.0,0.3062888,0.41713086,-0.035611663,0.29108062,0.42253163,-0.25529203,0.0052576563,-0.001875381,0.011814927,0.0043040267,-0.0016956085,0.0025202872,-0.00033973085,0.5366068,-0.3816477,0.02064834,-3.054029,0.0,0.1,-0.011814927,0.0052550435,0.0036130988,0.026006868,0.017310208,inf,inf,inf,inf,1,1,1,1,2,1,2,3,0,0,0
54611308,0,0.0,0.0,0.30633503,0.41729394,-0.03532706,0.29108062,0.42253163,-0.25529203,0.0037578389,-0.0014001759,0.012783572,0.005339701,-0.0016956085,0.0025202872,-0.00033973085,-0.2547637,-0.10417171,-0.3604355,-3.0540862,0.0,0.1,-0.012783572,0.0053114537,0.0036505752,0.026131555,0.017387124,inf,inf,inf,inf,1,1,1,1,2,1,2,3,0,0,0
54707270,0,0.0,0.0,0.306408,0.41738337,-0.035111576,0.29108062,0.42253163,-0.25529203,0.005204084,-0.00017166162,0.012105039,0.004649795,-0.0016956085,0.0025202872,-0.00033973085,-0.40944916,0.21430737,-0.101669885,-3.054176,0.0,0.1,-0.012105039,0.0050313375,0.0034643451,0.02565439,0.017098993,inf,inf,inf,inf,1,1,1,1,2,1,2,3,0,0,0
54811276,0,0.0,0.0,0.3064985,0.4173923,-0.03488471,0.29108062,0.42253163,-0.25529203,0.004633555,-0.0021928453,0.013116753,0.0056229974,-0.0016956085,0.0025202872,-0.00033973085,0.013655562,-0.16268316,-0.24307889,-3.0541105,0.0,0.1,-0.013116753,0.0050086854,0.0034464733,0.02573223,0.017146097,inf,inf,inf,inf,1,1,1,1,2,1,2,3,0,0,0
54915270,0,0.0,0.0,0.30658555,0.41730538,-0.034764934,0.29108062,0.42253163,-0.25529203,0.0038913873,-0.0015163658,0.013913525,0.0063536796,-0.0016956085,0.0025202872,-0.00033973085,-0.31330928,0.7021817,0.039381824,-3.0540903,0.0,0.1,-0.013913525,0.0049587,0.003414382,0.025502264,0.017013166,inf,inf,inf,inf,1,1,1,1,2,1,2,3,0,0,0
55019294,0,0.0,0.0,0.30660143,0.4171893,-0.034706563,0.29108062,0.42253163,-0.25529203,0.0037188996,-0.003950224,0.012966059,0.0053079333,-0.0016956085,0.0025202872,-0.00033973085,0.07913211,-0.07368021,0.18308085,-3.0540013,0.0,0.1,-0.012966059,0.004940579,0.0034022937,0.025454674,0.01698612,inf,inf,inf,inf,1,1,1,1,2,1,2,3,0,0,0
55123323,0,0.0,0.0,0.3065547,0.4170169,-0.034747988,0.29108062,0.42253163,-0.25529203,0.002349256,-0.0027320262,0.011122429,0.0033951323,-0.0016956085,0.0025202872,-0.00033973085,-0.32966006,0.04350205,-0.01720124,-3.053928,0.0,0.1,-0.011122429,0.005129874,0.0035283307,0.025794443,0.017190123,inf,inf,inf,inf,1,1,1,1,2,1,2,3,0,0,0
55218470,0,0.0,0.0,0.30650887,0.41689256,-0.034783434,0.29108062,0.42253163,-0.25529203,0.0035819665,-0.002808884,0.01218221,0.004398528,-0.0016956085,0.0025202872,-0.00033973085,-0.13499638,-0.25160125,-0.10910533,-3.0539834,0.0,0.1,-0.01218221,0.005092409,0.0035066698,0.025571669,0.017059838,inf,inf,inf,inf,1,1,1,1,2,1,2,3,0,0,0
55322470,0,0.0,0.0,0.3063957,0.41681993,-0.034802373,0.29108062,0.42253163,-0.25529203,0.003697912,-0.0027827534,0.013218743,0.0053737415,-0.0016956085,0.0025202872,-0.00033973085,0.14749916,-0.060894378,0.040017005,-3.0540705,0.0,0.1,-0.013218743,0.005152421,0.0035470827,0.025655067,0.017100707,inf,inf,inf,inf,1,1,1,1,2,1,2,3,0,0,0
55426470,0,0.0,0.0,0.30626196,0.41680163,-0.034857627,0.29108062,0.42253163,-0.25529203,0.002120379,-0.0007193633,0.012496753,0.0046360996,-0.0016956085,0.0025202872,-0.00033973085,0.03501169,-0.0055891825,0.20162088,-3.0540996,0.0,0.1,-0.012496753,0.005233925,0.003601288,0.025928149,0.017277714,inf,inf,inf,inf,1,1,1,1,2,1,2,3,0,0,0
55530488,0,0.0,0.0,0.3061579,0.4168349,-0.034942593,0.29108062,0.42253163,-0.25529203,0.0031137008,-0.0016104868,0.010491895,0.00263029,-0.0016956085,0.0025202872,-0.00033973085,0.36493844,0.039605774,-0.07536984,-3.054027,0.0,0.1,-0.010491895,0.005308926,0.0036493808,0.02616551,0.017415991,inf,inf,inf,inf,1,1,1,1,2,1,2,3,0,0,0
55626470,0,0.0,0.0,0.30607268,0.41686803,-0.03505601,0.29108062,0.42253163,-0.25529203,0.0018246623,-0.00347643,0.011675725,0.0038108388,-0.0016956085,0.0025202872,-0.00033973085,-0.12381179,-0.5044339,0.063292615,-3.0539565,0.0,0.1,-0.011675725,0.0052171303,0.0035903521,0.025896959,0.017257208,inf,inf,inf,inf,1,1,1,1,2,1,2,3,0,0,0
55730485,0,0.0,0.0,0.30602992,0.4169141,-0.03515754,0.29108062,0.42253163,-0.25529203,0.0017373716,9.735267e-05,0.0119003905,0.0040432853,-0.0016956085,0.0025202872,-0.00033973085,-0.07372491,0.91428834,0.32757077,-3.0539985,0.0,0.1,-0.0119003905,0.0052926927,0.0036391795,0.026128905,0.017394822,inf,inf,inf,inf,1,1,1,1,2,1,2,3,0,0,0
55834478,0,0.0,0.0,0.30602393,0.41698393,-0.035185516,0.29108062,0.42253163,-0.25529203,0.0036400133,-0.0023116136,0.010955133,0.0031190144,-0.0016956085,0.0025202872,-0.00033973085,0.22343881,-0.40311435,-0.07917603,-3.0539825,0.0,0.1,-0.010955133,0.005399157,0.0037075172,0.026455479,0.017591543,inf,inf,inf,inf,1,1,1,1,2,1,2,3,0,0,0
55930469,0,0.0,0.0,0.3060713,0.4170642,-0.035248782,0.29108062,0.42253163,-0.25529203,0.0027017028,0.00079319364,0.010951884,0.0031434225,-0.0016956085,0.0025202872,-0.00033973085,-0.59745026,0.17038901,0.1534193,-3.0543513,0.0,0.1,-0.010951884,0.0053298743,0.0036628952,0.026255667,0.017476775,inf,inf,inf,inf,1,1,1,1,2,1,2,3,0,0,0
56034475,0,0.0,0.0,0.3061025,0.41704464,-0.035178147,0.29108062,0.42253163,-0.25529203,0.0055367886,0.00020085275,0.011863298,0.0040983227,-0.0016956085,0.0025202872,-0.00033973085,1.7077975,0.13363159,-0.44879287,-3.0542235,0.0,0.1,-0.011863298,0.0054174755,0.0037198947,0.026477868,0.01760968,inf,inf,inf,inf,1,1,1,1,2,1,2,3,0,0,0
56138470,0,0.0,0.0,0.30612996,0.41697994,-0.035077043,0.29108062,0.42253163,-0.25529203,0.0039979964,-0.000102578815,0.01502295,0.0072584487,-0.0016956085,0.0025202872,-0.00033973085,1.155569,-0.20012313,0.04736836,-3.0540247,0.0,0.1,-0.01502295,0.005118812,0.0035261076,0.025683846,0.017128041,inf,inf,inf,inf,1,1,1,1,2,1,2,3,0,0,0
56234484,0,0.0,0.0,0.30609882,0.41683012,-0.034935553,0.29108062,0.42253163,-0.25529203,0.0071619693,-0.004676734,0.01010503,0.0023505422,-0.0016956085,0.0025202872,-0.00033973085,2.049389,-1.3301799,-1.2185339,-3.0542688,0.0,0.1,-0.01010503,0.0054018423,0.0037105246,0.026417717,0.017579429,inf,inf,inf,inf,1,1,1,1,2,1,2,3,0,0,0
56338478,0,0.0,0.0,0.3059856,0.416781,-0.034777377,0.29108062,0.42253163,-0.25529203,-0.004310929,0.0006943537,0.016789297,0.00901795,-0.0016956085,0.0025202872,-0.00033973085,-2.38989,0.77414423,-0.08616734,-3.054306,0.0,0.1,-0.016789297,0.0051115598,0.003521409,0.025674712,0.017131051,inf,inf,inf,inf,1,1,1,1,2,1,2,3,0,0,0
56442507,0,0.0,0.0,0.30582148,0.41681126,-0.03466035,0.29108062,0.42253163,-0.25529203,0.00036071579,0.005867917,0.016728189,0.008920671,-0.0016956085,0.0025202872,-0.00033973085,-0.092975624,1.3027105,0.44948775,-3.0542505,0.0,0.1,-0.016728189,0.005184245,0.0035687669,0.025858374,0.017225994,inf,inf,inf,inf,1,1,1,1,2,1,2,3,0,0,0
56536892,0,0.0,0.0,0.30567223,0.4171024,-0.034472574,0.29108062,0.42253163,-0.25529203,0.006036142,0.00045626643,0.0120833265,0.004211262,-0.0016956085,0.0025202872,-0.00033973085,1.9040616,-0.89169234,-1.2129502,-3.0542295,0.0,0.1,-0.0120833265,0.005470577,0.0037551767,0.026575001,0.017663194,inf,inf,inf,inf,1,1,1,1,2,1,2,3,0,0,0
56642470,0,0.0,0.0,0.3056484,0.41734466,-0.034316774,0.29108062,0.42253163,-0.25529203,-0.002568912,0.0034830596,0.016066553,0.00808091,-0.0016956085,0.0025202872,-0.00033973085,-2.2122314,0.85782903,-0.4539639,-3.0541475,0.0,0.1,-0.016066553,0.0051667956,0.0035572357,0.025814258,0.017204223,inf,inf,inf,inf,1,1,1,1,2,1,2,3,0,0,0
56745670,0,0.0,0.0,0.30596086,0.4176118,-0.034270827,0.29108062,0.42253163,-0.25529203,0.00081372174,0.008746252,0.017369015,0.009280864,-0.0016956085,0.0025202872,-0.00033973085,-0.6479247,1.3734057,0.9919897,-3.0541632,0.0,0.1,-0.017369015,0.005250002,0.0036109644,0.026072055,0.017356923,inf,inf,inf,inf,1,1,1,1,2,1,2,3,0,0,0
56849676,0,0.0,0.0,0.30628172,0.41785434,-0.03426055,0.29108062,0.42253163,-0.25529203,0.004567203,0.001474895,0.010195315,0.0019947283,-0.0016956085,0.0025202872,-0.00033973085,0.5761405,-0.70168936,0.02306734,-3.0541675,0.0,0.1,-0.010195315,0.0053024013,0.0036453952,0.026174398,0.01741968,inf,inf,inf,inf,1,1,1,1,2,1,2,3,0,0,0
56945670,0,0.0,0.0,0.3064733,0.41793743,-0.034251563,0.29108062,0.42253163,-0.25529203,-0.001983203,0.0002827925,0.015046818,0.006720288,-0.0016956085,0.0025202872,-0.00033973085,-1.5740085,-1.176376,-0.7672552,-3.0540667,0.0,0.1,-0.015046818,0.0052519715,0.0036123006,0.02607553,0.017369172,inf,inf,inf,inf,1,1,1,1,2,1,2,3,0,0,0
57049670,0,0.0,0.0,0.3065035,0.4179027,-0.034372784,0.29108062,0.42253163,-0.25529203,0.0015363347,0.0040478096,0.016638437,0.008207857,-0.0016956085,0.0025202872,-0.00033973085,0.5636746,0.13994035,1.2000996,-3.0538344,0.0,0.1,-0.016638437,0.0053169895,0.0036551987,0.026210481,0.017446648,inf,inf,inf,inf,1,1,1,1,2,1,2,3,0,0,0
57153676,0,0.0,0.0,0.3064028,0.41770735,-0.034464188,0.29108062,0.42253163,-0.25529203,0.002985786,0.00028681802,0.010750566,0.0022443687,-0.0016956085,0.0025202872,-0.00033973085,0.74721855,0.291663,0.52000123,-3.0540442,0.0,0.1,-0.010750566,0.0054084454,0.003714508,0.026458988,0.017591583,inf,inf,inf,inf,1,1,1,1,2,1,2,3,0,0,0
57249670,0,0.0,0.0,0.30617955,0.41738936,-0.034447823,0.29108062,0.42253163,-0.25529203,-0.0022341416,-0.0032228366,0.015975986,0.0074372846,-0.0016956085,0.0025202872,-0.00033973085,-0.39116642,-1.3278403,-0.39237276,-3.0539546,0.0,0.1,-0.015975986,0.0053174584,0.0036558397,0.026198244,0.017448412,inf,inf,inf,inf,1,1,1,1,2,1,2,3,0,0,0
57353702,0,0.0,0.0,0.3059018,0.4170478,-0.034494568,0.29108062,0.42253163,-0.25529203,0.0006671128,0.00076697464,0.017677814,0.009116622,-0.0016956085,0.0025202872,-0.00033973085,0.81798846,0.4258562,1.6901324,-3.054006,0.0,0.1,-0.017677814,0.0054101585,0.003715665,0.026464341,0.017604383,inf,inf,inf,inf,1,1,1,1,2,1,2,3,0,0,0
57457721,0,0.0,0.0,0.30562606,0.41667607,-0.034548555,0.29108062,0.42253163,-0.25529203,0.001983905,-0.0019828924,0.010848951,0.0022670096,-0.0016956085,0.0025202872,-0.00033973085,0.9015549,-0.23663875,0.39745674,-3.0541852,0.0,0.1,-0.010848951,0.0051035173,0.0035166142,0.025655428,0.0171151,inf,inf,inf,inf,1,1,1,1,2,1,2,3,0,0,0
57561715,0,0.0,0.0,0.30540016,0.4163352,-0.034607396,0.29108062,0.42253163,-0.25529203,-0.0028976684,-0.0073394836,0.00897943,0.00037785925,-0.0016956085,0.0025202872,-0.00033973085,-0.84819853,-2.1075532,-0.58615404,-3.0540059,0.0,0.1,-0.00897943,0.0051483684,0.0035466272,0.025734661,0.017170945,inf,inf,inf,inf,1,1,1,1,2,1,2,3,0,0,0
57657669,0,0.0,0.0,0.30525696,0.41601798,-0.03463425,0.29108062,0.42253163,-0.25529203,-0.0015376301,0.0013523281,0.018861463,0.010236458,-0.0016956085,0.0025202872,-0.00033973085,-0.063986674,2.1450138,1.3374857,-3.0540311,0.0,0.1,-0.018861463,0.0054670176,0.0037529601,0.026603881,0.017688693,inf,inf,inf,inf,1,1,1,1,2,1,2,3,0,0,0
57761670,0,0.0,0.0,0.30519295,0.4156224,-0.034623668,0.29108062,0.42253163,-0.25529203,0.0028727553,-0.005503345,0.0122751575,0.0036300584,-0.0016956085,0.0025202872,-0.00033973085,1.7948684,-0.619021,0.71580935,-3.0540495,0.0,0.1,-0.0122751575,0.005153638,0.0035495965,0.025787834,0.01720229,inf,inf,inf,inf,1,1,1,1,2,1,2,3,0,0,0
57865682,0,0.0,0.0,0.30513364,0.41520575,-0.034584474,0.29108062,0.42253163,-0.25529203,-0.0025782343,-0.007229065,0.011882159,0.0032351888,-0.0016956085,0.0025202872,-0.00033973085,-0.21514313,-0.835716,-0.36622125,-3.053945,0.0,0.1,-0.011882159,0.005222747,0.0035946157,0.025981044,0.01733363,inf,inf,inf,inf,1,1,1,1,2,1,2,3,0,0,0
57968869,0,0.0,0.0,0.30495018,0.4151433,-0.034542147,0.29108062,0.42253163,-0.25529203,-0.0039759725,-0.0024487083,0.016897928,0.008239683,-0.0016956085,0.0025202872,-0.00033973085,-0.11541036,1.7497809,-0.20242335,-3.054124,0.0,0.1,-0.016897928,0.0053174593,0.0036559803,0.026236355,0.01748141,inf,inf,inf,inf,1,1,1,1,2,1,2,3,0,0,0
58064869,0,0.0,0.0,0.3047641,0.41504937,-0.034457173,0.29108062,0.42253163,-0.25529203,0.0003668694,-0.006796878,0.013749097,0.005077178,-0.0016956085,0.0025202872,-0.00033973085,0.8302584,-1.5393695,0.20650567,-3.054008,0.0,0.1,-0.013749097,0.005248761,0.0036112065,0.026042558,0.017353142,inf,inf,inf,inf,1,1,1,1,2,1,2,3,0,0,0
58168883,0,0.0,0.0,0.3045399,0.41498318,-0.03448114,0.29108062,0.42253163,-0.25529203,-0.004390163,-0.0027756088,0.009860965,0.001163959,-0.0016956085,0.0025202872,-0.00033973085,-0.45030838,1.7482531,-0.108679995,-3.0541906,0.0,0.1,-0.009860965,0.005324419,0.0036608214,0.026237596,0.01748631,inf,inf,inf,inf,1,1,1,1,2,1,2,3,0,0,0
58272869,0,0.0,0.0,0.30438286,0.41477045,-0.034568105,0.29108062,0.42253163,-0.25529203,-0.0032960412,-0.0038118837,0.010966803,0.0022378091,-0.0016956085,0.0025202872,-0.00033973085,0.24965128,0.31276864,-1.1628234,-3.054092,0.0,0.1,-0.010966803,0.005397946,0.0037089605,0.026412243,0.017580457,inf,inf,inf,inf,1,1,1,1,2,1,2,3,0,0,0
58376883,0,0.0,0.0,0.30437505,0.41448918,-0.03481497,0.29108062,0.42253163,-0.25529203,-0.006165261,-0.008207998,0.013286011,0.0045164763,-0.0016956085,0.0025202872,-0.00033973085,-0.50834703,-1.1535538,-0.4342165,-3.0542207,0.0,0.1,-0.013286011,0.005480929,0.003762844,0.026627198,0.017717639,inf,inf,inf,inf,1,1,1,1,2,1,2,3,0,0,0
58480870,0,0.0,0.0,0.3044708,0.41421974,-0.03505417,0.29108062,0.42253163,-0.25529203,-0.0039051862,-0.0005145136,0.017171083,0.008378494,-0.0016956085,0.0025202872,-0.00033973085,0.052653797,2.1569593,0.7602751,-3.0540905,0.0,0.1,-0.017171083,0.0051578,0.0035530454,0.025781939,0.017207636,inf,inf,inf,inf,1,1,1,1,2,1,2,3,0,0,0
58584885,0,0.0,0.0,0.30457905,0.4139486,-0.035248484,0.29108062,0.42253163,-0.25529203,-0.0053454787,-0.004921756,0.010218693,0.0014699125,-0.0016956085,0.0025202872,-0.00033973085,-0.91579986,0.2754654,0.36345324,-3.0540578,0.0,0.1,-0.010218693,0.005555361,0.003812935,0.026742341,0.017771862,inf,inf,inf,inf,1,1,1,1,2,1,2,3,0,0,0
58680878,0,0.0,0.0,0.30471078,0.4137387,-0.035330813,0.29108062,0.42253163,-0.25529203,-0.005490197,-0.003334175,0.01427905,0.0055923173,-0.0016956085,0.0025202872,-0.00033973085,-0.6458615,1.6363474,-0.094676375,-3.0542614,0.0,0.1,-0.01427905,0.0054093595,0.0037182327,0.0263848,0.017569613,inf,inf,inf,inf,1,1,1,1,2,1,2,3,0,0,0
58784870,0,0.0,0.0,0.30492088,0.41348898,-0.035400324,0.29108062,0.42253163,-0.25529203,-0.0043829745,-0.008760872,0.013915862,0.005341902,-0.0016956085,0.0025202872,-0.00033973085,-0.4258747,-1.6716344,-0.5422635,-3.0540588,0.0,0.1,-0.013915862,0.0054453416,0.0037413677,0.026505336,0.017633567,inf,inf,inf,inf,1,1,1,1,2,1,2,3,0,0,0
58888919,0,0.0,0.0,0.30516484,0.41335177,-0.035407376,0.29108062,0.42253163,-0.25529203,-0.005613479,-0.0016776078,0.014841487,0.0063626827,-0.0016956085,0.0025202872,-0.00033973085,-1.1734134,1.2365457,0.9558836,-3.0539393,0.0,0.1,-0.014841487,0.0055382256,0.0038002431,0.026824493,0.017824048,inf,inf,inf,inf,1,1,1,1,2,1,2,3,0,0,0
58984870,0,0.0,0.0,0.30540168,0.4132878,-0.03532647,0.29108062,0.42253163,-0.25529203,-0.00011984536,-0.008695195,0.010919606,0.0025451116,-0.0016956085,0.0025202872,-0.00033973085,1.1482905,-1.5825362,-1.2489474,-3.0540864,0.0,0.1,-0.010919606,0.0054274197,0.00372899,0.026497908,0.017627615,inf,inf,inf,inf,1,1,1,1,2,1,2,3,0,0,0
59088870,0,0.0,0.0,0.3057019,0.41331673,-0.035281096,0.29108062,0.42253163,-0.25529203,-0.0046022115,-0.0014688192,0.01547893,0.007163457,-0.0016956085,0.0025202872,-0.00033973085,-1.1007652,1.0878094,-0.043386653,-3.054055,0.0,0.1,-0.01547893,0.0051388377,0.0035406072,0.025777346,0.017206121,inf,inf,inf,inf,1,1,1,1,2,1,2,3,0,0,0
59192870,0,0.0,0.0,0.30599624,0.413446,-0.0351921,0.29108062,0.42253163,-0.25529203,-0.0016410258,-0.0038114598,0.015517434,0.0072542825,-0.0016956085,0.0025202872,-0.00033973085,0.381147,-0.65524054,-0.639271,-3.0539494,0.0,0.1,-0.015517434,0.0052342606,0.0036023746,0.026046779,0.017364986,inf,inf,inf,inf,1,1,1,1,2,1,2,3,0,0,0
59292114,0,0.0,0.0,0.3061215,0.4135589,-0.03485058,0.29108062,0.42253163,-0.25529203,0.0006578779,-0.00054682296,0.012597476,0.0043643545,-0.0016956085,0.0025202872,-0.00033973085,0.25380114,1.5634698,-0.24915542,-3.054056,0.0,0.1,-0.012597476,0.00512986,0.0035354928,0.025698632,0.017163854,inf,inf,inf,inf,1,1,1,1,2,1,2,3,0,0,0
59396117,0,0.0,0.0,0.30625653,0.41370338,-0.03457867,0.29108062,0.42253163,-0.25529203,0.0016779503,-0.008741542,0.0074731866,-0.00077302515,-0.0016956085,0.0025202872,-0.00033973085,0.23085915,-1.6151807,-1.7824281,-3.0542345,0.0,0.1,-0.0074731866,0.0052275797,0.0035982148,0.025992122,0.017330445,inf,inf,inf,inf,1,1,1,1,2,1,2,3,0,0,0
59492072,0,0.0,0.0,0.3064296,0.4138191,-0.034520067,0.29108062,0.42253163,-0.25529203,0.0017181484,-0.0007871655,0.016635042,0.008378113,-0.0016956085,0.0025202872,-0.00033973085,0.25806323,1.5319413,0.123518765,-3.0539672,0.0,0.1,-0.016635042,0.0051899925,0.003574775,0.025987463,0.017355202,inf,inf,inf,inf,1,1,1,1,2,1,2,3,0,0,0
59596075,0,0.0,0.0,0.3067324,0.41380957,-0.03456868,0.29108062,0.42253163,-0.25529203,-0.000983663,-0.0048277746,0.012856256,0.0045124358,-0.0016956085,0.0025202872,-0.00033973085,-1.1665988,-0.60588306,0.49055606,-3.0539305,0.0,0.1,-0.012856256,0.0052639297,0.0036238895,0.026157966,0.017444748,inf,inf,inf,inf,1,1,1,1,2,1,2,3,0,0,0
59700076,0,0.0,0.0,0.30710497,0.41384813,-0.034737308,0.29108062,0.42253163,-0.25529203,0.0034859274,0.00027835192,0.007946839,-0.000507091,-0.0016956085,0.0025202872,-0.00033973085,-0.727031,1.7271254,0.2785994,-3.053973,0.0,0.1,-0.007946839,0.005303549,0.0036505824,0.026185896,0.017478358,inf,inf,inf,inf,1,1,1,1,2,1,2,3,0,0,0
59796120,0,0.0,0.0,0.30747887,0.41397682,-0.034961827,0.29108062,0.42253163,-0.25529203,2.1866083e-05,-0.0034391098,0.013158617,0.004618566,-0.0016956085,0.0025202872,-0.00033973085,-1.2806367,-0.6239203,-0.3914955,-3.0540655,0.0,0.1,-0.013158617,0.0052350797,0.0036054128,0.026018662,0.017359791,inf,inf,inf,inf,1,1,1,1,2,1,2,3,0,0,0
59900081,0,0.0,0.0,0.30789468,0.414292,-0.03524287,0.29108062,0.42253163,-0.25529203,0.0029347877,0.0010790426,0.012682707,0.004107316,-0.0016956085,0.0025202872,-0.00033973085,0.7037699,-0.7751755,-0.2554784,-3.0540392,0.0,0.1,-0.012682707,0.0053077275,0.0036522225,0.026208675,0.017468344,inf,inf,inf,inf,1,1,1,1,2,1,2,3,0,0,0
60004095,0,0.0,0.0,0.3082481,0.41472623,-0.035462014,0.29108062,0.42253163,-0.25529203,0.00066980947,-0.001121525,0.012607217,0.0040626945,-0.0016956085,0.0025202872,-0.00033973085,-1.4221946,-1.3776102,0.88053375,-3.0540984,0.0,0.1,-0.012607217,0.0053909644,0.0037059113,0.026428847,0.017594919,inf,inf,inf,inf,1,1,1,1,2,1,2,3,0,0,0
60108070,0,0.0,0.0,0.3084699,0.41529146,-0.035590228,0.29108062,0.42253163,-0.25529203,0.0047252877,0.00397804,0.008539025,6.333961e-05,-0.0016956085,0.0025202872,-0.00033973085,0.23645103,0.29707032,0.36079523,-3.054098,0.0,0.1,-0.008539025,0.0051090554,0.0035215407,0.025695028,0.017151304,inf,inf,inf,inf,1,1,1,1,2,1,2,3,0,0,0
60212070,0,0.0,0.0,0.30856964,0.41595134,-0.035663415,0.29108062,0.42253163,-0.25529203,0.0031501148,0.0027378437,0.007409225,-0.0009618731,-0.0016956085,0.0025202872,-0.00033973085,-1.0390496,0.69227284,-0.03206972,-3.054184,0.0,0.1,-0.007409225,0.0051516765,0.0035501134,0.025742335,0.017180448,inf,inf,inf,inf,1,1,1,1,2,1,2,3,0,0,0
60308076,0,0.0,0.0,0.30859604,0.41660333,-0.035693616,0.29108062,0.42253163,-0.25529203,0.0052472637,0.0049665147,0.0129327485,0.004654994,-0.0016956085,0.0025202872,-0.00033973085,1.5101862,-1.7519605,-0.46106607,-3.053793,0.0,0.1,-0.0129327485,0.005089093,0.0035083748,0.025627764,0.017109733,inf,inf,inf,inf,1,1,1,1,2,1,2,3,0,0,0
60412070,0,0.0,0.0,0.30856386,0.41730374,-0.035717726,0.29108062,0.42253163,-0.25529203,0.002003306,0.004584832,0.013023366,0.004842813,-0.0016956085,0.0025202872,-0.00033973085,0.031112524,-1.0658953,1.2375832,-3.0539808,0.0,0.1,-0.013023366,0.0051743034,0.003563664,0.02586262,0.017253753,inf,inf,inf,inf,1,1,1,1,2,1,2,3,0,0,0
60516080,0,0.0,0.0,0.30848047,0.41796476,-0.03575005,0.29108062,0.42253163,-0.25529203,0.005892982,0.009434532,0.009006925,0.0009141058,-0.0016956085,0.0025202872,-0.00033973085,1.2797849,-0.04950041,0.5595746,-3.0541437,0.0,0.1,-0.009006925,0.005233224,0.003602264,0.025999717,0.017337099,inf,inf,inf,inf,1,1,1,1,2,1,2,3,0,0,0
60613670,0,0.0,0.0,0.3084576,0.4184855,-0.035730366,0.29108062,0.42253163,-0.25529203,0.0054430957,0.010526547,0.01070399,0.002677004,-0.0016956085,0.0025202872,-0.00033973085,1.6895945,0.7756418,-0.8508526,-3.0538447,0.0,0.1,-0.01070399,0.0051543317,0.003551133,0.025768274,0.017205216,inf,inf,inf,inf,1,1,1,1,2,1,2,3,0,0,0
60715270,0,0.0,0.0,0.30832618,0.4189771,-0.035762433,0.29108062,0.42253163,-0.25529203,0.00020396855,0.009563756,0.013662554,0.0057082633,-0.0016956085,0.0025202872,-0.00033973085,1.6689718,-1.6646605,-0.5727466,-3.053615,0.0,0.1,-0.013662554,0.0052232435,0.0035954015,0.025964472,0.01731747,inf,inf,inf,inf,1,1,1,1,2,1,2,3,0,0,0
60819288,0,0.0,0.0,0.3080019,0.41955885,-0.03568257,0.29108062,0.42253163,-0.25529203,-0.0025032985,0.011859773,0.0095849205,0.0017079654,-0.0016956085,0.0025202872,-0.00033973085,-0.51737213,1.5850053,-0.011297999,-3.0536637,0.0,0.1,-0.0095849205,0.0052956827,0.0036430855,0.026195299,0.017464606,inf,inf,inf,inf,1,1,1,1,2,1,2,3,0,0,0
60923284,0,0.0,0.0,0.30765167,0.42007864,-0.0356393,0.29108062,0.42253163,-0.25529203,-0.0021142054,0.01624364,0.011328686,0.0035294052,-0.0016956085,0.0025202872,-0.00033973085,-1.0300473,0.5090887,-0.16126433,-3.0535235,0.0,0.1,-0.011328686,0.005369546,0.0036909832,0.026392067,0.017577957,inf,inf,inf,inf,1,1,1,1,2,1,2,3,0,0,0
61019270,0,0.0,0.0,0.30742875,0.42053157,-0.03558635,0.29108062,0.42253163,-0.25529203,-0.0021320893,0.015699863,0.011595833,0.0038751431,-0.0016956085,0.0025202872,-0.00033973085,-0.97152895,0.9002314,0.22647831,-3.0533216,0.0,0.1,-0.011595833,0.005297916,0.003644595,0.026174525,0.017447429,inf,inf,inf,inf,1,1,1,1,2,1,2,3,0,0,0
61123331,0,0.0,0.0,0.30731097,0.42093247,-0.03557921,0.29108062,0.42253163,-0.25529203,-0.0019527087,0.015010853,0.009853377,0.0021671378,-0.0016956085,0.0025202872,-0.00033973085,-0.6390206,0.033182535,-0.20776698,-3.0532436,0.0,0.1,-0.009853377,0.0053819255,0.0036993257,0.026373379,0.017561324,inf,inf,inf,inf,1,1,1,1,2,1,2,3,0,0,0
61227281,0,0.0,0.0,0.307323,0.42123246,-0.035558376,0.29108062,0.42253163,-0.25529203,0.0014443545,0.013594556,0.011179677,0.0035070064,-0.0016956085,0.0025202872,-0.00033973085,0.64424556,-0.69990385,-0.18373363,-3.0531366,0.0,0.1,-0.011179677,0.0054741697,0.0037589844,0.026623096,0.017717982,inf,inf,inf,inf,1,1,1,1,2,1,2,3,0,0,0
61323322,0,0.0,0.0,0.30746055,0.42147148,-0.03556559,0.29108062,0.42253163,-0.25529203,0.0016058967,0.017103968,0.010621723,0.0029701497,-0.0016956085,0.0025202872,-0.00033973085,0.06379034,0.71648896,-0.25184065,-3.0531526,0.0,0.1,-0.010621723,0.0053994493,0.0037104345,0.026438467,0.017607503,inf,inf,inf,inf,1,1,1,1,2,1,2,3,0,0,0
61427270,0,0.0,0.0,0.3077691,0.42173576,-0.035549052,0.29108062,0.42253163,-0.25529203,0.00059276924,0.01888951,0.011458928,0.0038429312,-0.0016956085,0.0025202872,-0.00033973085,-0.5064348,0.7315502,0.030122194,-3.053069,0.0,0.1,-0.011458928,0.0054672025,0.0037548423,0.026592562,0.017696587,inf,inf,inf,inf,1,1,1,1,2,1,2,3,0,0,0
61531276,0,0.0,0.0,0.3081498,0.42190573,-0.03563156,0.29108062,0.42253163,-0.25529203,0.003220768,0.016688842,0.010443113,0.0028635908,-0.0016956085,0.0025202872,-0.00033973085,0.24942546,-0.14196546,0.01803266,-3.0530026,0.0,0.1,-0.010443113,0.0051499098,0.0035487947,0.02574982,0.017193142,inf,inf,inf,inf,1,1,1,1,2,1,2,3,0,0,0
61627327,0,0.0,0.0,0.30847374,0.42202228,-0.03572658,0.29108062,0.42253163,-0.25529203,0.0028194573,0.017216194,0.010816823,0.003263122,-0.0016956085,0.0025202872,-0.00033973085,-0.28897965,0.026632976,0.13625549,-3.0530238,0.0,0.1,-0.010816823,0.00508927,0.00350868,0.025634779,0.017129475,inf,inf,inf,inf,1,1,1,1,2,1,2,3,0,0,0
61731280,0,0.0,0.0,0.30878687,0.4221788,-0.035768095,0.29108062,0.42253163,-0.25529203,0.0038323035,0.017053401,0.009736423,0.0022404518,-0.0016956085,0.0025202872,-0.00033973085,0.2926815,-0.623822,-0.07947952,-3.053028,0.0,0.1,-0.009736423,0.005156707,0.0035530974,0.025780953,0.017213227,inf,inf,inf,inf,1,1,1,1,2,1,2,3,0,0,0
61835324,0,0.0,0.0,0.30904302,0.42233533,-0.03582886,0.29108062,0.42253163,-0.25529203,0.0026232696,0.020186275,0.010017876,0.0026012105,-0.0016956085,0.0025202872,-0.00033973085,-0.3139408,0.6360145,0.073102124,-3.0529792,0.0,0.1,-0.010017876,0.0052201673,0.0035947186,0.025939481,0.017308211,inf,inf,inf,inf,1,1,1,1,2,1,2,3,0,0,0
61931275,0,0.0,0.0,0.30913183,0.4224931,-0.0359054,0.29108062,0.42253163,-0.25529203,0.0009376093,0.020698043,0.009120288,0.0017517601,-0.0016956085,0.0025202872,-0.00033973085,-0.44031635,-0.20382245,-0.15108244,-3.0529284,0.0,0.1,-0.009120288,0.0051507186,0.003549047,0.025783056,0.017212596,inf,inf,inf,inf,1,1,1,1,2,1,2,3,0,0,0
62034483,0,0.0,0.0,0.3091615,0.42267036,-0.03599212,0.29108062,0.42253163,-0.25529203,0.0018643519,0.021538539,0.009517657,0.002222715,-0.0016956085,0.0025202872,-0.00033973085,0.5096477,-0.2791589,-0.23038355,-3.0529423,0.0,0.1,-0.009517657,0.005214102,0.0035907489,0.025917044,0.017292973,inf,inf,inf,inf,1,1,1,1,2,1,2,3,0,0,0
62137712,0,0.0,0.0,0.30910268,0.4227773,-0.036104377,0.29108062,0.42253163,-0.25529203,0.0025678084,0.020657854,0.009928226,0.0026976145,-0.0016956085,0.0025202872,-0.00033973085,0.05302841,-0.18363778,-0.033447452,-3.0530157,0.0,0.1,-0.009928226,0.005270044,0.003626522,0.026059484,0.017371602,inf,inf,inf,inf,1,1,1,1,2,1,2,3,0,0,0
62242470,0,0.0,0.0,0.30902326,0.42289123,-0.036142793,0.29108062,0.42253163,-0.25529203,0.0015614141,0.022163928,0.010777565,0.0036064787,-0.0016956085,0.0025202872,-0.00033973085,0.0014027989,0.58093446,0.20811541,-3.0530574,0.0,0.1,-0.010777565,0.005382933,0.0036993506,0.026414903,0.017589321,inf,inf,inf,inf,1,1,1,1,2,1,2,3,0,0,0
62338470,0,0.0,0.0,0.30895242,0.42290765,-0.03617721,0.29108062,0.42253163,-0.25529203,0.003094687,0.018994216,0.009357425,0.0022695009,-0.0016956085,0.0025202872,-0.00033973085,0.44387767,-0.27672678,0.011244982,-3.0529296,0.0,0.1,-0.009357425,0.0052894903,0.0036393648,0.02613422,0.017423067,inf,inf,inf,inf,1,1,1,1,2,1,2,3,0,0,0
62442476,0,0.0,0.0,0.30888736,0.42285177,-0.036239363,0.29108062,0.42253163,-0.25529203,0.0005964895,0.021327937,0.008698372,0.001715705,-0.0016956085,0.0025202872,-0.00033973085,-0.23528142,0.66337293,0.14419451,-3.052888,0.0,0.1,-0.008698372,0.005366909,0.0036893864,0.026359793,0.017558279,inf,inf,inf,inf,1,1,1,1,2,1,2,3,0,0,0
62546470,0,0.0,0.0,0.30877504,0.42275527,-0.036328264,0.29108062,0.42253163,-0.25529203,9.153652e-05,0.020826,0.008765455,0.0018789313,-0.0016956085,0.0025202872,-0.00033973085,-0.2719112,-0.38517943,0.23844552,-3.0529943,0.0,0.1,-0.008765455,0.0054334933,0.0037330128,0.026506186,0.017644571,inf,inf,inf,inf,1,1,1,1,2,1,2,3,0,0,0
62642483,0,0.0,0.0,0.30868313,0.4226559,-0.03633869,0.29108062,0.42253163,-0.25529203,0.0022674296,0.020941412,0.009737353,0.002949335,-0.0016956085,0.0025202872,-0.00033973085,0.65331334,0.04019682,0.016541427,-3.0529184,0.0,0.1,-0.009737353,0.0053430093,0.003674343,0.02626394,0.017494615,inf,inf,inf,inf,1,1,1,1,2,1,2,3,0,0,0
62746476,0,0.0,0.0,0.30864248,0.42250755,-0.036282163,0.29108062,0.42253163,-0.25529203,-0.00020294033,0.020939615,0.010465645,0.0037809266,-0.0016956085,0.0025202872,-0.00033973085,-0.40813497,0.0044132844,0.08278253,-3.0528328,0.0,0.1,-0.010465645,0.0054556844,0.0037464101,0.026602132,0.017695894,inf,inf,inf,inf,1,1,1,1,2,1,2,3,0,0,0
62850470,0,0.0,0.0,0.30859935,0.42239666,-0.03619332,0.29108062,0.42253163,-0.25529203,0.0007122735,0.019602153,0.009674446,0.003086155,-0.0016956085,0.0025202872,-0.00033973085,0.054340806,-0.25344393,-0.14752807,-3.052739,0.0,0.1,-0.009674446,0.0051477687,0.0035466603,0.02575412,0.017191527,inf,inf,inf,inf,1,1,1,1,2,1,2,3,0,0,0
62946470,0,0.0,0.0,0.30853394,0.42229572,-0.036126617,0.29108062,0.42253163,-0.25529203,4.3647124e-05,0.020252185,0.010267999,0.0037359712,-0.0016956085,0.0025202872,-0.00033973085,-0.1898831,0.1871942,0.047869015,-3.0527487,0.0,0.1,-0.010267999,0.0054503432,0.0037435945,0.026539704,0.017661955,inf,inf,inf,inf,1,1,1,1,2,1,2,3,0,0,0
