timestamp,x,y,z,yaw,yawspeed,vx,vy,vz,acc_x,acc_y,acc_z,jerk_x,jerk_y,jerk_z,thrust[0],thrust[1],thrust[2]
234158676,0.41277006,0.32362887,nan,-3.0439405,0.0,-0.0017578766,-0.001523225,-0.59013,0.0,0.0,0.0,0.0,0.0,0.0,-0.0060057053,-0.0038025235,-0.63209236
234178683,0.41277006,0.32362887,nan,-3.0439405,0.0,-0.002837959,-0.0025279685,-0.79019,0.0,0.0,0.0,0.0,0.0,0.0,-0.0041152528,-0.0076985513,-0.67355573
234278857,0.41277006,0.32362887,nan,-3.0439405,0.0,-0.009970625,-0.010001712,-0.9919684,0.0,0.0,0.0,0.0,0.0,0.0,-0.0101929,-0.011225226,-0.7180841
234378948,0.41277006,0.32362887,nan,-3.0439405,0.0,-0.017080924,-0.018126974,-0.9919684,0.0,0.0,0.0,0.0,0.0,0.0,-0.012660924,-0.009142434,-0.7175009
234479357,0.41277006,0.32362887,nan,-3.0439405,0.0,-0.026565315,-0.028365206,-0.9919684,0.0,0.0,0.0,0.0,0.0,0.0,-0.012584113,-0.013173016,-0.71004343
234579526,0.41277006,0.32362887,nan,-3.0439405,0.0,-0.03594328,-0.03927132,-0.9919684,0.0,0.0,0.0,0.0,0.0,0.0,-0.015055136,-0.015952246,-0.70503724
234679530,0.41277006,0.32362887,nan,-3.0439405,0.0,-0.046265427,-0.051214885,-0.9919684,0.0,0.0,0.0,0.0,0.0,0.0,-0.014714137,-0.009537578,-0.70061237
234779547,0.41277006,0.32362887,nan,-3.0439405,0.0,-0.05497248,-0.062018227,-0.9919684,0.0,0.0,0.0,0.0,0.0,0.0,-0.019521734,-0.012389177,-0.6985968
234879560,0.41277006,0.32362887,nan,-3.0439405,0.0,-0.06325977,-0.07125072,-0.9919684,0.0,0.0,0.0,0.0,0.0,0.0,-0.017763086,-0.007874306,-0.69735646
234999623,0.41277006,0.32362887,nan,-3.0439405,0.0,-0.07215581,-0.07782428,-0.9919684,0.0,0.0,0.0,0.0,0.0,0.0,-0.023048026,-0.014429392,-0.69611484
235099624,0.41277006,0.32362887,nan,-3.0439405,0.0,-0.07883701,-0.08025593,-0.9919684,0.0,0.0,0.0,0.0,0.0,0.0,-0.017376535,-0.0015637069,-0.6985014
235199899,0.41277006,0.32362887,nan,-3.0439405,0.0,-0.08483025,-0.079403736,-0.9919684,0.0,0.0,0.0,0.0,0.0,0.0,-0.014772451,-0.00526597,-0.7038387
235299965,0.41277006,0.32362887,nan,-3.0439405,0.0,-0.08985165,-0.0761277,-0.9919684,0.0,0.0,0.0,0.0,0.0,0.0,-0.020784665,-0.004834064,-0.7053865
235400079,0.41277006,0.32362887,nan,-3.0439405,0.0,-0.09379287,-0.071276374,-0.9919684,0.0,0.0,0.0,0.0,0.0,0.0,-0.016689027,-0.0023576608,-0.7074988
235500173,0.41277006,0.32362887,nan,-3.0439405,0.0,-0.098168865,-0.06456839,-0.9919684,0.0,0.0,0.0,0.0,0.0,0.0,-0.020016365,-0.0037377747,-0.70757276
235600206,0.41277006,0.32362887,nan,-3.0439405,0.0,-0.10250222,-0.057656534,-0.9919684,0.0,0.0,0.0,0.0,0.0,0.0,-0.018539194,0.0014150476,-0.7122649
235700305,0.41277006,0.32362887,nan,-3.0439405,0.0,-0.1081475,-0.050504588,-0.9919684,0.0,0.0,0.0,0.0,0.0,0.0,-0.020141922,0.0019030429,-0.7151501
235800390,0.41277006,0.32362887,nan,-3.0439405,0.0,-0.11440274,-0.043887995,-0.9919684,0.0,0.0,0.0,0.0,0.0,0.0,-0.022852238,3.9181206e-05,-0.7171042
235900464,0.41277006,0.32362887,nan,-3.0439405,0.0,-0.12202762,-0.03747582,-0.9919684,0.0,0.0,0.0,0.0,0.0,0.0,-0.0199035,0.0050276825,-0.72295964
236000588,0.41277006,0.32362887,nan,-3.0439405,0.0,-0.13002095,-0.032370165,-0.9919684,0.0,0.0,0.0,0.0,0.0,0.0,-0.026153848,-0.0009706699,-0.7249394
236100755,0.41277006,0.32362887,nan,-3.0439405,0.0,-0.13902548,-0.027397098,-0.9663142,0.0,0.0,0.0,0.0,0.0,0.0,-0.026129436,0.0064874785,-0.7224767
236200846,0.41277006,0.32362887,nan,-3.0439405,0.0,-0.14715254,-0.023526253,-0.6625971,0.0,0.0,0.0,0.0,0.0,0.0,-0.026225388,-0.00017131888,-0.661808
236320882,0.41277006,0.32362887,nan,-3.0439405,0.0,-0.15610442,-0.018567087,-0.67868483,0.0,0.0,0.0,0.0,0.0,0.0,-0.029101612,0.003776684,-0.67004573
236421059,0.41277006,0.32362887,nan,-3.0439405,0.0,-0.16276407,-0.0146916,-0.43716958,0.0,0.0,0.0,0.0,0.0,0.0,-0.029020254,-0.0021981872,-0.6320589
236521076,0.41277006,0.32362887,nan,-3.0439405,0.0,-0.16711922,-0.011375589,-0.3990039,0.0,0.0,0.0,0.0,0.0,0.0,-0.020583965,0.0019490077,-0.6404871
236621206,0.41277006,0.32362887,nan,-3.0439405,0.0,-0.16965917,-0.0072190748,-0.39751577,0.0,0.0,0.0,0.0,0.0,0.0,-0.029140431,0.0025642905,-0.6572931
236721270,0.41277006,0.32362887,nan,-3.0439405,0.0,-0.17056674,-0.0024349063,-0.3975893,0.0,0.0,0.0,0.0,0.0,0.0,-0.026572302,0.0051140236,-0.68127984
236822713,0.41277006,0.32362887,nan,-3.0439405,0.0,-0.16938438,0.0028596178,-0.39759052,0.0,0.0,0.0,0.0,0.0,0.0,-0.024062974,0.009208865,-0.6975312
236921593,0.41277006,0.32362887,nan,-3.0439405,0.0,-0.16765426,0.0093522575,-0.40622798,0.0,0.0,0.0,0.0,0.0,0.0,-0.027463362,0.0040339762,-0.70958364
237022720,0.41277006,0.32362887,nan,-3.0439405,0.0,-0.16489813,0.016538942,-0.40561447,0.0,0.0,0.0,0.0,0.0,0.0,-0.029271513,0.007900024,-0.71639127
237121737,0.41277006,0.32362887,nan,-3.0439405,0.0,-0.16152343,0.024694331,-0.405622,0.0,0.0,0.0,0.0,0.0,0.0,-0.02401495,0.012573485,-0.71994746
237223236,0.41277006,0.32362887,nan,-3.0439405,0.0,-0.15819335,0.03403501,-0.40562242,0.0,0.0,0.0,0.0,0.0,0.0,-0.025966428,0.0096661085,-0.71534765
237321934,0.41277006,0.32362887,nan,-3.0439405,0.0,-0.15574554,0.043770075,-0.40562242,0.0,0.0,0.0,0.0,0.0,0.0,-0.02093976,0.016823834,-0.7096721
237441967,0.41277006,0.32362887,nan,-3.0439405,0.0,-0.15370014,0.05767103,-0.40562242,0.0,0.0,0.0,0.0,0.0,0.0,-0.022141362,0.019423805,-0.69915724
237542446,0.41277006,0.32362887,nan,-3.0439405,0.0,-0.15294443,0.06985326,-0.40562242,0.0,0.0,0.0,0.0,0.0,0.0,-0.024590809,0.01997373,-0.6869549
237642423,0.41277006,0.32362887,nan,-3.0439405,0.0,-0.15254784,0.08210354,-0.40562242,0.0,0.0,0.0,0.0,0.0,0.0,-0.018690646,0.02298235,-0.6773318
237742597,0.41277006,0.32362887,nan,-3.0439405,0.0,-0.15154542,0.09441256,-0.40562242,0.0,0.0,0.0,0.0,0.0,0.0,-0.019769566,0.019767992,-0.6706571
237842584,0.41277006,0.32362887,nan,-3.0439405,0.0,-0.14966276,0.10448848,-0.40562242,0.0,0.0,0.0,0.0,0.0,0.0,-0.020261498,0.020919278,-0.6647653
237942602,0.41277006,0.32362887,nan,-3.0439405,0.0,-0.14573677,0.1132517,-0.40562242,0.0,0.0,0.0,0.0,0.0,0.0,-0.021996,0.017883103,-0.65705955
238042613,0.41277006,0.32362887,nan,-3.0439405,0.0,-0.14060037,0.118893854,-0.40562242,0.0,0.0,0.0,0.0,0.0,0.0,-0.017883781,0.01781369,-0.6528413
238142935,0.41277006,0.32362887,nan,-3.0439405,0.0,-0.13396421,0.12191168,-0.40562242,0.0,0.0,0.0,0.0,0.0,0.0,-0.020758262,0.012379564,-0.6498635
238242796,0.41277006,0.32362887,nan,-3.0439405,0.0,-0.12648912,0.121162966,-0.40562242,0.0,0.0,0.0,0.0,0.0,0.0,-0.013990323,0.010065464,-0.64940375
238342853,0.41277006,0.32362887,nan,-3.0439405,0.0,-0.116693996,0.11626341,-0.40562242,0.0,0.0,0.0,0.0,0.0,0.0,-0.01249931,0.0067350874,-0.6510215
238443365,0.41277006,0.32362887,nan,-3.0439405,0.0,-0.10653971,0.108321734,-0.40562242,0.0,0.0,0.0,0.0,0.0,0.0,-0.010358265,0.006079592,-0.6538557
238543502,0.41277006,0.32362887,nan,-3.0439405,0.0,-0.09453765,0.09722805,-0.40562242,0.0,0.0,0.0,0.0,0.0,0.0,-0.010815519,0.0022486309,-0.65618336
238663513,0.41277006,0.32362887,nan,-3.0439405,0.0,-0.08001176,0.082187995,-0.40562242,0.0,0.0,0.0,0.0,0.0,0.0,-0.01449186,0.00037263008,-0.65848374
238764468,0.41277006,0.32362887,nan,-3.0439405,0.0,-0.06744199,0.06949684,-0.40562242,0.0,0.0,0.0,0.0,0.0,0.0,-0.0072746202,-0.0029964815,-0.65792537
238863649,0.41277006,0.32362887,nan,-3.0439405,0.0,-0.05577411,0.058221474,-0.40562242,0.0,0.0,0.0,0.0,0.0,0.0,-0.006907709,0.0002683855,-0.658972
238965201,0.41277006,0.32362887,nan,-3.0439405,0.0,-0.043612942,0.048531707,-0.40562242,0.0,0.0,0.0,0.0,0.0,0.0,-0.007069284,0.0008460486,-0.656435
239063985,0.41277006,0.32362887,nan,-3.0439405,0.0,-0.0333915,0.041825425,-0.40562242,0.0,0.0,0.0,0.0,0.0,0.0,-0.006360763,-0.0003129025,-0.65864426
239166062,0.41277006,0.32362887,nan,-3.0439405,0.0,-0.024122622,0.0378184,-0.40562242,0.0,0.0,0.0,0.0,0.0,0.0,-0.006127131,0.0032444892,-0.65727615
239263959,0.41277006,0.32362887,nan,-3.0439405,0.0,-0.017381372,0.036235686,-0.40562242,0.0,0.0,0.0,0.0,0.0,0.0,-0.007307977,0.0035942057,-0.6575991
239365205,0.41277006,0.32362887,nan,-3.0439405,0.0,-0.012153241,0.03690496,-0.40562242,0.0,0.0,0.0,0.0,0.0,0.0,-0.008043069,0.00400399,-0.6568149
239464181,0.41277006,0.32362887,nan,-3.0439405,0.0,-0.008618348,0.038467936,-0.40562242,0.0,0.0,0.0,0.0,0.0,0.0,-0.005177781,0.00310169,-0.6585776
239564816,0.41277006,0.32362887,nan,-3.0439405,0.0,-0.0058228015,0.0407952,-0.40562242,0.0,0.0,0.0,0.0,0.0,0.0,-0.0073436205,0.009084871,-0.6563879
239664182,0.41277006,0.32362887,nan,-3.0439405,0.0,-0.0036096647,0.042677138,-0.40562242,0.0,0.0,0.0,0.0,0.0,0.0,-0.006391739,0.0020896476,-0.6517312
239765175,0.41277006,0.32362887,nan,-3.0439405,0.0,-0.0006385252,0.043955464,-0.40562242,0.0,0.0,0.0,0.0,0.0,0.0,-0.0062968335,0.006722167,-0.6521969
239884573,0.41277006,0.32362887,nan,-3.0439405,0.0,0.0034006073,0.043001115,-0.40562242,0.0,0.0,0.0,0.0,0.0,0.0,-0.010667995,0.0003917904,-0.65201265
239984588,0.41277006,0.32362887,nan,-3.0439405,0.0,0.0074239136,0.039628,-0.40562242,0.0,0.0,0.0,0.0,0.0,0.0,-0.0052158367,0.0010881752,-0.6516101
240084772,0.41277006,0.32362887,nan,-3.0439405,0.0,0.012607652,0.03284012,-0.40562242,0.0,0.0,0.0,0.0,0.0,0.0,-0.004839318,-0.0033669334,-0.6536702
240184868,0.41277006,0.32362887,nan,-3.0439405,0.0,0.018523997,0.024635242,-0.40562242,0.0,0.0,0.0,0.0,0.0,0.0,-0.001369278,-0.0011493063,-0.65803075
240284935,0.41277006,0.32362887,nan,-3.0439405,0.0,0.02622016,0.0147587,-0.40562242,0.0,0.0,0.0,0.0,0.0,0.0,0.0005939165,-0.0028718128,-0.6641059
240385172,0.41277006,0.32362887,nan,-3.0439405,0.0,0.03350874,0.0054585366,-0.40562242,0.0,0.0,0.0,0.0,0.0,0.0,-0.0032838564,-0.0017880113,-0.6655057
240485163,0.41277006,0.32362887,nan,-3.0439405,0.0,0.041375995,-0.0038615018,-0.40562242,0.0,0.0,0.0,0.0,0.0,0.0,-0.0037723673,-0.003044097,-0.6699509
240585187,0.41277006,0.32362887,nan,-3.0439405,0.0,0.048157673,-0.011368257,-0.40562242,0.0,0.0,0.0,0.0,0.0,0.0,-0.0018992815,-0.0029482443,-0.6722756
240685203,0.41277006,0.32362887,nan,-3.0439405,0.0,0.05386063,-0.016591916,-0.40562242,0.0,0.0,0.0,0.0,0.0,0.0,-0.004548514,0.004857085,-0.6710717
240785372,0.41277006,0.32362887,nan,-3.0439405,0.0,0.057168063,-0.01905168,-0.40562242,0.0,0.0,0.0,0.0,0.0,0.0,-0.0044571403,-0.0002706158,-0.6679741
240885573,0.41277006,0.32362887,nan,-3.0439405,0.0,0.05862614,-0.019757757,-0.40562242,0.0,0.0,0.0,0.0,0.0,0.0,-0.0058311704,0.0055722645,-0.6677029
241005635,0.41277006,0.32362887,nan,-3.0439405,0.0,0.057209652,-0.016243534,-0.40562242,0.0,0.0,0.0,0.0,0.0,0.0,-0.011237848,0.0049727047,-0.6632657
241105719,0.41277006,0.32362887,nan,-3.0439405,0.0,0.053394385,-0.010500997,-0.40562242,0.0,0.0,0.0,0.0,0.0,0.0,-0.013705713,0.0034480514,-0.6602422
241205788,0.41277006,0.32362887,nan,-3.0439405,0.0,0.047367822,-0.0028654218,-0.40562242,0.0,0.0,0.0,0.0,0.0,0.0,-0.007315682,0.010891169,-0.6593448
241305844,0.41277006,0.32362887,nan,-3.0439405,0.0,0.03859211,0.0070918114,-0.40562242,0.0,0.0,0.0,0.0,0.0,0.0,-0.009701452,0.014002575,-0.6615084
241405935,0.41277006,0.32362887,nan,-3.0439405,0.0,0.029101012,0.016885597,-0.40562242,0.0,0.0,0.0,0.0,0.0,0.0,-0.016418573,0.011455405,-0.6631654
241506066,0.41277006,0.32362887,nan,-3.0439405,0.0,0.018855816,0.027848933,-0.40562242,0.0,0.0,0.0,0.0,0.0,0.0,-0.020102724,0.012063316,-0.66627645
241606394,0.41277006,0.32362887,nan,-3.0439405,0.0,0.010912091,0.037438307,-0.40562242,0.0,0.0,0.0,0.0,0.0,0.0,-0.011869025,0.015024894,-0.6712074
241706383,0.41277006,0.32362887,nan,-3.0439405,0.0,0.004140292,0.045170765,-0.40562242,0.0,0.0,0.0,0.0,0.0,0.0,-0.012082738,0.0117887035,-0.67361987
241806565,0.41277006,0.32362887,nan,-3.0439405,0.0,-2.0979345e-05,0.050347738,-0.40562242,0.0,0.0,0.0,0.0,0.0,0.0,-0.01548613,0.011256294,-0.6748197
241906563,0.41277006,0.32362887,nan,-3.0439405,0.0,-0.002584678,0.05118663,-0.40562242,0.0,0.0,0.0,0.0,0.0,0.0,-0.014095082,0.0064953445,-0.6784235
242006576,0.41277006,0.32362887,nan,-3.0439405,0.0,-0.0032520816,0.047385998,-0.40562242,0.0,0.0,0.0,0.0,0.0,0.0,-0.012725713,0.006252141,-0.6758757
242106661,0.41277006,0.32362887,nan,-3.0439405,0.0,-0.0021424412,0.03927608,-0.40562242,0.0,0.0,0.0,0.0,0.0,0.0,-0.015057797,-0.0007591634,-0.67704713
242206705,0.41277006,0.32362887,nan,-3.0439405,0.0,-0.00025577247,0.027327733,-0.40562242,0.0,0.0,0.0,0.0,0.0,0.0,-0.012004541,-0.003397963,-0.6753781
242326839,0.41277006,0.32362887,nan,-3.0439405,0.0,0.0015490741,0.008867157,-0.40562242,0.0,0.0,0.0,0.0,0.0,0.0,-0.0149844065,-0.0061522187,-0.6713103
242427352,0.41277006,0.32362887,nan,-3.0439405,0.0,0.0012329116,-0.008625654,-0.40562242,0.0,0.0,0.0,0.0,0.0,0.0,-0.014278471,-0.012849233,-0.67098075
242527420,0.41277006,0.32362887,nan,-3.0439405,0.0,-0.0012746155,-0.025139766,-0.40562242,0.0,0.0,0.0,0.0,0.0,0.0,-0.018044647,-0.011994842,-0.6695727
242627541,0.41277006,0.32362887,nan,-3.0439405,0.0,-0.0059508574,-0.04284506,-0.40562242,0.0,0.0,0.0,0.0,0.0,0.0,-0.015609838,-0.015920432,-0.6689445
242727337,0.41277006,0.32362887,nan,-3.0439405,0.0,-0.012377304,-0.056658838,-0.40562242,0.0,0.0,0.0,0.0,0.0,0.0,-0.019639961,-0.013999979,-0.6685213
242827534,0.41277006,0.32362887,nan,-3.0439405,0.0,-0.021368241,-0.069009386,-0.40562242,0.0,0.0,0.0,0.0,0.0,0.0,-0.016483113,-0.01861023,-0.6679405
242927454,0.41277006,0.32362887,nan,-3.0439405,0.0,-0.030662261,-0.07777006,-0.40562242,0.0,0.0,0.0,0.0,0.0,0.0,-0.020394035,-0.014636996,-0.6677776
243027619,0.41277006,0.32362887,nan,-3.0439405,0.0,-0.04128987,-0.08405543,-0.40562242,0.0,0.0,0.0,0.0,0.0,0.0,-0.02102309,-0.0174392,-0.6675925
243127791,0.41277006,0.32362887,nan,-3.0439405,0.0,-0.050844193,-0.08705768,-0.40562242,0.0,0.0,0.0,0.0,0.0,0.0,-0.024762247,-0.009528029,-0.6692538
243227810,0.41277006,0.32362887,nan,-3.0439405,0.0,-0.059984222,-0.088512704,-0.40562242,0.0,0.0,0.0,0.0,0.0,0.0,-0.020252485,-0.011834264,-0.67582315
243328020,0.41277006,0.32362887,nan,-3.0439405,0.0,-0.06653315,-0.08843878,-0.40562242,0.0,0.0,0.0,0.0,0.0,0.0,-0.025821488,-0.010837751,-0.67878765
243428058,0.41277006,0.32362887,nan,-3.0439405,0.0,-0.07142399,-0.08773228,-0.40562242,0.0,0.0,0.0,0.0,0.0,0.0,-0.020576239,-0.01285965,-0.68273723
243528110,0.41277006,0.32362887,nan,-3.0439405,0.0,-0.07395998,-0.08698192,-0.40562242,0.0,0.0,0.0,0.0,0.0,0.0,-0.020814603,-0.008838881,-0.6864251
243628218,0.41277006,0.32362887,nan,-3.0439405,0.0,-0.07453791,-0.08534227,-0.40562242,0.0,0.0,0.0,0.0,0.0,0.0,-0.019147623,-0.008421845,-0.68744874
243748325,0.41277006,0.32362887,nan,-3.0439405,0.0,-0.072388135,-0.082233,-0.40562242,0.0,0.0,0.0,0.0,0.0,0.0,-0.017191574,-0.009123374,-0.69051814
243848390,0.41277006,0.32362887,nan,-3.0439405,0.0,-0.069116496,-0.07948629,-0.40562242,0.0,0.0,0.0,0.0,0.0,0.0,-0.014379052,-0.0059559755,-0.6915537
243948533,0.41277006,0.32362887,nan,-3.0439405,0.0,-0.06471123,-0.07590182,-0.40562242,0.0,0.0,0.0,0.0,0.0,0.0,-0.017104546,-0.0045051663,-0.69075346
244048591,0.41277006,0.32362887,nan,-3.0439405,0.0,-0.059495892,-0.07312533,-0.40562242,0.0,0.0,0.0,0.0,0.0,0.0,-0.009332914,-0.002721069,-0.69368124
244148810,0.41277006,0.32362887,nan,-3.0439405,0.0,-0.052762996,-0.0695702,-0.40562242,0.0,0.0,0.0,0.0,0.0,0.0,-0.0082368385,-0.0012777046,-0.6927946
244249158,0.41277006,0.32362887,nan,-3.0439405,0.0,-0.045673195,-0.06642678,-0.40562242,0.0,0.0,0.0,0.0,0.0,0.0,-0.01235268,-0.005199924,-0.6902232
244349163,0.41277006,0.32362887,nan,-3.0439405,0.0,-0.03819305,-0.0632914,-0.40562242,0.0,0.0,0.0,0.0,0.0,0.0,-0.00675416,-0.0026030336,-0.6908039
244449229,0.41277006,0.32362887,nan,-3.0439405,0.0,-0.031945765,-0.061008528,-0.40562242,0.0,0.0,0.0,0.0,0.0,0.0,-0.011992091,-0.0070561636,-0.69046324
244549221,0.41277006,0.32362887,nan,-3.0439405,0.0,-0.025859151,-0.059833147,-0.40562242,0.0,0.0,0.0,0.0,0.0,0.0,-0.011854418,-0.00841644,-0.6905837
244649242,0.41277006,0.32362887,nan,-3.0439405,0.0,-0.020777846,-0.05844749,-0.40562242,0.0,0.0,0.0,0.0,0.0,0.0,-0.0074630505,-0.0029343697,-0.6919034
244749595,0.41277006,0.32362887,nan,-3.0439405,0.0,-0.015774937,-0.05823181,-0.40562242,0.0,0.0,0.0,0.0,0.0,0.0,-0.0062548607,-0.0060190335,-0.69251925
244849418,0.41277006,0.32362887,nan,-3.0439405,0.0,-0.011509138,-0.05773289,-0.40562242,0.0,0.0,0.0,0.0,0.0,0.0,-0.0063624675,-8.9344685e-05,-0.69185007
244969640,0.41277006,0.32362887,nan,-3.0439405,0.0,-0.007621844,-0.057170667,-0.40562242,0.0,0.0,0.0,0.0,0.0,0.0,-0.009567148,-0.0062015476,-0.69404197
245069843,0.41277006,0.32362887,nan,-3.0439405,0.0,-0.005106814,-0.055894043,-0.40562242,0.0,0.0,0.0,0.0,0.0,0.0,-0.00568206,-0.0058029694,-0.6948101
245169942,0.41277006,0.32362887,nan,-3.0439405,0.0,-0.0030104085,-0.05480453,-0.40562242,0.0,0.0,0.0,0.0,0.0,0.0,-0.00752951,-0.007690084,-0.69550204
245269803,0.41277006,0.32362887,nan,-3.0439405,0.0,-0.0019573926,-0.053560097,-0.40562242,0.0,0.0,0.0,0.0,0.0,0.0,-0.0112911565,-0.0023441042,-0.69618183
245369879,0.41277006,0.32362887,nan,-3.0439405,0.0,-0.0020801544,-0.05222464,-0.40562242,0.0,0.0,0.0,0.0,0.0,0.0,-0.011093361,-0.0033300412,-0.69850385
245469997,0.41277006,0.32362887,nan,-3.0439405,0.0,-0.003079009,-0.05092522,-0.40562242,0.0,0.0,0.0,0.0,0.0,0.0,-0.013198281,-0.004465351,-0.702855
245570372,0.41277006,0.32362887,nan,-3.0439405,0.0,-0.0049434244,-0.049413547,-0.40562242,0.0,0.0,0.0,0.0,0.0,0.0,-0.014897057,-0.0015689535,-0.7032349
245670568,0.41277006,0.32362887,nan,-3.0439405,0.0,-0.008377639,-0.04708671,-0.40562242,0.0,0.0,0.0,0.0,0.0,0.0,-0.013103593,-0.0043411925,-0.7013303
245770397,0.41277006,0.32362887,nan,-3.0439405,0.0,-0.013149547,-0.044899818,-0.40562242,0.0,0.0,0.0,0.0,0.0,0.0,-0.01891923,-0.0020059627,-0.7014981
245870483,0.41277006,0.32362887,nan,-3.0439405,0.0,-0.019165806,-0.042395998,-0.40562242,0.0,0.0,0.0,0.0,0.0,0.0,-0.021591485,-0.0017514403,-0.6984578
245970535,0.41277006,0.32362887,nan,-3.0439405,0.0,-0.02459654,-0.03947605,-0.40562242,0.0,0.0,0.0,0.0,0.0,0.0,-0.016620046,-0.0020954993,-0.70027804
246090672,0.41277006,0.32362887,nan,-3.0439405,0.0,-0.030038571,-0.03508477,-0.40562242,0.0,0.0,0.0,0.0,0.0,0.0,-0.015275924,0.0006488371,-0.69978994
246190763,0.41277006,0.32362887,nan,-3.0439405,0.0,-0.032984994,-0.029455254,-0.40562242,0.0,0.0,0.0,0.0,0.0,0.0,-0.01738739,0.004130478,-0.6990322
246290993,0.41277006,0.32362887,nan,-3.0439405,0.0,-0.034432456,-0.023124957,-0.40562242,0.0,0.0,0.0,0.0,0.0,0.0,-0.01673035,0.0019673014,-0.7036215
246391104,0.41277006,0.32362887,nan,-3.0439405,0.0,-0.035606902,-0.014531523,-0.40562242,0.0,0.0,0.0,0.0,0.0,0.0,-0.013601501,0.010048028,-0.7085388
246492843,0.41277006,0.32362887,nan,-3.0439405,0.0,-0.035118487,-0.0042460663,-0.40562242,0.0,0.0,0.0,0.0,0.0,0.0,-0.016055856,0.014134608,-0.70844793
246591284,0.41277006,0.32362887,nan,-3.0439405,0.0,-0.032833494,0.0071472465,-0.40562242,0.0,0.0,0.0,0.0,0.0,0.0,-0.014671874,0.010364098,-0.7108624
246691413,0.41277006,0.32362887,nan,-3.0439405,0.0,-0.029039603,0.01964567,-0.40562242,0.0,0.0,0.0,0.0,0.0,0.0,-0.015702974,0.010866977,-0.711714
246791763,0.41277006,0.32362887,nan,-3.0439405,0.0,-0.023579424,0.034683328,-0.40562242,0.0,0.0,0.0,0.0,0.0,0.0,-0.012806084,0.013036474,-0.7142981
246893245,0.41277006,0.32362887,nan,-3.0439405,0.0,-0.017472737,0.05009437,-0.40562242,0.0,0.0,0.0,0.0,0.0,0.0,-0.008665545,0.016756557,-0.71881145
246991584,0.41277006,0.32362887,nan,-3.0439405,0.0,-0.012201202,0.06477111,-0.40562242,0.0,0.0,0.0,0.0,0.0,0.0,-0.012816287,0.020093292,-0.71902287
247092941,0.41277006,0.32362887,nan,-3.0439405,0.0,-0.008027756,0.07971824,-0.40562242,0.0,0.0,0.0,0.0,0.0,0.0,-0.016732372,0.017723933,-0.7187121
247212397,0.41277006,0.32362887,nan,-3.0439405,0.0,-0.006860614,0.09536786,-0.40562242,0.0,0.0,0.0,0.0,0.0,0.0,-0.01397235,0.02156097,-0.71959573
247312105,0.41277006,0.32362887,nan,-3.0439405,0.0,-0.008943118,0.105544664,-0.40562242,0.0,0.0,0.0,0.0,0.0,0.0,-0.020059029,0.019729247,-0.7178806
247412272,0.41277006,0.32362887,nan,-3.0439405,0.0,-0.013064639,0.11610782,-0.40562242,0.0,0.0,0.0,0.0,0.0,0.0,-0.021995638,0.022367872,-0.7181158
247512217,0.41277006,0.32362887,nan,-3.0439405,0.0,-0.017828735,0.12429617,-0.40562242,0.0,0.0,0.0,0.0,0.0,0.0,-0.019510496,0.022777919,-0.7214018
247612237,0.41277006,0.32362887,nan,-3.0439405,0.0,-0.024009176,0.13230814,-0.40562242,0.0,0.0,0.0,0.0,0.0,0.0,-0.01892684,0.020585708,-0.71662503
247712355,0.41277006,0.32362887,nan,-3.0439405,0.0,-0.029814905,0.13828444,-0.40562242,0.0,0.0,0.0,0.0,0.0,0.0,-0.020004183,0.027310284,-0.71679837
247812463,0.41277006,0.32362887,nan,-3.0439405,0.0,-0.035923094,0.14374657,-0.40562242,0.0,0.0,0.0,0.0,0.0,0.0,-0.019194469,0.024386927,-0.7156447
247912443,0.41277006,0.32362887,nan,-3.0439405,0.0,-0.040279068,0.14828692,-0.40562242,0.0,0.0,0.0,0.0,0.0,0.0,-0.020145876,0.025588099,-0.71799517
248013187,0.41277006,0.32362887,nan,-3.0439405,0.0,-0.043002363,0.15248428,-0.40562242,0.0,0.0,0.0,0.0,0.0,0.0,-0.021027673,0.022395322,-0.7219591
248113003,0.41277006,0.32362887,nan,-3.0439405,0.0,-0.04355241,0.15464167,-0.40562242,0.0,0.0,0.0,0.0,0.0,0.0,-0.016817218,0.017725581,-0.72289956
248213087,0.41277006,0.32362887,nan,-3.0439405,0.0,-0.041770216,0.15362044,-0.40562242,0.0,0.0,0.0,0.0,0.0,0.0,-0.019192098,0.018047806,-0.72064173
248313166,0.41277006,0.32362887,nan,-3.0439405,0.0,-0.03831174,0.15138787,-0.40562242,0.0,0.0,0.0,0.0,0.0,0.0,-0.015894424,0.014687496,-0.72130775
248413147,0.41277006,0.32362887,nan,-3.0439405,0.0,-0.03310481,0.14671993,-0.40562242,0.0,0.0,0.0,0.0,0.0,0.0,-0.017768037,0.012061344,-0.7206814
248533563,0.41277006,0.32362887,nan,-3.0439405,0.0,-0.026990252,0.140807,-0.40562242,0.0,0.0,0.0,0.0,0.0,0.0,-0.0135166,0.013834777,-0.7242094
248633152,0.41277006,0.32362887,nan,-3.0439405,0.0,-0.022716157,0.1353144,-0.40562242,0.0,0.0,0.0,0.0,0.0,0.0,-0.01600731,0.009487114,-0.7257333
248733948,0.41277006,0.32362887,nan,-3.0439405,0.0,-0.019220788,0.13116862,-0.40562242,0.0,0.0,0.0,0.0,0.0,0.0,-0.01765294,0.0162884,-0.72712654
248833559,0.41277006,0.32362887,nan,-3.0439405,0.0,-0.017807273,0.12867722,-0.40562242,0.0,0.0,0.0,0.0,0.0,0.0,-0.015859092,0.01517833,-0.7246925
248934067,0.41277006,0.32362887,nan,-3.0439405,0.0,-0.019000519,0.12718739,-0.40562242,0.0,0.0,0.0,0.0,0.0,0.0,-0.016738899,0.017481009,-0.7242129
249033777,0.41277006,0.32362887,nan,-3.0439405,0.0,-0.022346739,0.12727706,-0.40562242,0.0,0.0,0.0,0.0,0.0,0.0,-0.020045333,0.013797544,-0.72332835
249134587,0.41277006,0.32362887,nan,-3.0439405,0.0,-0.027643556,0.12959865,-0.40562242,0.0,0.0,0.0,0.0,0.0,0.0,-0.021618543,0.013005698,-0.72593546
249233775,0.41277006,0.32362887,nan,-3.0439405,0.0,-0.033293,0.13119207,-0.40562242,0.0,0.0,0.0,0.0,0.0,0.0,-0.023134407,0.018765602,-0.7220684
249334197,0.41277006,0.32362887,nan,-3.0439405,0.0,-0.03955821,0.13384745,-0.40562242,0.0,0.0,0.0,0.0,0.0,0.0,-0.025066208,0.015123643,-0.72041935
249433924,0.41277006,0.32362887,nan,-3.0439405,0.0,-0.045043472,0.13517763,-0.40562242,0.0,0.0,0.0,0.0,0.0,0.0,-0.023463165,0.020124758,-0.72106826
249534190,0.41277006,0.32362887,nan,-3.0439405,0.0,-0.050346605,0.13536999,-0.40562242,0.0,0.0,0.0,0.0,0.0,0.0,-0.024004586,0.012922103,-0.7223197
249634373,0.41277006,0.32362887,nan,-3.0439405,0.0,-0.054570276,0.13418607,-0.40562242,0.0,0.0,0.0,0.0,0.0,0.0,-0.024198383,0.018241435,-0.7259321
249734374,0.41277006,0.32362887,nan,-3.0439405,0.0,-0.058783896,0.13240886,-0.40562242,0.0,0.0,0.0,0.0,0.0,0.0,-0.024125855,0.012451939,-0.730314
249834585,0.41277006,0.32362887,nan,-3.0439405,0.0,-0.06253761,0.12898843,-0.40562242,0.0,0.0,0.0,0.0,0.0,0.0,-0.028227666,0.015444382,-0.72837865
249934636,0.41277006,0.32362887,nan,-3.0439405,0.0,-0.06688852,0.12451051,-0.40562242,0.0,0.0,0.0,0.0,0.0,0.0,-0.02708718,0.0107014,-0.7290318
250034652,0.41277006,0.32362887,nan,-3.0439405,0.0,-0.071176544,0.11882232,-0.40562242,0.0,0.0,0.0,0.0,0.0,0.0,-0.028623749,0.009303993,-0.7256576
250134706,0.41277006,0.32362887,nan,-3.0439405,0.0,-0.07649027,0.11126455,-0.40562242,0.0,0.0,0.0,0.0,0.0,0.0,-0.030017868,0.013697093,-0.72958773
250255107,0.41277006,0.32362887,nan,-3.0439405,0.0,-0.0838994,0.10278893,-0.40562242,0.0,0.0,0.0,0.0,0.0,0.0,-0.032666247,0.01291847,-0.7318841
250354864,0.41277006,0.32362887,nan,-3.0439405,0.0,-0.09080373,0.095805034,-0.40562242,0.0,0.0,0.0,0.0,0.0,0.0,-0.033064134,0.0062525007,-0.7293191
250455176,0.41277006,0.32362887,nan,-3.0439405,0.0,-0.09930447,0.08731429,-0.40562242,0.0,0.0,0.0,0.0,0.0,0.0,-0.036059543,0.010112722,-0.72994375
250556424,0.41277006,0.32362887,nan,-3.0439405,0.0,-0.10879217,0.07911731,-0.40562242,0.0,0.0,0.0,0.0,0.0,0.0,-0.03763743,0.0066673476,-0.7283603
250655297,0.41277006,0.32362887,nan,-3.0439405,0.0,-0.11775038,0.0712549,-0.40562242,0.0,0.0,0.0,0.0,0.0,0.0,-0.038670555,0.007022795,-0.7294109
250756328,0.41277006,0.32362887,nan,-3.0439405,0.0,-0.12727658,0.06319615,-0.40562242,0.0,0.0,0.0,0.0,0.0,0.0,-0.037479453,0.0043804497,-0.7291591
250855422,0.41277006,0.32362887,nan,-3.0439405,0.0,-0.13475515,0.057601552,-0.40562242,0.0,0.0,0.0,0.0,0.0,0.0,-0.03986955,0.0075668283,-0.72698426
250956469,0.41277006,0.32362887,nan,-3.0439405,0.0,-0.1415695,0.050802685,-0.40562242,0.0,0.0,0.0,0.0,0.0,0.0,-0.0409297,0.002547043,-0.72682387
251055558,0.41277006,0.32362887,nan,-3.0439405,0.0,-0.14588496,0.04593466,-0.40562242,0.0,0.0,0.0,0.0,0.0,0.0,-0.03852722,0.008363778,-0.72517467
251155751,0.41277006,0.32362887,nan,-3.0439405,0.0,-0.14807495,0.040019076,-0.40562242,0.0,0.0,0.0,0.0,0.0,0.0,-0.035628058,0.0028480263,-0.7281809
251255905,0.41277006,0.32362887,nan,-3.0439405,0.0,-0.1484693,0.034938056,-0.40562242,0.0,0.0,0.0,0.0,0.0,0.0,-0.035896257,0.008290109,-0.73025846
251356124,0.41277006,0.32362887,nan,-3.0439405,0.0,-0.14696065,0.030611241,-0.40562242,0.0,0.0,0.0,0.0,0.0,0.0,-0.03324679,0.0055138743,-0.731868
251456204,0.41277006,0.32362887,nan,-3.0439405,0.0,-0.14400989,0.026809819,-0.40562242,0.0,0.0,0.0,0.0,0.0,0.0,-0.033337355,0.0061138105,-0.7300856
251576370,0.41277006,0.32362887,nan,-3.0439405,0.0,-0.1397959,0.021925142,-0.40562242,0.0,0.0,0.0,0.0,0.0,0.0,-0.03283531,0.0031258673,-0.73080564
251676181,0.41277006,0.32362887,nan,-3.0439405,0.0,-0.13633853,0.017169965,-0.40562242,0.0,0.0,0.0,0.0,0.0,0.0,-0.032154646,0.009013542,-0.7315351
251776349,0.41277006,0.32362887,nan,-3.0439405,0.0,-0.13362056,0.011893816,-0.40562242,0.0,0.0,0.0,0.0,0.0,0.0,-0.03241901,4.7590584e-06,-0.7343255
251876464,0.41277006,0.32362887,nan,-3.0439405,0.0,-0.13181113,0.00466973,-0.40562242,0.0,0.0,0.0,0.0,0.0,0.0,-0.030806184,0.0025059474,-0.735416
251976912,0.41277006,0.32362887,nan,-3.0439405,0.0,-0.13057174,-0.0038963824,-0.40562242,0.0,0.0,0.0,0.0,0.0,0.0,-0.032984003,-0.0019247504,-0.73464084
252077204,0.41277006,0.32362887,nan,-3.0439405,0.0,-0.13022904,-0.014918268,-0.40562242,0.0,0.0,0.0,0.0,0.0,0.0,-0.03481415,-0.0050221374,-0.7396549
252177162,0.41277006,0.32362887,nan,-3.0439405,0.0,-0.13116951,-0.027399335,-0.40562242,0.0,0.0,0.0,0.0,0.0,0.0,-0.03240528,0.0006929892,-0.74226165
252277782,0.41277006,0.32362887,nan,-3.0439405,0.0,-0.13294633,-0.040841434,-0.40562242,0.0,0.0,0.0,0.0,0.0,0.0,-0.035049573,-0.003956084,-0.7435411
252377247,0.41277006,0.32362887,nan,-3.0439405,0.0,-0.13544205,-0.053273577,-0.40562242,0.0,0.0,0.0,0.0,0.0,0.0,-0.038144257,-0.007648287,-0.74407864
252498047,0.41277006,0.32362887,nan,-3.0439405,0.0,-0.13838822,-0.06373463,-0.40562242,0.0,0.0,0.0,0.0,0.0,0.0,-0.03430303,0.0019979118,-0.7453333
252597163,0.41277006,0.32362887,nan,-3.0439405,0.0,-0.14036866,-0.06715547,-0.40562242,0.0,0.0,0.0,0.0,0.0,0.0,-0.039473377,0.0040512583,-0.74807787
252698652,0.41277006,0.32362887,nan,-3.0439405,0.0,-0.14174531,-0.06521813,-0.40562242,0.0,0.0,0.0,0.0,0.0,0.0,-0.03845416,0.00788816,-0.7526891
252797741,0.41277006,0.32362887,nan,-3.0439405,0.0,-0.14168642,-0.058206413,-0.40562242,0.0,0.0,0.0,0.0,0.0,0.0,-0.034650207,0.011745707,-0.75848645
252898654,0.41277006,0.32362887,nan,-3.0439405,0.0,-0.1410382,-0.04525842,-0.40562242,0.0,0.0,0.0,0.0,0.0,0.0,-0.036838003,0.012446054,-0.7594547
252997756,0.41277006,0.32362887,nan,-3.0439405,0.0,-0.13992569,-0.03045997,-0.40562242,0.0,0.0,0.0,0.0,0.0,0.0,-0.036818177,0.019325346,-0.7605964
253097718,0.41277006,0.32362887,nan,-3.0439405,0.0,-0.13834178,-0.012451368,-0.40562242,0.0,0.0,0.0,0.0,0.0,0.0,-0.03613573,0.022671284,-0.7633778
253197859,0.41277006,0.32362887,nan,-3.0439405,0.0,-0.13688383,0.0053404747,-0.40562242,0.0,0.0,0.0,0.0,0.0,0.0,-0.033905074,0.018717045,-0.7632493
253297821,0.41277006,0.32362887,nan,-3.0439405,0.0,-0.13489892,0.021091603,-0.40562242,0.0,0.0,0.0,0.0,0.0,0.0,-0.038310364,0.024578478,-0.76367426
253397897,0.41277006,0.32362887,nan,-3.0439405,0.0,-0.13245432,0.035706956,-0.40562242,0.0,0.0,0.0,0.0,0.0,0.0,-0.036125265,0.020735424,-0.7661474
253498060,0.41277006,0.32362887,nan,-3.0439405,0.0,-0.12935923,0.04561102,-0.40562242,0.0,0.0,0.0,0.0,0.0,0.0,-0.03312299,0.02271071,-0.76675344
253598154,0.41277006,0.32362887,nan,-3.0439405,0.0,-0.12546766,0.052063428,-0.40562242,0.0,0.0,0.0,0.0,0.0,0.0,-0.033706345,0.021464452,-0.7629592
253698319,0.41277006,0.32362887,nan,-3.0439405,0.0,-0.121863574,0.053612985,-0.40562242,0.0,0.0,0.0,0.0,0.0,0.0,-0.034617875,0.012428216,-0.7627819
253818449,0.41277006,0.32362887,nan,-3.0439405,0.0,-0.11835586,0.051093426,-0.40562242,0.0,0.0,0.0,0.0,0.0,0.0,-0.033803303,0.010923978,-0.76380026
253918995,0.41277006,0.32362887,nan,-3.0439405,0.0,-0.11654479,0.045706604,-0.40562242,0.0,0.0,0.0,0.0,0.0,0.0,-0.03368079,0.012399954,-0.7691045
254018735,0.41277006,0.32362887,nan,-3.0439405,0.0,-0.116051026,0.0388867,-0.40562242,0.0,0.0,0.0,0.0,0.0,0.0,-0.03978158,0.009982728,-0.7723301
254118991,0.41277006,0.32362887,nan,-3.0439405,0.0,-0.1162346,0.03229851,-0.40562242,0.0,0.0,0.0,0.0,0.0,0.0,-0.04213639,0.008742083,-0.77633065
254218750,0.41277006,0.32362887,nan,-3.0439405,0.0,-0.11688572,0.026337769,-0.40562242,0.0,0.0,0.0,0.0,0.0,0.0,-0.035560623,0.011299118,-0.77626324
254318844,0.41277006,0.32362887,nan,-3.0439405,0.0,-0.11821515,0.02246112,-0.40562242,0.0,0.0,0.0,0.0,0.0,0.0,-0.03983944,0.010784227,-0.7719468
254419275,0.41277006,0.32362887,nan,-3.0439405,0.0,-0.119788975,0.019986266,-0.40562242,0.0,0.0,0.0,0.0,0.0,0.0,-0.037109856,0.01334125,-0.76751184
254519222,0.41277006,0.32362887,nan,-3.0439405,0.0,-0.121567994,0.020798685,-0.40562242,0.0,0.0,0.0,0.0,0.0,0.0,-0.03707854,0.015891068,-0.7638176
254619493,0.41277006,0.32362887,nan,-3.0439405,0.0,-0.12231414,0.024060873,-0.40562242,0.0,0.0,0.0,0.0,0.0,0.0,-0.038199455,0.020069046,-0.7555212
254719325,0.41277006,0.32362887,nan,-3.0439405,0.0,-0.121755935,0.030337717,-0.40562242,0.0,0.0,0.0,0.0,0.0,0.0,-0.03568353,0.015519893,-0.7525182
254819375,0.41277006,0.32362887,nan,-3.0439405,0.0,-0.1196208,0.039352663,-0.40562242,0.0,0.0,0.0,0.0,0.0,0.0,-0.03572525,0.025471054,-0.7479223
254919405,0.41277006,0.32362887,nan,-3.0439405,0.0,-0.1163598,0.049330678,-0.40562242,0.0,0.0,0.0,0.0,0.0,0.0,-0.034704108,0.020572923,-0.74785405
255039567,0.41277006,0.32362887,nan,-3.0439405,0.0,-0.11078722,0.06366039,-0.40562242,0.0,0.0,0.0,0.0,0.0,0.0,-0.035894282,0.029001229,-0.74343324
255139659,0.41277006,0.32362887,nan,-3.0439405,0.0,-0.10528418,0.076572455,-0.40562242,0.0,0.0,0.0,0.0,0.0,0.0,-0.035937533,0.028509706,-0.7453668
255239944,0.41277006,0.32362887,nan,-3.0439405,0.0,-0.100088604,0.08892883,-0.40562242,0.0,0.0,0.0,0.0,0.0,0.0,-0.032700747,0.031076912,-0.74911094
255340052,0.41277006,0.32362887,nan,-3.0439405,0.0,-0.094525084,0.10082444,-0.40562242,0.0,0.0,0.0,0.0,0.0,0.0,-0.03532215,0.03003874,-0.75005054
255440145,0.41277006,0.32362887,nan,-3.0439405,0.0,-0.090292186,0.11110408,-0.40562242,0.0,0.0,0.0,0.0,0.0,0.0,-0.03277538,0.030295014,-0.7552415
255540419,0.41277006,0.32362887,nan,-3.0439405,0.0,-0.08628884,0.12093726,-0.40562242,0.0,0.0,0.0,0.0,0.0,0.0,-0.035099484,0.028554041,-0.7574139
255640280,0.41277006,0.32362887,nan,-3.0439405,0.0,-0.08376237,0.12920943,-0.40562242,0.0,0.0,0.0,0.0,0.0,0.0,-0.033988975,0.03032158,-0.76146495
255740306,0.41277006,0.32362887,nan,-3.0439405,0.0,-0.082518645,0.13652438,-0.40562242,0.0,0.0,0.0,0.0,0.0,0.0,-0.039271146,0.031855933,-0.7587624
255840371,0.41277006,0.32362887,nan,-3.0439405,0.0,-0.0831177,0.14290492,-0.40562242,0.0,0.0,0.0,0.0,0.0,0.0,-0.040651187,0.034958012,-0.75926924
255940470,0.41277006,0.32362887,nan,-3.0439405,0.0,-0.08537192,0.1493336,-0.40562242,0.0,0.0,0.0,0.0,0.0,0.0,-0.03942229,0.03576482,-0.7631483
256060907,0.41277006,0.32362887,nan,-3.0439405,0.0,-0.08882148,0.15816507,-0.40396303,0.0,0.0,0.0,0.0,0.0,0.0,-0.03675304,0.033690076,-0.7641892
256161384,0.41277006,0.32362887,nan,-3.0439405,0.0,-0.09138152,0.16522554,-0.3974343,0.0,0.0,0.0,0.0,0.0,0.0,-0.039020207,0.039548256,-0.7624618
256260905,0.41277006,0.32362887,nan,-3.0439405,0.0,-0.09349746,0.17335807,-0.20436256,0.0,0.0,0.0,0.0,0.0,0.0,-0.031040026,0.036921352,-0.7272032
256361112,0.41277006,0.32362887,nan,-3.0439405,0.0,-0.09394717,0.18094663,-0.124963604,0.0,0.0,0.0,0.0,0.0,0.0,-0.037698176,0.04235877,-0.71498376
256460992,0.41277006,0.32362887,nan,-3.0439405,0.0,-0.092212036,0.1898369,-0.12447484,0.0,0.0,0.0,0.0,0.0,0.0,-0.03406178,0.039044432,-0.71819055
256561770,0.41277006,0.32362887,nan,-3.0439405,0.0,-0.08757263,0.19834459,-0.124496296,0.0,0.0,0.0,0.0,0.0,0.0,-0.031161727,0.041228108,-0.7247167
256661169,0.41277006,0.32362887,nan,-3.0439405,0.0,-0.080595165,0.20571773,-0.124498285,0.0,0.0,0.0,0.0,0.0,0.0,-0.030709904,0.040192433,-0.7271513
256761895,0.41277006,0.32362887,nan,-3.0439405,0.0,-0.07017141,0.21213217,-0.124498285,0.0,0.0,0.0,0.0,0.0,0.0,-0.03271941,0.047186255,-0.73122686
256861647,0.41277006,0.32362887,nan,-3.0439405,0.0,-0.058590155,0.21762414,-0.124498285,0.0,0.0,0.0,0.0,0.0,0.0,-0.028871171,0.045511108,-0.73657537
256963292,0.41277006,0.32362887,nan,-3.0439405,0.0,-0.04450809,0.22205965,-0.124498285,0.0,0.0,0.0,0.0,0.0,0.0,-0.023382386,0.04369484,-0.74253786
257062561,0.41277006,0.32362887,nan,-3.0439405,0.0,-0.03136242,0.22513546,-0.124498285,0.0,0.0,0.0,0.0,0.0,0.0,-0.030267267,0.040323813,-0.74564135
257161892,0.41277006,0.32362887,nan,-3.0439405,0.0,-0.019455213,0.22546233,-0.124498285,0.0,0.0,0.0,0.0,0.0,0.0,-0.024366986,0.03408005,-0.7503506
257261791,0.41277006,0.32362887,nan,-3.0439405,0.0,-0.008190438,0.22312778,-0.124498285,0.0,0.0,0.0,0.0,0.0,0.0,-0.027686134,0.032831095,-0.7540029
257361892,0.41277006,0.32362887,nan,-3.0439405,0.0,0.0004643768,0.21761085,-0.124498285,0.0,0.0,0.0,0.0,0.0,0.0,-0.019004602,0.03398346,-0.7589537
257482016,0.41277006,0.32362887,nan,-3.0439405,0.0,0.00946092,0.20633069,-0.124498285,0.0,0.0,0.0,0.0,0.0,0.0,-0.020453714,0.02800638,-0.7606294
257582320,0.41277006,0.32362887,nan,-3.0439405,0.0,0.015583123,0.19201046,-0.124498285,0.0,0.0,0.0,0.0,0.0,0.0,-0.018527301,0.023370923,-0.7621194
257682416,0.41277006,0.32362887,nan,-3.0439405,0.0,0.020089606,0.17538518,-0.124498285,0.0,0.0,0.0,0.0,0.0,0.0,-0.024218049,0.01863223,-0.7623676
257782480,0.41277006,0.32362887,nan,-3.0439405,0.0,0.024248073,0.15489832,-0.124498285,0.0,0.0,0.0,0.0,0.0,0.0,-0.018605465,0.013034621,-0.7636048
257882719,0.41277006,0.32362887,nan,-3.0439405,0.0,0.027832823,0.13359055,-0.124498285,0.0,0.0,0.0,0.0,0.0,0.0,-0.023871144,0.013272771,-0.76261044
257982768,0.41277006,0.32362887,nan,-3.0439405,0.0,0.031598005,0.10899298,-0.124498285,0.0,0.0,0.0,0.0,0.0,0.0,-0.019819014,0.0062896525,-0.7626148
258082748,0.41277006,0.32362887,nan,-3.0439405,0.0,0.035176586,0.08488388,-0.124498285,0.0,0.0,0.0,0.0,0.0,0.0,-0.02421097,0.0029787067,-0.7638687
258182763,0.41277006,0.32362887,nan,-3.0439405,0.0,0.038873736,0.059783205,-0.124498285,0.0,0.0,0.0,0.0,0.0,0.0,-0.019553697,0.004074054,-0.76608825
258282869,0.41277006,0.32362887,nan,-3.0439405,0.0,0.042076837,0.03871479,-0.124498285,0.0,0.0,0.0,0.0,0.0,0.0,-0.029167002,0.0052258857,-0.76473224
258382952,0.41277006,0.32362887,nan,-3.0439405,0.0,0.04523379,0.019699464,-0.124498285,0.0,0.0,0.0,0.0,0.0,0.0,-0.021575207,0.004636119,-0.76911044
258484955,0.41277006,0.32362887,nan,-3.0439405,0.0,0.048429247,0.0040459274,-0.124498285,0.0,0.0,0.0,0.0,0.0,0.0,-0.018948413,0.0058132187,-0.77164686
258583551,0.41277006,0.32362887,nan,-3.0439405,0.0,0.05183733,-0.0060408055,-0.124498285,0.0,0.0,0.0,0.0,0.0,0.0,-0.018642854,0.006995474,-0.77654886
258684202,0.41277006,0.32362887,nan,-3.0439405,0.0,0.055580825,-0.013102549,-0.124498285,0.0,0.0,0.0,0.0,0.0,0.0,-0.023226961,0.01193695,-0.77515894
258803634,0.41277006,0.32362887,nan,-3.0439405,0.0,0.05964354,-0.015239413,-0.13008921,0.0,0.0,0.0,0.0,0.0,0.0,-0.024750674,0.011549024,-0.7779548
258903443,0.41277006,0.32362887,nan,-3.0439405,0.0,0.062439624,-0.014936982,-0.13247737,0.0,0.0,0.0,0.0,0.0,0.0,-0.021127548,0.0119409,-0.7774053
259004036,0.41277006,0.32362887,nan,-3.0439405,0.0,0.06545485,-0.01248891,-0.13253021,0.0,0.0,0.0,0.0,0.0,0.0,-0.02199404,0.014065297,-0.7779453
259103592,0.41277006,0.32362887,nan,-3.0439405,0.0,0.06844847,-0.01026946,-0.1325306,0.0,0.0,0.0,0.0,0.0,0.0,-0.02220492,0.013047993,-0.7726181
259203802,0.41277006,0.32362887,nan,-3.0439405,0.0,0.07213137,-0.008822678,-0.13253021,0.0,0.0,0.0,0.0,0.0,0.0,-0.025166545,0.014656759,-0.76973575
259303891,0.41277006,0.32362887,nan,-3.0439405,0.0,0.0756768,-0.008873583,-0.13253021,0.0,0.0,0.0,0.0,0.0,0.0,-0.017115008,0.016625011,-0.7661417
259404317,0.41277006,0.32362887,nan,-3.0439405,0.0,0.0790722,-0.009614684,-0.13253021,0.0,0.0,0.0,0.0,0.0,0.0,-0.019485563,0.014750829,-0.75994545
259504120,0.41277006,0.32362887,nan,-3.0439405,0.0,0.0826747,-0.012513882,-0.13253021,0.0,0.0,0.0,0.0,0.0,0.0,-0.017622508,0.015690068,-0.75238997
259604159,0.41277006,0.32362887,nan,-3.0439405,0.0,0.08597151,-0.015419365,-0.13253021,0.0,0.0,0.0,0.0,0.0,0.0,-0.02140554,0.016886907,-0.7467775
259704208,0.41277006,0.32362887,nan,-3.0439405,0.0,0.08978851,-0.019219147,-0.13253021,0.0,0.0,0.0,0.0,0.0,0.0,-0.015052407,0.011954695,-0.7452574
259804327,0.41277006,0.32362887,nan,-3.0439405,0.0,0.092991725,-0.022441132,-0.13253021,0.0,0.0,0.0,0.0,0.0,0.0,-0.014148106,0.021605413,-0.74076086
259904396,0.41277006,0.32362887,nan,-3.0439405,0.0,0.096586496,-0.024086157,-0.13253021,0.0,0.0,0.0,0.0,0.0,0.0,-0.012948681,0.010875264,-0.7339541
260004561,0.41277006,0.32362887,nan,-3.0439405,0.0,0.10015347,-0.024975952,-0.13253021,0.0,0.0,0.0,0.0,0.0,0.0,-0.01170395,0.01738871,-0.7340312
260104992,0.41277006,0.32362887,nan,-3.0439405,0.0,0.10470579,-0.023952013,-0.13253021,0.0,0.0,0.0,0.0,0.0,0.0,-0.011933015,0.014806142,-0.73588777
260205939,0.41277006,0.32362887,nan,-3.0439405,0.0,0.11022695,-0.021814244,-0.13253021,0.0,0.0,0.0,0.0,0.0,0.0,-0.012844047,0.016738946,-0.73117137
260324998,0.41277006,0.32362887,nan,-3.0439405,0.0,0.11701463,-0.01790747,-0.13253021,0.0,0.0,0.0,0.0,0.0,0.0,-0.007981682,0.02056005,-0.7328322
260425139,0.41277006,0.32362887,nan,-3.0439405,0.0,0.12401514,-0.0126919085,-0.13253021,0.0,0.0,0.0,0.0,0.0,0.0,-0.0039486196,0.019578569,-0.7329577
260527219,0.41277006,0.32362887,nan,-3.0439405,0.0,0.13077821,-0.00595267,-0.13253021,0.0,0.0,0.0,0.0,0.0,0.0,-0.00945483,0.023854833,-0.7311052
260625443,0.41277006,0.32362887,nan,-3.0439405,0.0,0.13637012,0.0008585393,-0.13253021,0.0,0.0,0.0,0.0,0.0,0.0,-0.0072673485,0.023643618,-0.73317516
260725637,0.41277006,0.32362887,nan,-3.0439405,0.0,0.14101669,0.00849134,-0.13253021,0.0,0.0,0.0,0.0,0.0,0.0,-0.005675813,0.02359758,-0.73342717
260825571,0.41277006,0.32362887,nan,-3.0439405,0.0,0.1455048,0.016565755,-0.13253021,0.0,0.0,0.0,0.0,0.0,0.0,-0.0055252463,0.025903309,-0.73902667
260926581,0.41277006,0.32362887,nan,-3.0439405,0.0,0.14887531,0.024197536,-0.13253021,0.0,0.0,0.0,0.0,0.0,0.0,-0.0014711581,0.018866519,-0.7391591
261025671,0.41277006,0.32362887,nan,-3.0439405,0.0,0.1506835,0.029593928,-0.13253021,0.0,0.0,0.0,0.0,0.0,0.0,-0.0012884755,0.023050785,-0.73751915
261125760,0.41277006,0.32362887,nan,-3.0439405,0.0,0.15181798,0.034077477,-0.13253021,0.0,0.0,0.0,0.0,0.0,0.0,-0.0018000118,0.021056242,-0.7387333
261225860,0.41277006,0.32362887,nan,-3.0439405,0.0,0.15374903,0.036261056,-0.13253021,0.0,0.0,0.0,0.0,0.0,0.0,-0.00132888,0.017768687,-0.7416979
261325856,0.41277006,0.32362887,nan,-3.0439405,0.0,0.15705149,0.036717985,-0.13253021,0.0,0.0,0.0,0.0,0.0,0.0,-0.006034949,0.02215491,-0.7393109
261425992,0.41277006,0.32362887,nan,-3.0439405,0.0,0.1609366,0.035814602,-0.13253021,0.0,0.0,0.0,0.0,0.0,0.0,0.0020813625,0.021438098,-0.7420034
261546046,0.41277006,0.32362887,nan,-3.0439405,0.0,0.16591583,0.033180263,-0.13253021,0.0,0.0,0.0,0.0,0.0,0.0,0.0011080522,0.017853606,-0.74189615
261646569,0.41277006,0.32362887,nan,-3.0439405,0.0,0.17006248,0.030138655,-0.13253021,0.0,0.0,0.0,0.0,0.0,0.0,-0.003407564,0.02283017,-0.7439731
261746646,0.41277006,0.32362887,nan,-3.0439405,0.0,0.17376958,0.026764547,-0.13253021,0.0,0.0,0.0,0.0,0.0,0.0,-0.0013496373,0.020247733,-0.74366957
261846811,0.41277006,0.32362887,nan,-3.0439405,0.0,0.1776745,0.023356238,-0.13253021,0.0,0.0,0.0,0.0,0.0,0.0,0.0014698133,0.015956815,-0.74400145
261946785,0.41277006,0.32362887,nan,-3.0439405,0.0,0.18101195,0.02103226,-0.13253021,0.0,0.0,0.0,0.0,0.0,0.0,-0.0011482313,0.016476147,-0.74400663
262046790,0.41277006,0.32362887,nan,-3.0439405,0.0,0.18311742,0.020151751,-0.13253021,0.0,0.0,0.0,0.0,0.0,0.0,-0.002138134,0.02336468,-0.74586767
262146772,0.41277006,0.32362887,nan,-3.0439405,0.0,0.18321675,0.02253578,-0.13253021,0.0,0.0,0.0,0.0,0.0,0.0,-0.00045287795,0.021385316,-0.7444861
262246846,0.41277006,0.32362887,nan,-3.0439405,0.0,0.18187961,0.027905105,-0.13253021,0.0,0.0,0.0,0.0,0.0,0.0,0.00040170737,0.026367504,-0.74590343
262346861,0.41277006,0.32362887,nan,-3.0439405,0.0,0.1796218,0.036371443,-0.13253021,0.0,0.0,0.0,0.0,0.0,0.0,-0.0033821454,0.03348382,-0.7436195
262447159,0.41277006,0.32362887,nan,-3.0439405,0.0,0.1760984,0.047713682,-0.13253021,0.0,0.0,0.0,0.0,0.0,0.0,-0.0031959135,0.034268167,-0.743449
262548000,0.41277006,0.32362887,nan,-3.0439405,0.0,0.17202239,0.060982086,-0.13253021,0.0,0.0,0.0,0.0,0.0,0.0,-0.0019969614,0.027463716,-0.74909604
262667483,0.41277006,0.32362887,nan,-3.0439405,0.0,0.16662477,0.075299144,-0.13253021,0.0,0.0,0.0,0.0,0.0,0.0,-0.006184146,0.03389632,-0.75288945
262767449,0.41277006,0.32362887,nan,-3.0439405,0.0,0.16172557,0.08407171,-0.13253021,0.0,0.0,0.0,0.0,0.0,0.0,-0.008066803,0.03237371,-0.75018555
262867608,0.41277006,0.32362887,nan,-3.0439405,0.0,0.1562566,0.08844749,-0.13253021,0.0,0.0,0.0,0.0,0.0,0.0,-0.005484176,0.027258588,-0.7513051
262967526,0.41277006,0.32362887,nan,-3.0439405,0.0,0.15094772,0.087419115,-0.13253021,0.0,0.0,0.0,0.0,0.0,0.0,-0.008171956,0.02307739,-0.7518326
263068152,0.41277006,0.32362887,nan,-3.0439405,0.0,0.1458046,0.079254486,-0.13253021,0.0,0.0,0.0,0.0,0.0,0.0,-0.009363463,0.01938475,-0.7533163
263167768,0.41277006,0.32362887,nan,-3.0439405,0.0,0.1416751,0.06654957,-0.13253021,0.0,0.0,0.0,0.0,0.0,0.0,-0.004134589,0.012322051,-0.75389606
263267918,0.41277006,0.32362887,nan,-3.0439405,0.0,0.13801175,0.04782931,-0.13253021,0.0,0.0,0.0,0.0,0.0,0.0,-0.010868417,0.0074821617,-0.75116223
263368107,0.41277006,0.32362887,nan,-3.0439405,0.0,0.13482113,0.026412372,-0.13253021,0.0,0.0,0.0,0.0,0.0,0.0,-0.0074165408,0.008595849,-0.7503809
263468064,0.41277006,0.32362887,nan,-3.0439405,0.0,0.13091068,0.0051920903,-0.13253021,0.0,0.0,0.0,0.0,0.0,0.0,-0.009744893,0.0034212936,-0.7497174
263568132,0.41277006,0.32362887,nan,-3.0439405,0.0,0.12603591,-0.017189303,-0.13253021,0.0,0.0,0.0,0.0,0.0,0.0,-0.012810958,0.00373438,-0.7534672
263668173,0.41277006,0.32362887,nan,-3.0439405,0.0,0.12104153,-0.036090445,-0.13253021,0.0,0.0,0.0,0.0,0.0,0.0,-0.011752772,-0.0012043733,-0.75441265
263768305,0.41277006,0.32362887,nan,-3.0439405,0.0,0.115006335,-0.053160723,-0.13253021,0.0,0.0,0.0,0.0,0.0,0.0,-0.011402657,0.006238837,-0.7603437
263868365,0.41277006,0.32362887,nan,-3.0439405,0.0,0.10879823,-0.064915754,-0.13253021,0.0,0.0,0.0,0.0,0.0,0.0,-0.012718833,0.004394465,-0.7648889
263968524,0.41277006,0.32362887,nan,-3.0439405,0.0,0.10131673,-0.07262339,-0.13087082,0.0,0.0,0.0,0.0,0.0,0.0,-0.013354161,0.0033601243,-0.7669599
264069028,0.41277006,0.32362887,nan,-3.0439405,0.0,0.09307816,-0.076245226,-0.12434213,0.0,0.0,0.0,0.0,0.0,0.0,-0.013327305,0.0038790246,-0.77288175
264188982,0.41277006,0.32362887,nan,-3.0439405,0.0,0.083221324,-0.076488905,-0.12449789,0.0,0.0,0.0,0.0,0.0,0.0,-0.017055344,0.007109046,-0.77914095
264289026,0.41277006,0.32362887,nan,-3.0439405,0.0,0.07299957,-0.07330446,-0.12449789,0.0,0.0,0.0,0.0,0.0,0.0,-0.019199131,0.011874149,-0.78381723
264389038,0.41277006,0.32362887,nan,-3.0439405,0.0,0.06352976,-0.06859317,-0.12449789,0.0,0.0,0.0,0.0,0.0,0.0,-0.018563218,0.011962991,-0.78356206
264489208,0.41277006,0.32362887,nan,-3.0439405,0.0,0.05285671,-0.061955854,-0.12449789,0.0,0.0,0.0,0.0,0.0,0.0,-0.017243536,0.015415808,-0.7805165
264589366,0.41277006,0.32362887,nan,-3.0439405,0.0,0.041309576,-0.05453384,-0.12449789,0.0,0.0,0.0,0.0,0.0,0.0,-0.022735996,0.020438723,-0.77908623
264689374,0.41277006,0.32362887,nan,-3.0439405,0.0,0.030790515,-0.04680336,-0.12449789,0.0,0.0,0.0,0.0,0.0,0.0,-0.02157574,0.021601342,-0.7768838
264789354,0.41277006,0.32362887,nan,-3.0439405,0.0,0.020113388,-0.038033653,-0.12449789,0.0,0.0,0.0,0.0,0.0,0.0,-0.018015472,0.017008116,-0.7701387
264909677,0.41277006,0.32362887,nan,-3.0439405,0.0,0.010276849,-0.02843004,-0.12449789,0.0,0.0,0.0,0.0,0.0,0.0,-0.021531783,0.021203306,-0.7609397
265009785,0.41277006,0.32362887,nan,-3.0439405,0.0,0.004291734,-0.020719523,-0.1331362,0.0,0.0,0.0,0.0,0.0,0.0,-0.017163573,0.024885133,-0.7524464
265109734,0.41277006,0.32362887,nan,-3.0439405,0.0,0.00019280612,-0.0133133335,-0.13253775,0.0,0.0,0.0,0.0,0.0,0.0,-0.01554365,0.01817269,-0.7455909
265209875,0.41277006,0.32362887,nan,-3.0439405,0.0,-0.0013344958,-0.0071252477,-0.13252981,0.0,0.0,0.0,0.0,0.0,0.0,-0.015833024,0.0230059,-0.7383511
265309820,0.41277006,0.32362887,nan,-3.0439405,0.0,-0.0006510958,-0.0019850254,-0.13253021,0.0,0.0,0.0,0.0,0.0,0.0,-0.015821889,0.0182974,-0.7311169
265409954,0.41277006,0.32362887,nan,-3.0439405,0.0,0.0015260562,0.0004211724,-0.13253021,0.0,0.0,0.0,0.0,0.0,0.0,-0.011391395,0.018338205,-0.7298508
265510207,0.41277006,0.32362887,nan,-3.0439405,0.0,0.005589735,0.0010348677,-0.13253021,0.0,0.0,0.0,0.0,0.0,0.0,-0.010357847,0.019160816,-0.72976863
265610189,0.41277006,0.32362887,nan,-3.0439405,0.0,0.010448337,0.00019643009,-0.13253021,0.0,0.0,0.0,0.0,0.0,0.0,-0.011684377,0.019068545,-0.7350546
265710596,0.41277006,0.32362887,nan,-3.0439405,0.0,0.016192572,-0.0017650678,-0.13253021,0.0,0.0,0.0,0.0,0.0,0.0,-0.011201683,0.012501167,-0.7397579
265810721,0.41277006,0.32362887,nan,-3.0439405,0.0,0.020814652,-0.003592734,-0.13253021,0.0,0.0,0.0,0.0,0.0,0.0,-0.013785807,0.01780419,-0.74790066
265910843,0.41277006,0.32362887,nan,-3.0439405,0.0,0.023989612,-0.0065066544,-0.13253021,0.0,0.0,0.0,0.0,0.0,0.0,-0.011019647,0.013293888,-0.75943613
266010701,0.41277006,0.32362887,nan,-3.0439405,0.0,0.025047978,-0.009357155,-0.13253021,0.0,0.0,0.0,0.0,0.0,0.0,-0.018503362,0.013263701,-0.7626861
266110829,0.41277006,0.32362887,nan,-3.0439405,0.0,0.02253527,-0.011197307,-0.13253021,0.0,0.0,0.0,0.0,0.0,0.0,-0.017826147,0.015440709,-0.77066237
266210771,0.41277006,0.32362887,nan,-3.0439405,0.0,0.016965607,-0.0123942625,-0.13253021,0.0,0.0,0.0,0.0,0.0,0.0,-0.022574741,0.013436818,-0.7725211
266330828,0.41277006,0.32362887,nan,-3.0439405,0.0,0.005784467,-0.012222379,-0.13253021,0.0,0.0,0.0,0.0,0.0,0.0,-0.023858156,0.01987039,-0.7718666
266431012,0.41277006,0.32362887,nan,-3.0439405,0.0,-0.006866814,-0.011550814,-0.13253021,0.0,0.0,0.0,0.0,0.0,0.0,-0.02341421,0.02125616,-0.7699586
266531228,0.41277006,0.32362887,nan,-3.0439405,0.0,-0.021424158,-0.009052997,-0.13253021,0.0,0.0,0.0,0.0,0.0,0.0,-0.028363626,0.019693917,-0.76047397
266631338,0.41277006,0.32362887,nan,-3.0439405,0.0,-0.03542933,-0.005347015,-0.13253021,0.0,0.0,0.0,0.0,0.0,0.0,-0.027603105,0.025695,-0.7513828
266731368,0.41277006,0.32362887,nan,-3.0439405,0.0,-0.05014703,0.0006854385,-0.13253021,0.0,0.0,0.0,0.0,0.0,0.0,-0.027309965,0.026543573,-0.7437502
266831401,0.41277006,0.32362887,nan,-3.0439405,0.0,-0.06296731,0.007930985,-0.13253021,0.0,0.0,0.0,0.0,0.0,0.0,-0.033456877,0.025091743,-0.73493135
266931572,0.41277006,0.32362887,nan,-3.0439405,0.0,-0.07505741,0.01702311,-0.13253021,0.0,0.0,0.0,0.0,0.0,0.0,-0.037419103,0.025515525,-0.7278258
267031549,0.41277006,0.32362887,nan,-3.0439405,0.0,-0.08394934,0.026018804,-0.13253021,0.0,0.0,0.0,0.0,0.0,0.0,-0.026949273,0.023499465,-0.7240429
267131768,0.41277006,0.32362887,nan,-3.0439405,0.0,-0.090933,0.03610177,-0.13253021,0.0,0.0,0.0,0.0,0.0,0.0,-0.025435101,0.03175367,-0.71935666
267231782,0.41277006,0.32362887,nan,-3.0439405,0.0,-0.09439337,0.04614632,-0.13253021,0.0,0.0,0.0,0.0,0.0,0.0,-0.02940252,0.029712772,-0.71776664
267332003,0.41277006,0.32362887,nan,-3.0439405,0.0,-0.09566374,0.05538094,-0.13253021,0.0,0.0,0.0,0.0,0.0,0.0,-0.021345342,0.027266406,-0.7192422
267432060,0.41277006,0.32362887,nan,-3.0439405,0.0,-0.094159685,0.06398658,-0.12415218,0.0,0.0,0.0,0.0,0.0,0.0,-0.025948472,0.03370337,-0.7220742
267532121,0.41277006,0.32362887,nan,-3.0439405,0.0,-0.08925879,0.071460165,-0.12450544,0.0,0.0,0.0,0.0,0.0,0.0,-0.02507145,0.027394071,-0.7285273
267632247,0.41277006,0.32362887,nan,-3.0439405,0.0,-0.08305524,0.07711548,-0.00012127062,0.0,0.0,0.0,0.0,0.0,0.0,-0.022982093,0.02879094,-0.7122183
267732278,0.41277006,0.32362887,-0.8949925,-3.0439405,0.0,-0.075783394,0.082296364,0.0030189157,0.0,0.0,0.0,0.0,0.0,0.0,-0.019729258,0.029358748,-0.7196121
267852454,0.41277006,0.32362887,-0.8949925,-3.0439405,0.0,-0.06751456,0.086138375,0.0017454028,0.0,0.0,0.0,0.0,0.0,0.0,-0.02152231,0.03071144,-0.726542
267952781,0.41277006,0.32362887,-0.8949925,-3.0439405,0.0,-0.06127169,0.08751525,-0.0037177205,0.0,0.0,0.0,0.0,0.0,0.0,-0.018268732,0.024016503,-0.73818326
268052697,0.41277006,0.32362887,-0.8949925,-3.0439405,0.0,-0.055437,0.08549302,-0.013592482,0.0,0.0,0.0,0.0,0.0,0.0,-0.017770551,0.024149297,-0.7484319
268152860,0.41277006,0.32362887,-0.8949925,-3.0439405,0.0,-0.04912966,0.08139987,-0.027683377,0.0,0.0,0.0,0.0,0.0,0.0,-0.014046805,0.0245159,-0.75786185
268253258,0.41277006,0.32362887,-0.8949925,-3.0439405,0.0,-0.043407876,0.07542022,-0.042649806,0.0,0.0,0.0,0.0,0.0,0.0,-0.018867439,0.023736153,-0.76296127
268352938,0.41277006,0.32362887,-0.8949925,-3.0439405,0.0,-0.03828586,0.06965995,-0.056319118,0.0,0.0,0.0,0.0,0.0,0.0,-0.015787791,0.02155419,-0.7680681
268453231,0.41277006,0.32362887,-0.8949925,-3.0439405,0.0,-0.032947056,0.062927954,-0.06981081,0.0,0.0,0.0,0.0,0.0,0.0,-0.017899603,0.022467045,-0.77045584
268553412,0.41277006,0.32362887,-0.8949925,-3.0439405,0.0,-0.028834367,0.057790734,-0.07902646,0.0,0.0,0.0,0.0,0.0,0.0,-0.01885131,0.02036492,-0.76782393
268653152,0.41277006,0.32362887,-0.8949925,-3.0439405,0.0,-0.025767306,0.053186912,-0.08597845,0.0,0.0,0.0,0.0,0.0,0.0,-0.017704478,0.023403626,-0.7686397
268753536,0.41277006,0.32362887,-0.8949925,-3.0439405,0.0,-0.02457222,0.050661493,-0.08966559,0.0,0.0,0.0,0.0,0.0,0.0,-0.022091698,0.021072201,-0.76677334
268853604,0.41277006,0.32362887,-0.8949925,-3.0439405,0.0,-0.024537057,0.049261566,-0.09142792,0.0,0.0,0.0,0.0,0.0,0.0,-0.020595912,0.0227547,-0.7616393
268973685,0.41277006,0.32362887,-0.8949925,-3.0439405,0.0,-0.0267979,0.047824383,-0.088979304,0.0,0.0,0.0,0.0,0.0,0.0,-0.022174599,0.018359631,-0.757553
269073791,0.41277006,0.32362887,-0.8949925,-3.0439405,0.0,-0.030399607,0.04651823,-0.08549029,0.0,0.0,0.0,0.0,0.0,0.0,-0.0259738,0.017091164,-0.75505066
269173806,0.41277006,0.32362887,-0.8949925,-3.0439405,0.0,-0.03628719,0.044194844,-0.08062607,0.0,0.0,0.0,0.0,0.0,0.0,-0.027992357,0.016185688,-0.7513017
269273837,0.41277006,0.32362887,-0.8949925,-3.0439405,0.0,-0.043187268,0.04043153,-0.075502336,0.0,0.0,0.0,0.0,0.0,0.0,-0.02716628,0.023469724,-0.7493731
269373911,0.41277006,0.32362887,-0.8949925,-3.0439405,0.0,-0.051301576,0.03503825,-0.07033706,0.0,0.0,0.0,0.0,0.0,0.0,-0.029827664,0.019231064,-0.7483928
269474045,0.41277006,0.32362887,-0.8949925,-3.0439405,0.0,-0.05806474,0.028288055,-0.067296505,0.0,0.0,0.0,0.0,0.0,0.0,-0.028941385,0.015645558,-0.74892807
269574218,0.41277006,0.32362887,-0.8949925,-3.0439405,0.0,-0.06427994,0.020836765,-0.06562835,0.0,0.0,0.0,0.0,0.0,0.0,-0.02830561,0.018300932,-0.7503172
269674631,0.41277006,0.32362887,-0.8949925,-3.0439405,0.0,-0.06945881,0.0137267765,-0.06499839,0.0,0.0,0.0,0.0,0.0,0.0,-0.029213786,0.016369667,-0.74942833
269774861,0.41277006,0.32362887,-0.8949925,-3.0439405,0.0,-0.074190184,0.0054529593,-0.065525055,0.0,0.0,0.0,0.0,0.0,0.0,-0.030680109,0.0142324185,-0.7503658
269874737,0.41277006,0.32362887,-0.8949925,-3.0439405,0.0,-0.077888295,-0.0013895348,-0.06549299,0.0,0.0,0.0,0.0,0.0,0.0,-0.028811872,0.015272406,-0.747853
269974954,0.41277006,0.32362887,-0.8949925,-3.0439405,0.0,-0.08040539,-0.007931014,-0.06366593,0.0,0.0,0.0,0.0,0.0,0.0,-0.031203084,0.015170167,-0.742833
270074748,0.41277006,0.32362887,-0.8949925,-3.0439405,0.0,-0.0816802,-0.013182588,-0.06021738,0.0,0.0,0.0,0.0,0.0,0.0,-0.029733568,0.014898583,-0.7408676
270174723,0.41277006,0.32362887,-0.8949925,-3.0439405,0.0,-0.08246448,-0.017885415,-0.053524196,0.0,0.0,0.0,0.0,0.0,0.0,-0.031439472,0.015336486,-0.7357092
270275158,0.41277006,0.32362887,-0.8949925,-3.0439405,0.0,-0.08346192,-0.020791152,-0.045992732,0.0,0.0,0.0,0.0,0.0,0.0,-0.026618648,0.01681736,-0.7341145
270395363,0.41277006,0.32362887,-0.8949925,-3.0439405,0.0,-0.08552413,-0.023282288,-0.037812233,0.0,0.0,0.0,0.0,0.0,0.0,-0.031933878,0.018553915,-0.73927563
270495207,0.41277006,0.32362887,-0.8949925,-3.0439405,0.0,-0.08798525,-0.023344036,-0.034370482,0.0,0.0,0.0,0.0,0.0,0.0,-0.035257548,0.019776415,-0.7401954
270595311,0.41277006,0.32362887,-0.8949925,-3.0439405,0.0,-0.09167988,-0.0215989,-0.033016622,0.0,0.0,0.0,0.0,0.0,0.0,-0.03404186,0.022420743,-0.7419032
270695323,0.41277006,0.32362887,-0.8949925,-3.0439405,0.0,-0.09602846,-0.01822737,-0.03397751,0.0,0.0,0.0,0.0,0.0,0.0,-0.034942508,0.023171326,-0.7448588
270795352,0.41277006,0.32362887,-0.8949925,-3.0439405,0.0,-0.10106096,-0.013299319,-0.03678292,0.0,0.0,0.0,0.0,0.0,0.0,-0.03383745,0.02317566,-0.747838
270895385,0.41277006,0.32362887,-0.8949925,-3.0439405,0.0,-0.10466799,-0.0075184195,-0.042292476,0.0,0.0,0.0,0.0,0.0,0.0,-0.030280285,0.02486233,-0.7554036
270995575,0.41277006,0.32362887,-0.8949925,-3.0439405,0.0,-0.106715694,-0.0007426008,-0.050719738,0.0,0.0,0.0,0.0,0.0,0.0,-0.030070335,0.026070267,-0.76062167
271095562,0.41277006,0.32362887,-0.8949925,-3.0439405,0.0,-0.10744168,0.005280538,-0.058866322,0.0,0.0,0.0,0.0,0.0,0.0,-0.02837655,0.026272163,-0.76257277
271195924,0.41277006,0.32362887,-0.8949925,-3.0439405,0.0,-0.106793106,0.010802805,-0.06729823,0.0,0.0,0.0,0.0,0.0,0.0,-0.025684835,0.023803202,-0.7637233
271295988,0.41277006,0.32362887,-0.8949925,-3.0439405,0.0,-0.10391845,0.014305875,-0.07454109,0.0,0.0,0.0,0.0,0.0,0.0,-0.026177043,0.022407265,-0.7670884
271396014,0.41277006,0.32362887,-0.8949925,-3.0439405,0.0,-0.09804361,0.015465486,-0.08100194,0.0,0.0,0.0,0.0,0.0,0.0,-0.026987236,0.018267347,-0.7656626
271496183,0.41277006,0.32362887,-0.8949925,-3.0439405,0.0,-0.090247504,0.014621782,-0.08603084,0.0,0.0,0.0,0.0,0.0,0.0,-0.021970924,0.02514451,-0.7654416
271616294,0.41277006,0.32362887,-0.8949925,-3.0439405,0.0,-0.078141406,0.009502058,-0.08983034,0.0,0.0,0.0,0.0,0.0,0.0,-0.019348681,0.018119432,-0.76534486
271716295,0.41277006,0.32362887,-0.8949925,-3.0439405,0.0,-0.065673985,0.00211948,-0.092924535,0.0,0.0,0.0,0.0,0.0,0.0,-0.017696315,0.015197763,-0.7675214
271816557,0.41277006,0.32362887,-0.8949925,-3.0439405,0.0,-0.053745314,-0.0067765266,-0.09674418,0.0,0.0,0.0,0.0,0.0,0.0,-0.017603422,0.01337258,-0.77057695
271916710,0.41277006,0.32362887,-0.8949925,-3.0439405,0.0,-0.04168154,-0.01759261,-0.102223575,0.0,0.0,0.0,0.0,0.0,0.0,-0.01261107,0.012792245,-0.77694184
272016887,0.41277006,0.32362887,-0.8949925,-3.0439405,0.0,-0.030927857,-0.027346222,-0.10882896,0.0,0.0,0.0,0.0,0.0,0.0,-0.017359804,0.009223498,-0.7774274
272117206,0.41277006,0.32362887,-0.8949925,-3.0439405,0.0,-0.021560254,-0.03532389,-0.11681849,0.0,0.0,0.0,0.0,0.0,0.0,-0.018092755,0.011226367,-0.77854395
272216920,0.41277006,0.32362887,-0.8949925,-3.0439405,0.0,-0.015285562,-0.04034631,-0.123960376,0.0,0.0,0.0,0.0,0.0,0.0,-0.015621727,0.01733625,-0.7821377
272336955,0.41277006,0.32362887,-0.8949925,-3.0439405,0.0,-0.0102748955,-0.042396907,-0.13298625,0.0,0.0,0.0,0.0,0.0,0.0,-0.014841846,0.020527506,-0.78425837
272437202,0.41277006,0.32362887,-0.8949925,-3.0439405,0.0,-0.007364288,-0.039777037,-0.1411097,0.0,0.0,0.0,0.0,0.0,0.0,-0.014313006,0.018485501,-0.7869855
272537064,0.41277006,0.32362887,-0.8949925,-3.0439405,0.0,-0.005741772,-0.034141716,-0.14789188,0.0,0.0,0.0,0.0,0.0,0.0,-0.020545166,0.021894462,-0.78603256
272637251,0.41277006,0.32362887,-0.8949925,-3.0439405,0.0,-0.0046650586,-0.024700673,-0.15436715,0.0,0.0,0.0,0.0,0.0,0.0,-0.02007678,0.02434537,-0.7883882
273337867,0.41277006,0.32362887,-0.8949925,-3.0439405,0.0,0.036333848,0.017855404,-0.17256069,0.0,0.0,0.0,0.0,0.0,0.0,-0.008796713,0.020139871,-0.7787037
273437930,0.41277006,0.32362887,-0.8949925,-3.0439405,0.0,0.047813598,0.015199945,-0.16907287,0.0,0.0,0.0,0.0,0.0,0.0,-0.0056413887,0.019001825,-0.776372
273538021,0.41277006,0.32362887,-0.8949925,-3.0439405,0.0,0.05874477,0.010623334,-0.1643498,0.0,0.0,0.0,0.0,0.0,0.0,-0.0068088705,0.018676383,-0.7711917
273638530,0.41277006,0.32362887,-0.8949925,-3.0439405,0.0,0.07116786,0.005355367,-0.15705615,0.0,0.0,0.0,0.0,0.0,0.0,-0.0031302292,0.01708051,-0.7640567
273738564,0.41277006,0.32362887,-0.8949925,-3.0439405,0.0,0.082558505,0.00076692103,-0.14797938,0.0,0.0,0.0,0.0,0.0,0.0,-0.0063659083,0.014839372,-0.75808066
273859169,0.41277006,0.32362887,-0.8949925,-3.0439405,0.0,0.09486735,-0.0032757504,-0.13368481,0.0,0.0,0.0,0.0,0.0,0.0,0.00038876198,0.019558385,-0.7530843
273959281,0.41277006,0.32362887,-0.8949925,-3.0439405,0.0,0.104326285,-0.0041661696,-0.12127185,0.0,0.0,0.0,0.0,0.0,0.0,-0.0061367564,0.023800664,-0.7500907
274059337,0.41277006,0.32362887,-0.8949925,-3.0439405,0.0,0.1110841,-0.0029341637,-0.11058682,0.0,0.0,0.0,0.0,0.0,0.0,-0.0038057305,0.018710114,-0.7502458
274159291,0.41277006,0.32362887,-0.8949925,-3.0439405,0.0,0.115419604,0.00034331382,-0.100004375,0.0,0.0,0.0,0.0,0.0,0.0,-0.002543686,0.02552623,-0.7484952
274259180,0.41277006,0.32362887,-0.8949925,-3.0439405,0.0,0.11684781,0.0072027952,-0.09313542,0.0,0.0,0.0,0.0,0.0,0.0,-0.010440078,0.026530666,-0.75140536
274359162,0.41277006,0.32362887,-0.8949925,-3.0439405,0.0,0.115203865,0.017853903,-0.08828497,0.0,0.0,0.0,0.0,0.0,0.0,-0.011226867,0.03265448,-0.755766
274459361,0.41277006,0.32362887,-0.8949925,-3.0439405,0.0,0.11006594,0.031842936,-0.08613032,0.0,0.0,0.0,0.0,0.0,0.0,-0.008070292,0.03454278,-0.7570126
274559371,0.41277006,0.32362887,-0.8949925,-3.0439405,0.0,0.10275788,0.046387568,-0.08683252,0.0,0.0,0.0,0.0,0.0,0.0,-0.01708262,0.038494848,-0.7616805
274659412,0.41277006,0.32362887,-0.8949925,-3.0439405,0.0,0.09278708,0.0623473,-0.089365244,0.0,0.0,0.0,0.0,0.0,0.0,-0.0160627,0.040428627,-0.7664484
274759398,0.41277006,0.32362887,-0.8949925,-3.0439405,0.0,0.082229346,0.0759998,-0.09277475,0.0,0.0,0.0,0.0,0.0,0.0,-0.026232935,0.035745986,-0.7660376
274859519,0.41277006,0.32362887,-0.8949925,-3.0439405,0.0,0.07036976,0.0887003,-0.09641677,0.0,0.0,0.0,0.0,0.0,0.0,-0.022788694,0.03191305,-0.76827383
274959527,0.41277006,0.32362887,-0.8949925,-3.0439405,0.0,0.05968335,0.09643974,-0.099131346,0.0,0.0,0.0,0.0,0.0,0.0,-0.023832494,0.033375487,-0.76869804
275059610,0.41277006,0.32362887,-0.8949925,-3.0439405,0.0,0.049217034,0.10059784,-0.100789666,0.0,0.0,0.0,0.0,0.0,0.0,-0.021122448,0.031328056,-0.7689009
275159795,0.41277006,0.32362887,-0.8949925,-3.0439405,0.0,0.0394141,0.101110615,-0.100949645,0.0,0.0,0.0,0.0,0.0,0.0,-0.022583261,0.029308017,-0.76777273
275279898,0.41277006,0.32362887,-0.8949925,-3.0439405,0.0,0.03082786,0.09515006,-0.098952174,0.0,0.0,0.0,0.0,0.0,0.0,-0.027068993,0.027143998,-0.763718
275380120,0.41277006,0.32362887,-0.8949925,-3.0439405,0.0,0.025510289,0.08671679,-0.094635785,0.0,0.0,0.0,0.0,0.0,0.0,-0.021640569,0.021962844,-0.76169926
275480054,0.41277006,0.32362887,-0.8949925,-3.0439405,0.0,0.021259408,0.07395954,-0.08858949,0.0,0.0,0.0,0.0,0.0,0.0,-0.025361177,0.020204077,-0.75881064
275580121,0.41277006,0.32362887,-0.8949925,-3.0439405,0.0,0.018218705,0.06109995,-0.081208944,0.0,0.0,0.0,0.0,0.0,0.0,-0.024798855,0.015542859,-0.7531376
275680197,0.41277006,0.32362887,-0.8949925,-3.0439405,0.0,0.014263973,0.046752654,-0.07124072,0.0,0.0,0.0,0.0,0.0,0.0,-0.027501235,0.014590485,-0.7484554
275780259,0.41277006,0.32362887,-0.8949925,-3.0439405,0.0,0.009140681,0.034460146,-0.061690927,0.0,0.0,0.0,0.0,0.0,0.0,-0.02577359,0.019998234,-0.748696
275880410,0.41277006,0.32362887,-0.8949925,-3.0439405,0.0,0.0025946156,0.022677908,-0.053488433,0.0,0.0,0.0,0.0,0.0,0.0,-0.024938479,0.018867893,-0.7519053
275980453,0.41277006,0.32362887,-0.8949925,-3.0439405,0.0,-0.003832595,0.0141102085,-0.04919219,0.0,0.0,0.0,0.0,0.0,0.0,-0.02780322,0.015019933,-0.75409234
276080770,0.41277006,0.32362887,-0.8949925,-3.0439405,0.0,-0.010751759,0.0069983527,-0.047252297,0.0,0.0,0.0,0.0,0.0,0.0,-0.02956121,0.015738498,-0.75778526
276181034,0.41277006,0.32362887,-0.8949925,-3.0439405,0.0,-0.017622253,0.002844046,-0.04823059,0.0,0.0,0.0,0.0,0.0,0.0,-0.029331444,0.018920364,-0.7615731
276280937,0.41277006,0.32362887,-0.8949925,-3.0439405,0.0,-0.023919906,0.0016417399,-0.051365376,0.0,0.0,0.0,0.0,0.0,0.0,-0.025838397,0.022320488,-0.76357234
276401062,0.41277006,0.32362887,-0.8949925,-3.0439405,0.0,-0.031407494,0.0024046688,-0.056674182,0.0,0.0,0.0,0.0,0.0,0.0,-0.027737135,0.024937976,-0.7679663
276501105,0.41277006,0.32362887,-0.8949925,-3.0439405,0.0,-0.037714943,0.004707159,-0.061046362,0.0,0.0,0.0,0.0,0.0,0.0,-0.025676224,0.024199486,-0.7670313
276601177,0.41277006,0.32362887,-0.8949925,-3.0439405,0.0,-0.044032387,0.007780109,-0.064846456,0.0,0.0,0.0,0.0,0.0,0.0,-0.034919485,0.025725055,-0.76881623
276701189,0.41277006,0.32362887,-0.8949925,-3.0439405,0.0,-0.051570117,0.011454779,-0.06902063,0.0,0.0,0.0,0.0,0.0,0.0,-0.033647235,0.027025621,-0.7725327
276801571,0.41277006,0.32362887,-0.8949925,-3.0439405,0.0,-0.05902359,0.015363364,-0.07205433,0.0,0.0,0.0,0.0,0.0,0.0,-0.03717753,0.028512493,-0.76868254
276901589,0.41277006,0.32362887,-0.8949925,-3.0439405,0.0,-0.06786348,0.020090794,-0.07376742,0.0,0.0,0.0,0.0,0.0,0.0,-0.038842887,0.03055546,-0.7674289
277001684,0.41277006,0.32362887,-0.8949925,-3.0439405,0.0,-0.07657503,0.024734393,-0.07326156,0.0,0.0,0.0,0.0,0.0,0.0,-0.035358585,0.03018204,-0.7651421
277101708,0.41277006,0.32362887,-0.8949925,-3.0439405,0.0,-0.085650116,0.030328827,-0.07052374,0.0,0.0,0.0,0.0,0.0,0.0,-0.037527483,0.029862598,-0.76037604
277201763,0.41277006,0.32362887,-0.8949925,-3.0439405,0.0,-0.09303547,0.03533083,-0.06626773,0.0,0.0,0.0,0.0,0.0,0.0,-0.034153104,0.033456832,-0.7595365
277301802,0.41277006,0.32362887,-0.8949925,-3.0439405,0.0,-0.10032025,0.041071072,-0.060762167,0.0,0.0,0.0,0.0,0.0,0.0,-0.029828345,0.031417515,-0.759073
277401862,0.41277006,0.32362887,-0.8949925,-3.0439405,0.0,-0.1060101,0.04611574,-0.05673498,0.0,0.0,0.0,0.0,0.0,0.0,-0.039720714,0.03468066,-0.7589139
277502050,0.41277006,0.32362887,-0.8949925,-3.0439405,0.0,-0.11034787,0.051296283,-0.05505091,0.0,0.0,0.0,0.0,0.0,0.0,-0.03646804,0.034212377,-0.763414
277602555,0.41277006,0.32362887,-0.8949925,-3.0439405,0.0,-0.11218941,0.05543074,-0.05485481,0.0,0.0,0.0,0.0,0.0,0.0,-0.03602067,0.032979753,-0.762204
277722989,0.41277006,0.32362887,-0.8949925,-3.0439405,0.0,-0.112417206,0.059072144,-0.05511415,0.0,0.0,0.0,0.0,0.0,0.0,-0.035907783,0.029791977,-0.76156735
277823250,0.41277006,0.32362887,-0.8949925,-3.0439405,0.0,-0.11136326,0.061123334,-0.055872023,0.0,0.0,0.0,0.0,0.0,0.0,-0.03833608,0.031130437,-0.7616824
277922982,0.41277006,0.32362887,-0.8949925,-3.0439405,0.0,-0.10988955,0.061429955,-0.056281507,0.0,0.0,0.0,0.0,0.0,0.0,-0.030483099,0.028835956,-0.76233304
278023152,0.41277006,0.32362887,-0.8949925,-3.0439405,0.0,-0.10825186,0.060258593,-0.05628389,0.0,0.0,0.0,0.0,0.0,0.0,-0.029919144,0.02615415,-0.763186
278123261,0.41277006,0.32362887,-0.8949925,-3.0439405,0.0,-0.10712735,0.05761902,-0.056402385,0.0,0.0,0.0,0.0,0.0,0.0,-0.03493386,0.025990358,-0.7630396
278223137,0.41277006,0.32362887,-0.8949925,-3.0439405,0.0,-0.10655494,0.05341831,-0.056456387,0.0,0.0,0.0,0.0,0.0,0.0,-0.036527015,0.02408313,-0.76263845
278322799,0.41277006,0.32362887,-0.8949925,-3.0439405,0.0,-0.10627578,0.048055355,-0.05501145,0.0,0.0,0.0,0.0,0.0,0.0,-0.028727213,0.026218858,-0.7610641
278423171,0.41277006,0.32362887,-0.8949925,-3.0439405,0.0,-0.10602346,0.043608185,-0.05185598,0.0,0.0,0.0,0.0,0.0,0.0,-0.03434298,0.027429938,-0.75729346
278525057,0.41277006,0.32362887,-0.8949925,-3.0439405,0.0,-0.10470145,0.03791381,-0.047613144,0.0,0.0,0.0,0.0,0.0,0.0,-0.030277634,0.022561241,-0.75740546
278623308,0.41277006,0.32362887,-0.8949925,-3.0439405,0.0,-0.10216859,0.031889595,-0.04434824,0.0,0.0,0.0,0.0,0.0,0.0,-0.032312904,0.022292726,-0.75912476
278723545,0.41277006,0.32362887,-0.8949925,-3.0439405,0.0,-0.098446384,0.026384994,-0.042175412,0.0,0.0,0.0,0.0,0.0,0.0,-0.03061245,0.019817924,-0.76129645
278823424,0.41277006,0.32362887,-0.8949925,-3.0439405,0.0,-0.09438981,0.020973144,-0.04252237,0.0,0.0,0.0,0.0,0.0,0.0,-0.030150326,0.022025406,-0.76368475
278924433,0.41277006,0.32362887,-0.8949925,-3.0439405,0.0,-0.08904576,0.015221208,-0.045499742,0.0,0.0,0.0,0.0,0.0,0.0,-0.02692345,0.021270238,-0.7719227
279023597,0.41277006,0.32362887,-0.8949925,-3.0439405,0.0,-0.08343655,0.009838407,-0.051055074,0.0,0.0,0.0,0.0,0.0,0.0,-0.031357445,0.020950044,-0.7748182
279143617,0.41277006,0.32362887,-0.8949925,-3.0439405,0.0,-0.07551106,0.002951689,-0.062016964,0.0,0.0,0.0,0.0,0.0,0.0,-0.023700353,0.017462354,-0.7828564
279243790,0.41277006,0.32362887,-0.8949925,-3.0439405,0.0,-0.06791141,-0.0021994903,-0.074334264,0.0,0.0,0.0,0.0,0.0,0.0,-0.025635162,0.021601504,-0.7908908
279343974,0.41277006,0.32362887,-0.8949925,-3.0439405,0.0,-0.06022626,-0.006500114,-0.08806491,0.0,0.0,0.0,0.0,0.0,0.0,-0.023485346,0.019437695,-0.79894745
279444037,0.41277006,0.32362887,-0.8949925,-3.0439405,0.0,-0.051376205,-0.010288485,-0.10568547,0.0,0.0,0.0,0.0,0.0,0.0,-0.019953227,0.014292458,-0.80732274
279544119,0.41277006,0.32362887,-0.8949925,-3.0439405,0.0,-0.04265715,-0.014208084,-0.12331319,0.0,0.0,0.0,0.0,0.0,0.0,-0.01735852,0.017352393,-0.8142677
279644186,0.41277006,0.32362887,-0.8949925,-3.0439405,0.0,-0.03294326,-0.018969461,-0.14232898,0.0,0.0,0.0,0.0,0.0,0.0,-0.0138691375,0.011731094,-0.8164381
279744207,0.41277006,0.32362887,-0.8949925,-3.0439405,0.0,-0.024136184,-0.02500333,-0.15797162,0.0,0.0,0.0,0.0,0.0,0.0,-0.01892512,0.011547895,-0.8157541
279844319,0.41277006,0.32362887,-0.8949925,-3.0439405,0.0,-0.014933896,-0.032893233,-0.17125231,0.0,0.0,0.0,0.0,0.0,0.0,-0.01369994,0.01114167,-0.8133514
279944454,0.41277006,0.32362887,-0.8949925,-3.0439405,0.0,-0.0062930956,-0.04220124,-0.17921972,0.0,0.0,0.0,0.0,0.0,0.0,-0.014827082,0.0035252124,-0.8118062
280044595,0.41277006,0.32362887,-0.8949925,-3.0439405,0.0,0.003335376,-0.053909358,-0.18358332,0.0,0.0,0.0,0.0,0.0,0.0,-0.011362894,0.005700076,-0.809372
280145885,0.41277006,0.32362887,-0.8949925,-3.0439405,0.0,0.013257785,-0.06681275,-0.18493646,0.0,0.0,0.0,0.0,0.0,0.0,-0.010503075,0.007115268,-0.80443656
280244843,0.41277006,0.32362887,-0.8949925,-3.0439405,0.0,0.022978978,-0.07829341,-0.18390799,0.0,0.0,0.0,0.0,0.0,0.0,-0.017656676,0.0030375868,-0.7991847
280345950,0.41277006,0.32362887,-0.8949925,-3.0439405,0.0,0.033827536,-0.090515256,-0.18168497,0.0,0.0,0.0,0.0,0.0,0.0,-0.015302598,0.004096439,-0.8018956
280465945,0.41277006,0.32362887,-0.8949925,-3.0439405,0.0,0.04769729,-0.102498025,-0.18179321,0.0,0.0,0.0,0.0,0.0,0.0,-0.011875027,0.0016675033,-0.80616766
280565154,0.41277006,0.32362887,-0.8949925,-3.0439405,0.0,0.05965263,-0.10948024,-0.186113,0.0,0.0,0.0,0.0,0.0,0.0,-0.004761489,0.0054398226,-0.8090684
280666611,0.41277006,0.32362887,-0.8949925,-3.0439405,0.0,0.07251325,-0.11469439,-0.19338429,0.0,0.0,0.0,0.0,0.0,0.0,-0.0036799498,0.001530014,-0.8159597
280766067,0.41277006,0.32362887,-0.8949925,-3.0439405,0.0,0.08421126,-0.117727675,-0.2033943,0.0,0.0,0.0,0.0,0.0,0.0,-0.007248476,0.006125965,-0.820881
280865516,0.41277006,0.32362887,-0.8949925,-3.0439405,0.0,0.095141724,-0.11868864,-0.2162869,0.0,0.0,0.0,0.0,0.0,0.0,-0.0007475801,0.004467475,-0.8278587
280965881,0.41277006,0.32362887,-0.8949925,-3.0439405,0.0,0.10649271,-0.118963726,-0.23170537,0.0,0.0,0.0,0.0,0.0,0.0,-0.0040036235,0.0035303226,-0.8317635
281065681,0.41277006,0.32362887,-0.8949925,-3.0439405,0.0,0.11724928,-0.118127726,-0.24626118,0.0,0.0,0.0,0.0,0.0,0.0,0.0031726323,0.011804899,-0.8345064
281166390,0.41277006,0.32362887,-0.8949925,-3.0439405,0.0,0.12851653,-0.1155978,-0.25966835,0.0,0.0,0.0,0.0,0.0,0.0,0.001262812,0.00863349,-0.8335303
281265789,0.41277006,0.32362887,-0.8949925,-3.0439405,0.0,0.13740203,-0.11265356,-0.26836246,0.0,0.0,0.0,0.0,0.0,0.0,0.0042194203,0.0070165666,-0.83293456
281366409,0.41277006,0.32362887,-0.8949925,-3.0439405,0.0,0.14471057,-0.10895406,-0.27479714,0.0,0.0,0.0,0.0,0.0,0.0,-0.0058769826,0.0168087,-0.83174753
281465979,0.41277006,0.32362887,-0.8949925,-3.0439405,0.0,0.14908831,-0.10446768,-0.2794448,0.0,0.0,0.0,0.0,0.0,0.0,-0.0019493736,0.011437591,-0.83756506
281586055,0.41277006,0.32362887,-0.8949925,-3.0439405,0.0,0.1514235,-0.097146936,-0.28519225,0.0,0.0,0.0,0.0,0.0,0.0,-0.0042739967,0.015949443,-0.83928114
281686629,0.41277006,0.32362887,-0.8949925,-3.0439405,0.0,0.15048906,-0.090660356,-0.29049063,0.0,0.0,0.0,0.0,0.0,0.0,-0.0094779385,0.013685205,-0.8361791
281786738,0.41277006,0.32362887,-0.8949925,-3.0439405,0.0,0.14758204,-0.085064076,-0.2959059,0.0,0.0,0.0,0.0,0.0,0.0,-0.0099065965,0.0144577315,-0.8383808
281886766,0.41277006,0.32362887,-0.8949925,-3.0439405,0.0,0.14187637,-0.07996573,-0.300753,0.0,0.0,0.0,0.0,0.0,0.0,-0.013570734,0.015083056,-0.83740115
281986790,0.41277006,0.32362887,-0.8949925,-3.0439405,0.0,0.13532719,-0.07746874,-0.30382812,0.0,0.0,0.0,0.0,0.0,0.0,-0.015304178,0.011340689,-0.832067
282086794,0.41277006,0.32362887,-0.8949925,-3.0439405,0.0,0.12661298,-0.076058105,-0.30411214,0.0,0.0,0.0,0.0,0.0,0.0,-0.018218407,0.013179221,-0.8298405
282186746,0.41277006,0.32362887,-0.8949925,-3.0439405,0.0,0.117872804,-0.07648565,-0.3003003,0.0,0.0,0.0,0.0,0.0,0.0,-0.016816285,0.006629491,-0.8209997
282286799,0.41277006,0.32362887,-0.8949925,-3.0439405,0.0,0.10816899,-0.07888047,-0.29155922,0.0,0.0,0.0,0.0,0.0,0.0,-0.022562623,0.00750573,-0.81031966
282387785,0.41277006,0.32362887,-0.8949925,-3.0439405,0.0,0.098908946,-0.08175393,-0.27793878,0.0,0.0,0.0,0.0,0.0,0.0,-0.021781262,0.007585793,-0.80488384
282487211,0.41277006,0.32362887,-0.8949925,-3.0439405,0.0,0.090768196,-0.08455123,-0.26169062,0.0,0.0,0.0,0.0,0.0,0.0,-0.017175827,0.0064111557,-0.7935851
282588014,0.41277006,0.32362887,-0.8949925,-3.0439405,0.0,0.08295731,-0.086394586,-0.24148071,0.0,0.0,0.0,0.0,0.0,0.0,-0.017535698,0.0088935215,-0.7836361
282687281,0.41277006,0.32362887,-0.8949925,-3.0439405,0.0,0.07625397,-0.086963005,-0.22040766,0.0,0.0,0.0,0.0,0.0,0.0,-0.020159204,0.0069922945,-0.7782454
282787830,0.41277006,0.32362887,-0.8949925,-3.0439405,0.0,0.06937442,-0.086059056,-0.19795096,0.0,0.0,0.0,0.0,0.0,0.0,-0.020818822,0.007229862,-0.7744913
282907751,0.41277006,0.32362887,-0.8949925,-3.0439405,0.0,0.06219495,-0.083213165,-0.17395759,0.0,0.0,0.0,0.0,0.0,0.0,-0.017826116,0.0077790506,-0.76758033
283007477,0.41277006,0.32362887,-0.8949925,-3.0439405,0.0,0.056803487,-0.08016819,-0.15578198,0.0,0.0,0.0,0.0,0.0,0.0,-0.019430557,0.011917759,-0.7657802
283107577,0.41277006,0.32362887,-0.8949925,-3.0439405,0.0,0.050996795,-0.07573518,-0.13841403,0.0,0.0,0.0,0.0,0.0,0.0,-0.017531218,0.010005227,-0.7625868
283207788,0.41277006,0.32362887,-0.8949925,-3.0439405,0.0,0.04598055,-0.07145732,-0.12526286,0.0,0.0,0.0,0.0,0.0,0.0,-0.01718348,0.013477174,-0.7685999
283308016,0.41277006,0.32362887,-0.8949925,-3.0439405,0.0,0.040683534,-0.06577407,-0.1154595,0.0,0.0,0.0,0.0,0.0,0.0,-0.019485636,0.0126766525,-0.7718756
283408013,0.41277006,0.32362887,-0.8949925,-3.0439405,0.0,0.035877198,-0.059570808,-0.11054796,0.0,0.0,0.0,0.0,0.0,0.0,-0.015129721,0.0196351,-0.77934766
283508240,0.41277006,0.32362887,-0.8949925,-3.0439405,0.0,0.030614922,-0.05174789,-0.109550536,0.0,0.0,0.0,0.0,0.0,0.0,-0.01620565,0.015718425,-0.7851243
283608278,0.41277006,0.32362887,-0.8949925,-3.0439405,0.0,0.025570566,-0.042898457,-0.11208683,0.0,0.0,0.0,0.0,0.0,0.0,-0.017859947,0.02183144,-0.79310095
283708355,0.41277006,0.32362887,-0.8949925,-3.0439405,0.0,0.020324992,-0.03217161,-0.11706346,0.0,0.0,0.0,0.0,0.0,0.0,-0.02359187,0.021514716,-0.7935442
283808362,0.41277006,0.32362887,-0.8949925,-3.0439405,0.0,0.015395356,-0.021244261,-0.121791005,0.0,0.0,0.0,0.0,0.0,0.0,-0.022860015,0.02314516,-0.7951702
283908375,0.41277006,0.32362887,-0.8949925,-3.0439405,0.0,0.008805861,-0.009457353,-0.124837756,0.0,0.0,0.0,0.0,0.0,0.0,-0.025088433,0.028729657,-0.7981282
284008710,0.41277006,0.32362887,-0.8949925,-3.0439405,0.0,0.0024056598,0.0010163515,-0.12810796,0.0,0.0,0.0,0.0,0.0,0.0,-0.027479138,0.02806537,-0.80401576
284129958,0.41277006,0.32362887,-0.8949925,-3.0439405,0.0,-0.005657826,0.012027959,-0.13357008,0.0,0.0,0.0,0.0,0.0,0.0,-0.029994952,0.022898,-0.8076221
284228930,0.41277006,0.32362887,-0.8949925,-3.0439405,0.0,-0.011423324,0.01808864,-0.13720655,0.0,0.0,0.0,0.0,0.0,0.0,-0.020513386,0.018535042,-0.81102794
284329989,0.41277006,0.32362887,-0.8949925,-3.0439405,0.0,-0.01722891,0.021515096,-0.14099932,0.0,0.0,0.0,0.0,0.0,0.0,-0.026302809,0.017249001,-0.81046987
284428959,0.41277006,0.32362887,-0.8949925,-3.0439405,0.0,-0.021959627,0.020880394,-0.14386064,0.0,0.0,0.0,0.0,0.0,0.0,-0.020422755,0.01429875,-0.8138407
284529103,0.41277006,0.32362887,-0.8949925,-3.0439405,0.0,-0.026062122,0.015550338,-0.14619815,0.0,0.0,0.0,0.0,0.0,0.0,-0.02083745,0.01323829,-0.8127897
284629125,0.41277006,0.32362887,-0.8949925,-3.0439405,0.0,-0.02876506,0.0070368005,-0.14728236,0.0,0.0,0.0,0.0,0.0,0.0,-0.025350105,0.0062349522,-0.81200576
284729251,0.41277006,0.32362887,-0.8949925,-3.0439405,0.0,-0.030775651,-0.0045225066,-0.14751965,0.0,0.0,0.0,0.0,0.0,0.0,-0.023001974,0.009017916,-0.81005454
284829540,0.41277006,0.32362887,-0.8949925,-3.0439405,0.0,-0.032098,-0.018099738,-0.14590538,0.0,0.0,0.0,0.0,0.0,0.0,-0.02092105,0.007635772,-0.80680585
284929624,0.41277006,0.32362887,-0.8949925,-3.0439405,0.0,-0.03260094,-0.02985239,-0.14266783,0.0,0.0,0.0,0.0,0.0,0.0,-0.024048328,0.0035267007,-0.8032907
285029758,0.41277006,0.32362887,-0.8949925,-3.0439405,0.0,-0.032649014,-0.041624293,-0.1359021,0.0,0.0,0.0,0.0,0.0,0.0,-0.02178516,0.0051903045,-0.795411
285129770,0.41277006,0.32362887,-0.8949925,-3.0439405,0.0,-0.032442927,-0.049611054,-0.1260162,0.0,0.0,0.0,0.0,0.0,0.0,-0.023670197,0.009692136,-0.7849758
285229873,0.41277006,0.32362887,-0.8949925,-3.0439405,0.0,-0.031992707,-0.053057045,-0.111695945,0.0,0.0,0.0,0.0,0.0,0.0,-0.019892726,0.011427373,-0.7777628
285349878,0.41277006,0.32362887,-0.8949925,-3.0439405,0.0,-0.031804826,-0.050753396,-0.09130812,0.0,0.0,0.0,0.0,0.0,0.0,-0.01928903,0.018393172,-0.76796013
285449921,0.41277006,0.32362887,-0.8949925,-3.0439405,0.0,-0.03146092,-0.04355023,-0.07242292,0.0,0.0,0.0,0.0,0.0,0.0,-0.021768201,0.01900593,-0.75654936
285550002,0.41277006,0.32362887,-0.8949925,-3.0439405,0.0,-0.030329593,-0.03177091,-0.05035788,0.0,0.0,0.0,0.0,0.0,0.0,-0.022826625,0.020049224,-0.74800545
285650235,0.41277006,0.32362887,-0.8949925,-3.0439405,0.0,-0.028852148,-0.01908673,-0.028523266,0.0,0.0,0.0,0.0,0.0,0.0,-0.020580193,0.018388353,-0.74144393
285750564,0.41277006,0.32362887,-0.8949925,-3.0439405,0.0,-0.027130993,-0.0052010654,-0.0057652593,0.0,0.0,0.0,0.0,0.0,0.0,-0.021364933,0.02168723,-0.73587465
285850733,0.41277006,0.32362887,-0.8949925,-3.0439405,0.0,-0.026281202,0.007684867,0.012722254,0.0,0.0,0.0,0.0,0.0,0.0,-0.017917955,0.02110219,-0.7382837
285950743,0.41277006,0.32362887,-0.8949925,-3.0439405,0.0,-0.02681936,0.017775875,0.028077185,0.0,0.0,0.0,0.0,0.0,0.0,-0.024057562,0.019328548,-0.74104494
286050729,0.41277006,0.32362887,-0.8949925,-3.0439405,0.0,-0.028388197,0.0248069,0.03571272,0.0,0.0,0.0,0.0,0.0,0.0,-0.023469383,0.023759669,-0.7512984
286150755,0.41277006,0.32362887,-0.8949925,-3.0439405,0.0,-0.03097712,0.029552564,0.035141945,0.0,0.0,0.0,0.0,0.0,0.0,-0.024914434,0.019325476,-0.76287824
286250811,0.41277006,0.32362887,-0.8949925,-3.0439405,0.0,-0.033607833,0.030078122,0.027463317,0.0,0.0,0.0,0.0,0.0,0.0,-0.02729674,0.015256782,-0.77589774
286370827,0.41277006,0.32362887,-0.8949925,-3.0439405,0.0,-0.037324857,0.0283987,0.008160174,0.0,0.0,0.0,0.0,0.0,0.0,-0.027110605,0.017232075,-0.7930681
286471016,0.41277006,0.32362887,-0.8949925,-3.0439405,0.0,-0.04056134,0.025185293,-0.014418602,0.0,0.0,0.0,0.0,0.0,0.0,-0.027498066,0.019259475,-0.80809486
286571287,0.41277006,0.32362887,-0.8949925,-3.0439405,0.0,-0.044049148,0.022011042,-0.037525237,0.0,0.0,0.0,0.0,0.0,0.0,-0.031042371,0.01831913,-0.8179648
286671322,0.41277006,0.32362887,-0.8949925,-3.0439405,0.0,-0.04769457,0.018604234,-0.0633086,0.0,0.0,0.0,0.0,0.0,0.0,-0.028282404,0.015386452,-0.8257462
286771343,0.41277006,0.32362887,-0.8949925,-3.0439405,0.0,-0.0515281,0.015947925,-0.08578694,0.0,0.0,0.0,0.0,0.0,0.0,-0.028755262,0.015625602,-0.83399904
286871496,0.41277006,0.32362887,-0.8949925,-3.0439405,0.0,-0.05621023,0.012347944,-0.10864383,0.0,0.0,0.0,0.0,0.0,0.0,-0.029378245,0.009940723,-0.83988434
286971451,0.41277006,0.32362887,-0.8949925,-3.0439405,0.0,-0.060199138,0.008533893,-0.12917125,0.0,0.0,0.0,0.0,0.0,0.0,-0.028374977,0.0132953385,-0.8486984
287071612,0.41277006,0.32362887,-0.8949925,-3.0439405,0.0,-0.064149626,0.004177664,-0.1490944,0.0,0.0,0.0,0.0,0.0,0.0,-0.025821358,0.010445066,-0.8501387
287171662,0.41277006,0.32362887,-0.8949925,-3.0439405,0.0,-0.0670367,-0.0013683289,-0.16428602,0.0,0.0,0.0,0.0,0.0,0.0,-0.033263676,0.0077106794,-0.8456196
287271873,0.41277006,0.32362887,-0.8949925,-3.0439405,0.0,-0.06907561,-0.008210341,-0.17632443,0.0,0.0,0.0,0.0,0.0,0.0,-0.03233211,0.003781192,-0.8408044
287372065,0.41277006,0.32362887,-0.8949925,-3.0439405,0.0,-0.07011639,-0.015685812,-0.18205136,0.0,0.0,0.0,0.0,0.0,0.0,-0.030739136,0.0049016047,-0.83358455
287472134,0.41277006,0.32362887,-0.8949925,-3.0439405,0.0,-0.0707889,-0.024662422,-0.18088675,0.0,0.0,0.0,0.0,0.0,0.0,-0.029586503,0.0031953063,-0.8211701
287572238,0.41277006,0.32362887,-0.8949925,-3.0439405,0.0,-0.070748776,-0.03242815,-0.17378813,0.0,0.0,0.0,0.0,0.0,0.0,-0.030245524,0.009183566,-0.8132295
287692239,0.41277006,0.32362887,-0.8949925,-3.0439405,0.0,-0.06960278,-0.039588958,-0.15916997,0.0,0.0,0.0,0.0,0.0,0.0,-0.03197483,0.007716813,-0.8013934
287792444,0.41277006,0.32362887,-0.8949925,-3.0439405,0.0,-0.067721665,-0.042989876,-0.14391768,0.0,0.0,0.0,0.0,0.0,0.0,-0.027189307,0.014249531,-0.7968422
287892434,0.41277006,0.32362887,-0.8949925,-3.0439405,0.0,-0.06479659,-0.042345237,-0.13042367,0.0,0.0,0.0,0.0,0.0,0.0,-0.027586568,0.01091259,-0.79089713
287992888,0.41277006,0.32362887,-0.8949925,-3.0439405,0.0,-0.060028926,-0.038568217,-0.11874884,0.0,0.0,0.0,0.0,0.0,0.0,-0.027730703,0.016220128,-0.79127157
288093130,0.41277006,0.32362887,-0.8949925,-3.0439405,0.0,-0.053717684,-0.030611241,-0.11010742,0.0,0.0,0.0,0.0,0.0,0.0,-0.026676796,0.016158884,-0.7908205
288192881,0.41277006,0.32362887,-0.8949925,-3.0439405,0.0,-0.047041666,-0.02165745,-0.10400826,0.0,0.0,0.0,0.0,0.0,0.0,-0.016947567,0.021580063,-0.788177
288292993,0.41277006,0.32362887,-0.8949925,-3.0439405,0.0,-0.03947925,-0.01085388,-0.099407494,0.0,0.0,0.0,0.0,0.0,0.0,-0.022732342,0.01807403,-0.7869822
288393102,0.41277006,0.32362887,-0.8949925,-3.0439405,0.0,-0.030975478,-0.0001461476,-0.09505063,0.0,0.0,0.0,0.0,0.0,0.0,-0.019182943,0.023251707,-0.78605735
288493044,0.41277006,0.32362887,-0.8949925,-3.0439405,0.0,-0.02289056,0.009403276,-0.090435624,0.0,0.0,0.0,0.0,0.0,0.0,-0.016207682,0.02078141,-0.7832161
288593364,0.41277006,0.32362887,-0.8949925,-3.0439405,0.0,-0.014702529,0.017528312,-0.08303809,0.0,0.0,0.0,0.0,0.0,0.0,-0.014709381,0.021785036,-0.7756739
288693796,0.41277006,0.32362887,-0.8949925,-3.0439405,0.0,-0.0076225516,0.023084102,-0.07222909,0.0,0.0,0.0,0.0,0.0,0.0,-0.010968119,0.020414857,-0.772181
288793400,0.41277006,0.32362887,-0.8949925,-3.0439405,0.0,-0.0021368354,0.025263831,-0.06000924,0.0,0.0,0.0,0.0,0.0,0.0,-0.020153869,0.017593937,-0.76551425
288893645,0.41277006,0.32362887,-0.8949925,-3.0439405,0.0,0.0022803782,0.024846906,-0.045675397,0.0,0.0,0.0,0.0,0.0,0.0,-0.015426764,0.017372577,-0.7638493
289013729,0.41277006,0.32362887,-0.8949925,-3.0439405,0.0,0.0064267293,0.021215186,-0.029287338,0.0,0.0,0.0,0.0,0.0,0.0,-0.011799039,0.01722711,-0.7640424
289113848,0.41277006,0.32362887,-0.8949925,-3.0439405,0.0,0.009702112,0.015690228,-0.017576337,0.0,0.0,0.0,0.0,0.0,0.0,-0.020542819,0.008787071,-0.7608868
289213883,0.41277006,0.32362887,-0.8949925,-3.0439405,0.0,0.013686064,0.008132228,-0.0064864755,0.0,0.0,0.0,0.0,0.0,0.0,-0.019563204,0.008741567,-0.75836635
289313878,0.41277006,0.32362887,-0.8949925,-3.0439405,0.0,0.017027102,-0.0005465388,0.0033208132,0.0,0.0,0.0,0.0,0.0,0.0,-0.014773646,0.010970837,-0.76007414
289413938,0.41277006,0.32362887,-0.8949925,-3.0439405,0.0,0.020205487,-0.010634291,0.012863219,0.0,0.0,0.0,0.0,0.0,0.0,-0.01199611,0.009742512,-0.75555396
289514085,0.41277006,0.32362887,-0.8949925,-3.0439405,0.0,0.02276191,-0.019814411,0.020668447,0.0,0.0,0.0,0.0,0.0,0.0,-0.017370475,0.007263585,-0.7588879
289614392,0.41277006,0.32362887,-0.8949925,-3.0439405,0.0,0.02456251,-0.028166654,0.027780592,0.0,0.0,0.0,0.0,0.0,0.0,-0.012864532,0.008699972,-0.76038575
289714838,0.41277006,0.32362887,-0.8949925,-3.0439405,0.0,0.025365585,-0.033815477,0.0314883,0.0,0.0,0.0,0.0,0.0,0.0,-0.018369574,0.013578396,-0.76534176
289814722,0.41277006,0.32362887,-0.8949925,-3.0439405,0.0,0.02496525,-0.03703191,0.032034636,0.0,0.0,0.0,0.0,0.0,0.0,-0.018559428,0.011043942,-0.7710295
289914725,0.41277006,0.32362887,-0.8949925,-3.0439405,0.0,0.02402319,-0.038015816,0.028360307,0.0,0.0,0.0,0.0,0.0,0.0,-0.021222824,0.012270903,-0.7777319
290015192,0.41277006,0.32362887,-0.8949925,-3.0439405,0.0,0.022087285,-0.036205877,0.021095216,0.0,0.0,0.0,0.0,0.0,0.0,-0.02322629,0.016156435,-0.7865943
290134868,0.41277006,0.32362887,-0.8949925,-3.0439405,0.0,0.018655507,-0.031135725,0.008403301,0.0,0.0,0.0,0.0,0.0,0.0,-0.021161169,0.017904807,-0.79634714
290234962,0.41277006,0.32362887,-0.8949925,-3.0439405,0.0,0.015508068,-0.025197297,-0.0046486855,0.0,0.0,0.0,0.0,0.0,0.0,-0.025461655,0.015939519,-0.8036304
290334988,0.41277006,0.32362887,-0.8949925,-3.0439405,0.0,0.0118247345,-0.01690063,-0.020524979,0.0,0.0,0.0,0.0,0.0,0.0,-0.02677498,0.021300001,-0.81154585
290434962,0.41277006,0.32362887,-0.8949925,-3.0439405,0.0,0.008413878,-0.0066317944,-0.03664565,0.0,0.0,0.0,0.0,0.0,0.0,-0.02678027,0.022707181,-0.8153745
290535144,0.41277006,0.32362887,-0.8949925,-3.0439405,0.0,0.0063240123,0.003847006,-0.050908327,0.0,0.0,0.0,0.0,0.0,0.0,-0.016710114,0.025901884,-0.8186874
290635232,0.41277006,0.32362887,-0.8949925,-3.0439405,0.0,0.0050259545,0.016534554,-0.06548172,0.0,0.0,0.0,0.0,0.0,0.0,-0.017258387,0.03360546,-0.8240751
290735326,0.41277006,0.32362887,-0.8949925,-3.0439405,0.0,0.0043532564,0.02963014,-0.07735115,0.0,0.0,0.0,0.0,0.0,0.0,-0.023623407,0.031135563,-0.82322377
290835380,0.41277006,0.32362887,-0.8949925,-3.0439405,0.0,0.0033266277,0.04392483,-0.087797284,0.0,0.0,0.0,0.0,0.0,0.0,-0.027215267,0.031470567,-0.82216245
290935492,0.41277006,0.32362887,-0.8949925,-3.0439405,0.0,0.0017779216,0.057693,-0.09569049,0.0,0.0,0.0,0.0,0.0,0.0,-0.02260997,0.038030926,-0.8258448
291035614,0.41277006,0.32362887,-0.8949925,-3.0439405,0.0,-0.0005341098,0.07157654,-0.10373598,0.0,0.0,0.0,0.0,0.0,0.0,-0.020949716,0.03660514,-0.8259923
291135950,0.41277006,0.32362887,-0.8949925,-3.0439405,0.0,-0.0034248142,0.08202717,-0.11001897,0.0,0.0,0.0,0.0,0.0,0.0,-0.02721476,0.031813376,-0.82469076
291235778,0.41277006,0.32362887,-0.8949925,-3.0439405,0.0,-0.00729481,0.09128634,-0.11531037,0.0,0.0,0.0,0.0,0.0,0.0,-0.023097409,0.03287615,-0.82275015
291335947,0.41277006,0.32362887,-0.8949925,-3.0439405,0.0,-0.010441174,0.09651944,-0.11853522,0.0,0.0,0.0,0.0,0.0,0.0,-0.026659317,0.030722756,-0.8192245
291436007,0.41277006,0.32362887,-0.8949925,-3.0439405,0.0,-0.014111199,0.0987098,-0.119226575,0.0,0.0,0.0,0.0,0.0,0.0,-0.02687927,0.030558629,-0.8142164
291536061,0.41277006,0.32362887,-0.8949925,-3.0439405,0.0,-0.017269455,0.096729174,-0.11667609,0.0,0.0,0.0,0.0,0.0,0.0,-0.029667025,0.020996328,-0.8054091
291656251,0.41277006,0.32362887,-0.8949925,-3.0439405,0.0,-0.020975182,0.0889747,-0.110405564,0.0,0.0,0.0,0.0,0.0,0.0,-0.02793608,0.023548493,-0.8017437
291756326,0.41277006,0.32362887,-0.8949925,-3.0439405,0.0,-0.023227759,0.07946592,-0.10380036,0.0,0.0,0.0,0.0,0.0,0.0,-0.029587131,0.01923334,-0.79887545
291856392,0.41277006,0.32362887,-0.8949925,-3.0439405,0.0,-0.024503166,0.06877793,-0.09756863,0.0,0.0,0.0,0.0,0.0,0.0,-0.023782885,0.01401121,-0.7969849
291957743,0.41277006,0.32362887,-0.8949925,-3.0439405,0.0,-0.024716923,0.055352088,-0.09219557,0.0,0.0,0.0,0.0,0.0,0.0,-0.026725743,0.015949447,-0.7972981
292057366,0.41277006,0.32362887,-0.8949925,-3.0439405,0.0,-0.023770532,0.04203938,-0.088907,0.0,0.0,0.0,0.0,0.0,0.0,-0.02200425,0.007878909,-0.7981448
292157238,0.41277006,0.32362887,-0.8949925,-3.0439405,0.0,-0.021896916,0.025943974,-0.08708668,0.0,0.0,0.0,0.0,0.0,0.0,-0.019938204,0.0054851184,-0.79847926
292257165,0.41277006,0.32362887,-0.8949925,-3.0439405,0.0,-0.019983916,0.012587861,-0.08588767,0.0,0.0,0.0,0.0,0.0,0.0,-0.019817483,0.0034837583,-0.79660296
292357230,0.41277006,0.32362887,-0.8949925,-3.0439405,0.0,-0.01831508,-0.0022791326,-0.08318937,0.0,0.0,0.0,0.0,0.0,0.0,-0.02447935,0.0012517944,-0.79171383
292457228,0.41277006,0.32362887,-0.8949925,-3.0439405,0.0,-0.017905148,-0.016286144,-0.079954565,0.0,0.0,0.0,0.0,0.0,0.0,-0.02945688,-8.596666e-05,-0.79082656
292557730,0.41277006,0.32362887,-0.8949925,-3.0439405,0.0,-0.018794151,-0.028197683,-0.07727605,0.0,0.0,0.0,0.0,0.0,0.0,-0.023142496,0.0021845307,-0.79643095
292658978,0.41277006,0.32362887,-0.8949925,-3.0439405,0.0,-0.020891605,-0.04031596,-0.075987935,0.0,0.0,0.0,0.0,0.0,0.0,-0.027974602,-0.0029214732,-0.7957088
292777257,0.41277006,0.32362887,-0.8949925,-3.0439405,0.0,-0.024696652,-0.051788885,-0.076609075,0.0,0.0,0.0,0.0,0.0,0.0,-0.038047858,0.0027972152,-0.7979013
292877418,0.41277006,0.32362887,-0.8949925,-3.0439405,0.0,-0.029074172,-0.060118195,-0.078154325,0.0,0.0,0.0,0.0,0.0,0.0,-0.026596732,-0.0037213434,-0.80269074
292977643,0.41277006,0.32362887,-0.8949925,-3.0439405,0.0,-0.034150153,-0.06583137,-0.08054352,0.0,0.0,0.0,0.0,0.0,0.0,-0.031080196,0.010711091,-0.8047799
293077858,0.41277006,0.32362887,-0.8949925,-3.0439405,0.0,-0.04105465,-0.06823505,-0.083863676,0.0,0.0,0.0,0.0,0.0,0.0,-0.029818645,0.0045796204,-0.80639917
293177785,0.41277006,0.32362887,-0.8949925,-3.0439405,0.0,-0.04930265,-0.06683979,-0.086197615,0.0,0.0,0.0,0.0,0.0,0.0,-0.03595552,0.012032478,-0.804503
293277832,0.41277006,0.32362887,-0.8949925,-3.0439405,0.0,-0.05853993,-0.061984308,-0.08968794,0.0,0.0,0.0,0.0,0.0,0.0,-0.03530714,0.011243554,-0.80915976
293377866,0.41277006,0.32362887,-0.8949925,-3.0439405,0.0,-0.06636197,-0.05430389,-0.094086945,0.0,0.0,0.0,0.0,0.0,0.0,-0.03719607,0.021560317,-0.8128531
293477962,0.41277006,0.32362887,-0.8949925,-3.0439405,0.0,-0.073723964,-0.0436254,-0.09782845,0.0,0.0,0.0,0.0,0.0,0.0,-0.035136834,0.01559218,-0.81025434
293578039,0.41277006,0.32362887,-0.8949925,-3.0439405,0.0,-0.07995715,-0.032693576,-0.099505484,0.0,0.0,0.0,0.0,0.0,0.0,-0.037366565,0.017820869,-0.80702317
293678293,0.41277006,0.32362887,-0.8949925,-3.0439405,0.0,-0.085711665,-0.019796008,-0.099874735,0.0,0.0,0.0,0.0,0.0,0.0,-0.034738,0.02312043,-0.81064415
293778630,0.41277006,0.32362887,-0.8949925,-3.0439405,0.0,-0.089879274,-0.007986081,-0.09985393,0.0,0.0,0.0,0.0,0.0,0.0,-0.034854718,0.023060456,-0.810686
293878687,0.41277006,0.32362887,-0.8949925,-3.0439405,0.0,-0.09284362,0.0040026945,-0.10140145,0.0,0.0,0.0,0.0,0.0,0.0,-0.03508131,0.028454835,-0.8169861
293998757,0.41277006,0.32362887,-0.8949925,-3.0439405,0.0,-0.09291214,0.014844627,-0.10704678,0.0,0.0,0.0,0.0,0.0,0.0,-0.03320326,0.022368744,-0.821838
294098794,0.41277006,0.32362887,-0.8949925,-3.0439405,0.0,-0.090674736,0.021180078,-0.11422032,0.0,0.0,0.0,0.0,0.0,0.0,-0.029754547,0.017972473,-0.8243121
294198738,0.41277006,0.32362887,-0.8949925,-3.0439405,0.0,-0.08558516,0.024581507,-0.124026656,0.0,0.0,0.0,0.0,0.0,0.0,-0.032629926,0.02269285,-0.83139336
294298824,0.41277006,0.32362887,-0.8949925,-3.0439405,0.0,-0.07870471,0.024375394,-0.13522536,0.0,0.0,0.0,0.0,0.0,0.0,-0.025525337,0.01811866,-0.83873224
294399000,0.41277006,0.32362887,-0.8949925,-3.0439405,0.0,-0.06895622,0.02100157,-0.14960104,0.0,0.0,0.0,0.0,0.0,0.0,-0.025574889,0.015982687,-0.8446044
294499189,0.41277006,0.32362887,-0.8949925,-3.0439405,0.0,-0.058153667,0.015014246,-0.16332096,0.0,0.0,0.0,0.0,0.0,0.0,-0.021211728,0.013199373,-0.84740496
294599257,0.41277006,0.32362887,-0.8949925,-3.0439405,0.0,-0.04463793,0.0064875153,-0.17778355,0.0,0.0,0.0,0.0,0.0,0.0,-0.019246548,0.012995793,-0.85177726
294699456,0.41277006,0.32362887,-0.8949925,-3.0439405,0.0,-0.029564794,-0.0044573885,-0.19144207,0.0,0.0,0.0,0.0,0.0,0.0,-0.017702833,0.008207578,-0.85487837
294799343,0.41277006,0.32362887,-0.8949925,-3.0439405,0.0,-0.014784322,-0.014913879,-0.20206493,0.0,0.0,0.0,0.0,0.0,0.0,-0.009364275,0.010054237,-0.855621
294899380,0.41277006,0.32362887,-0.8949925,-3.0439405,0.0,0.0020216613,-0.026175568,-0.20991361,0.0,0.0,0.0,0.0,0.0,0.0,-0.008915275,0.0077801915,-0.84817034
294999534,0.41277006,0.32362887,-0.8949925,-3.0439405,0.0,0.017376842,-0.035158437,-0.21269172,0.0,0.0,0.0,0.0,0.0,0.0,-0.0097011505,0.007716478,-0.84281576
295099597,0.41277006,0.32362887,-0.8949925,-3.0439405,0.0,0.032414246,-0.042898286,-0.20995247,0.0,0.0,0.0,0.0,0.0,0.0,-0.006792808,0.010780921,-0.8360473
295199754,0.41277006,0.32362887,-0.8949925,-3.0439405,0.0,0.04468886,-0.046607666,-0.20290583,0.0,0.0,0.0,0.0,0.0,0.0,-0.010879853,0.007996948,-0.8260748
295299989,0.41277006,0.32362887,-0.8949925,-3.0439405,0.0,0.05619741,-0.046843026,-0.19240522,0.0,0.0,0.0,0.0,0.0,0.0,-0.013335267,0.011215115,-0.82138133
295400162,0.41277006,0.32362887,-0.8949925,-3.0439405,0.0,0.06464509,-0.043031607,-0.18081045,0.0,0.0,0.0,0.0,0.0,0.0,-0.008022169,0.013647595,-0.81620777
295520198,0.41277006,0.32362887,-0.8949925,-3.0439405,0.0,0.072049804,-0.033389404,-0.16462731,0.0,0.0,0.0,0.0,0.0,0.0,-0.0063738786,0.015145827,-0.8096449
295620190,0.41277006,0.32362887,-0.8949925,-3.0439405,0.0,0.07484821,-0.023375379,-0.15177888,0.0,0.0,0.0,0.0,0.0,0.0,-0.0076158633,0.020673573,-0.80592453
295720183,0.41277006,0.32362887,-0.8949925,-3.0439405,0.0,0.075859755,-0.011216588,-0.13976198,0.0,0.0,0.0,0.0,0.0,0.0,-0.011739247,0.021408942,-0.80370486
295820384,0.41277006,0.32362887,-0.8949925,-3.0439405,0.0,0.07600769,-0.0008194968,-0.13177234,0.0,0.0,0.0,0.0,0.0,0.0,-0.01307728,0.01585609,-0.8072004
295920393,0.41277006,0.32362887,-0.8949925,-3.0439405,0.0,0.07569829,0.009615504,-0.12652731,0.0,0.0,0.0,0.0,0.0,0.0,-0.013500504,0.020447152,-0.80831873
296020462,0.41277006,0.32362887,-0.8949925,-3.0439405,0.0,0.075720005,0.017279958,-0.12457609,0.0,0.0,0.0,0.0,0.0,0.0,-0.0099908095,0.02287311,-0.81456214
296120978,0.41277006,0.32362887,-0.8949925,-3.0439405,0.0,0.07650238,0.023886018,-0.125085,0.0,0.0,0.0,0.0,0.0,0.0,-0.008891895,0.026541822,-0.8166398
296220833,0.41277006,0.32362887,-0.8949925,-3.0439405,0.0,0.07924043,0.027838344,-0.12687898,0.0,0.0,0.0,0.0,0.0,0.0,-0.0045606904,0.024634792,-0.8174972
296320887,0.41277006,0.32362887,-0.8949925,-3.0439405,0.0,0.083653934,0.029545344,-0.12766433,0.0,0.0,0.0,0.0,0.0,0.0,-0.0059230383,0.023350013,-0.8167975
296421181,0.41277006,0.32362887,-0.8949925,-3.0439405,0.0,0.091033764,0.030158276,-0.12754792,0.0,0.0,0.0,0.0,0.0,0.0,-0.0030216035,0.02506283,-0.81390196
296520970,0.41277006,0.32362887,-0.8949925,-3.0439405,0.0,0.099783875,0.031147758,-0.12464714,0.0,0.0,0.0,0.0,0.0,0.0,-0.002747707,0.023959711,-0.81207144
296622031,0.41277006,0.32362887,-0.8949925,-3.0439405,0.0,0.1109328,0.033113334,-0.11901808,0.0,0.0,0.0,0.0,0.0,0.0,-0.00030385144,0.020008806,-0.80857915
296721276,0.41277006,0.32362887,-0.8949925,-3.0439405,0.0,0.1222792,0.03598181,-0.11382997,0.0,0.0,0.0,0.0,0.0,0.0,-0.0020052064,0.029949266,-0.812421
296821398,0.41277006,0.32362887,-0.8949925,-3.0439405,0.0,0.13462055,0.041808635,-0.10926318,0.0,0.0,0.0,0.0,0.0,0.0,-0.0021876134,0.026832815,-0.81218576
296942006,0.41277006,0.32362887,-0.8949925,-3.0439405,0.0,0.14745715,0.051402226,-0.105225205,0.0,0.0,0.0,0.0,0.0,0.0,-0.004590382,0.03100194,-0.8106295
297041658,0.41277006,0.32362887,-0.8949925,-3.0439405,0.0,0.15539987,0.06108081,-0.1020233,0.0,0.0,0.0,0.0,0.0,0.0,0.0026741754,0.034042563,-0.8107591
297141731,0.41277006,0.32362887,-0.8949925,-3.0439405,0.0,0.16045193,0.07421531,-0.09833473,0.0,0.0,0.0,0.0,0.0,0.0,-0.0061204946,0.036053963,-0.8055792
297241728,0.41277006,0.32362887,-0.8949925,-3.0439405,0.0,0.1616872,0.08795071,-0.09440285,0.0,0.0,0.0,0.0,0.0,0.0,-0.0032672752,0.03954981,-0.80648804
297341824,0.41277006,0.32362887,-0.8949925,-3.0439405,0.0,0.15940964,0.10403638,-0.08894402,0.0,0.0,0.0,0.0,0.0,0.0,-0.008129639,0.042316303,-0.8031075
297441893,0.41277006,0.32362887,-0.8949925,-3.0439405,0.0,0.15456763,0.119270265,-0.081989706,0.0,0.0,0.0,0.0,0.0,0.0,-0.0041063903,0.04389914,-0.798613
297541984,0.41277006,0.32362887,-0.8949925,-3.0439405,0.0,0.14697398,0.13448389,-0.07259357,0.0,0.0,0.0,0.0,0.0,0.0,-0.013508063,0.037809893,-0.79408133
297642332,0.41277006,0.32362887,-0.8949925,-3.0439405,0.0,0.13827562,0.146198,-0.06317419,0.0,0.0,0.0,0.0,0.0,0.0,-0.0077181635,0.043293864,-0.79395115
297742372,0.41277006,0.32362887,-0.8949925,-3.0439405,0.0,0.12708834,0.15511419,-0.052807868,0.0,0.0,0.0,0.0,0.0,0.0,-0.01185732,0.039738156,-0.79072523
297842487,0.41277006,0.32362887,-0.8949925,-3.0439405,0.0,0.1159626,0.1581157,-0.04388547,0.0,0.0,0.0,0.0,0.0,0.0,-0.019087203,0.03515458,-0.79040337
297963267,0.41277006,0.32362887,-0.8949925,-3.0439405,0.0,0.10112757,0.15479034,-0.03516519,0.0,0.0,0.0,0.0,0.0,0.0,-0.023481533,0.028952368,-0.7920065
298063246,0.41277006,0.32362887,-0.8949925,-3.0439405,0.0,0.087302156,0.14557035,-0.02880323,0.0,0.0,0.0,0.0,0.0,0.0,-0.029329218,0.027279116,-0.7884151
298163105,0.41277006,0.32362887,-0.8949925,-3.0439405,0.0,0.07385083,0.13295868,-0.02311635,0.0,0.0,0.0,0.0,0.0,0.0,-0.02036909,0.024942944,-0.78780216
298263126,0.41277006,0.32362887,-0.8949925,-3.0439405,0.0,0.059016254,0.115769796,-0.017059863,0.0,0.0,0.0,0.0,0.0,0.0,-0.022802606,0.021402285,-0.7890183
298363522,0.41277006,0.32362887,-0.8949925,-3.0439405,0.0,0.0454762,0.09966185,-0.012146771,0.0,0.0,0.0,0.0,0.0,0.0,-0.02477563,0.023006039,-0.78884625
298463305,0.41277006,0.32362887,-0.8949925,-3.0439405,0.0,0.030589357,0.08261319,-0.0059368014,0.0,0.0,0.0,0.0,0.0,0.0,-0.025906056,0.017756257,-0.78463346
298563326,0.41277006,0.32362887,-0.8949925,-3.0439405,0.0,0.016925858,0.06957167,0.00061649084,0.0,0.0,0.0,0.0,0.0,0.0,-0.029927462,0.021774214,-0.7846892
298964291,0.41277006,0.32362887,-0.8949925,-3.0439405,0.0,-0.03914055,0.04418349,0.021067202,0.0,0.0,0.0,0.0,0.0,0.0,-0.03533006,0.022113219,-0.7867315
299484189,0.41277006,0.32362887,-0.8949925,-3.0439405,0.0,-0.11831187,0.032339845,0.036725223,0.0,0.0,0.0,0.0,0.0,0.0,-0.04629868,0.0233256,-0.77816546
299584143,0.41277006,0.32362887,-0.8949925,-3.0439405,0.0,-0.13027117,0.029570485,0.04289043,0.0,0.0,0.0,0.0,0.0,0.0,-0.04236748,0.0220259,-0.77655125
299684203,0.41277006,0.32362887,-0.8949925,-3.0439405,0.0,-0.14059697,0.028005386,0.050791144,0.0,0.0,0.0,0.0,0.0,0.0,-0.05039843,0.023693036,-0.77162945
299784331,0.41277006,0.32362887,-0.8949925,-3.0439405,0.0,-0.14915626,0.026916726,0.05876726,0.0,0.0,0.0,0.0,0.0,0.0,-0.04232444,0.022999138,-0.77145475
299884352,0.41277006,0.32362887,-0.8949925,-3.0439405,0.0,-0.15712689,0.027119951,0.06576145,0.0,0.0,0.0,0.0,0.0,0.0,-0.04399479,0.023913715,-0.7751957
299984433,0.41277006,0.32362887,-0.8949925,-3.0439405,0.0,-0.16257551,0.028085425,0.06954956,0.0,0.0,0.0,0.0,0.0,0.0,-0.037956335,0.0245471,-0.77645576
300084941,0.41277006,0.32362887,-0.8949925,-3.0439405,0.0,-0.16547525,0.029672805,0.07080972,0.0,0.0,0.0,0.0,0.0,0.0,-0.03988491,0.022030998,-0.77839625
300184982,0.41277006,0.32362887,-0.8949925,-3.0439405,0.0,-0.16510968,0.030620953,0.06944007,0.0,0.0,0.0,0.0,0.0,0.0,-0.034994353,0.03029646,-0.7817817
300305163,0.41277006,0.32362887,-0.8949925,-3.0439405,0.0,-0.16234148,0.032813367,0.067299604,0.0,0.0,0.0,0.0,0.0,0.0,-0.034894004,0.024427725,-0.7803755
300405071,0.41277006,0.32362887,-0.8949925,-3.0439405,0.0,-0.15884243,0.03271345,0.06678009,0.0,0.0,0.0,0.0,0.0,0.0,-0.029016485,0.029549504,-0.7787074
300506006,0.41277006,0.32362887,-0.8949925,-3.0439405,0.0,-0.1538379,0.03229222,0.066696525,0.0,0.0,0.0,0.0,0.0,0.0,-0.02872534,0.028252162,-0.7811855
300605063,0.41277006,0.32362887,-0.8949925,-3.0439405,0.0,-0.14762865,0.030554164,0.066857874,0.0,0.0,0.0,0.0,0.0,0.0,-0.036231607,0.024579104,-0.7786271
300705894,0.41277006,0.32362887,-0.8949925,-3.0439405,0.0,-0.13953967,0.028609144,0.06736261,0.0,0.0,0.0,0.0,0.0,0.0,-0.035635866,0.024885423,-0.77712333
300805262,0.41277006,0.32362887,-0.8949925,-3.0439405,0.0,-0.13161889,0.02575618,0.069087684,0.0,0.0,0.0,0.0,0.0,0.0,-0.027185097,0.023028372,-0.77694213
300906372,0.41277006,0.32362887,-0.8949925,-3.0439405,0.0,-0.12441966,0.022658939,0.07321471,0.0,0.0,0.0,0.0,0.0,0.0,-0.034783974,0.024566703,-0.77048945
301005618,0.41277006,0.32362887,-0.8949925,-3.0439405,0.0,-0.11992923,0.019947195,0.07751262,0.0,0.0,0.0,0.0,0.0,0.0,-0.03473251,0.021938875,-0.7692628
301106377,0.41277006,0.32362887,-0.8949925,-3.0439405,0.0,-0.117322244,0.016504826,0.080825925,0.0,0.0,0.0,0.0,0.0,0.0,-0.033810806,0.025997255,-0.7761943
301205725,0.41277006,0.32362887,-0.8949925,-3.0439405,0.0,-0.116701074,0.01410197,0.08131707,0.0,0.0,0.0,0.0,0.0,0.0,-0.035950504,0.022663774,-0.7807004
301305801,0.41277006,0.32362887,-0.8949925,-3.0439405,0.0,-0.117139064,0.010551506,0.07757789,0.0,0.0,0.0,0.0,0.0,0.0,-0.03349757,0.018616332,-0.78374434
301405862,0.41277006,0.32362887,-0.8949925,-3.0439405,0.0,-0.11811538,0.0077376408,0.06971949,0.0,0.0,0.0,0.0,0.0,0.0,-0.031314444,0.022457626,-0.79580826
301525992,0.41277006,0.32362887,-0.8949925,-3.0439405,0.0,-0.11903683,0.004784508,0.05140263,0.0,0.0,0.0,0.0,0.0,0.0,-0.03273432,0.023462448,-0.8145245
301626188,0.41277006,0.32362887,-0.8949925,-3.0439405,0.0,-0.11842348,0.0034123287,0.027216077,0.0,0.0,0.0,0.0,0.0,0.0,-0.032606076,0.022701256,-0.82896304
301726346,0.41277006,0.32362887,-0.8949925,-3.0439405,0.0,-0.11592662,0.00259085,-0.00085008144,0.0,0.0,0.0,0.0,0.0,0.0,-0.028936945,0.020108761,-0.84564644
301826454,0.41277006,0.32362887,-0.8949925,-3.0439405,0.0,-0.11006911,0.001831913,-0.036632836,0.0,0.0,0.0,0.0,0.0,0.0,-0.029961966,0.025621964,-0.86097413
301926525,0.41277006,0.32362887,-0.8949925,-3.0439405,0.0,-0.10108723,0.002088365,-0.07206637,0.0,0.0,0.0,0.0,0.0,0.0,-0.02488122,0.019330436,-0.87248933
302026545,0.41277006,0.32362887,-0.8949925,-3.0439405,0.0,-0.08829311,0.0018719748,-0.109053195,0.0,0.0,0.0,0.0,0.0,0.0,-0.022170346,0.020207662,-0.8790557
302126803,0.41277006,0.32362887,-0.8949925,-3.0439405,0.0,-0.07360499,0.0014022753,-0.14027673,0.0,0.0,0.0,0.0,0.0,0.0,-0.021590987,0.018792575,-0.88187265
302226850,0.41277006,0.32362887,-0.8949925,-3.0439405,0.0,-0.057058692,0.00097040087,-0.16677278,0.0,0.0,0.0,0.0,0.0,0.0,-0.014084108,0.023880456,-0.8840499
302326824,0.41277006,0.32362887,-0.8949925,-3.0439405,0.0,-0.037639774,6.299466e-05,-0.18879539,0.0,0.0,0.0,0.0,0.0,0.0,-0.013445263,0.019813593,-0.8810983
302426868,0.41277006,0.32362887,-0.8949925,-3.0439405,0.0,-0.019408498,-0.0016726285,-0.20280576,0.0,0.0,0.0,0.0,0.0,0.0,-0.010484546,0.017889164,-0.876175
302527338,0.41277006,0.32362887,-0.8949925,-3.0439405,0.0,0.0005526259,-0.004640116,-0.2113446,0.0,0.0,0.0,0.0,0.0,0.0,-0.011584981,0.016407413,-0.86719584
302628706,0.41277006,0.32362887,-0.8949925,-3.0439405,0.0,0.019657023,-0.0076334802,-0.21215773,0.0,0.0,0.0,0.0,0.0,0.0,-0.0080376305,0.023368737,-0.8534024
302727332,0.41277006,0.32362887,-0.8949925,-3.0439405,0.0,0.035428025,-0.010286787,-0.20470011,0.0,0.0,0.0,0.0,0.0,0.0,-0.0077998005,0.016553758,-0.8386529
302847421,0.41277006,0.32362887,-0.8949925,-3.0439405,0.0,0.053033292,-0.011938691,-0.18667173,0.0,0.0,0.0,0.0,0.0,0.0,-0.004050931,0.025141995,-0.8213323
302947583,0.41277006,0.32362887,-0.8949925,-3.0439405,0.0,0.06518483,-0.011603446,-0.16705495,0.0,0.0,0.0,0.0,0.0,0.0,-0.008916194,0.018274626,-0.80843556
303047526,0.41277006,0.32362887,-0.8949925,-3.0439405,0.0,0.075886674,-0.009840134,-0.14291161,0.0,0.0,0.0,0.0,0.0,0.0,-0.0073729884,0.021463273,-0.7960214
303147627,0.41277006,0.32362887,-0.8949925,-3.0439405,0.0,0.08670695,-0.008285029,-0.11909002,0.0,0.0,0.0,0.0,0.0,0.0,-0.006441459,0.021405568,-0.79372895
303247926,0.41277006,0.32362887,-0.8949925,-3.0439405,0.0,0.096974626,-0.005455422,-0.10055554,0.0,0.0,0.0,0.0,0.0,0.0,-0.0014009159,0.022842843,-0.7907976
303347991,0.41277006,0.32362887,-0.8949925,-3.0439405,0.0,0.1081244,-0.0027030513,-0.08526415,0.0,0.0,0.0,0.0,0.0,0.0,0.002944531,0.018935574,-0.79110307
303448103,0.41277006,0.32362887,-0.8949925,-3.0439405,0.0,0.11850006,-0.0002837449,-0.07521224,0.0,0.0,0.0,0.0,0.0,0.0,-0.0014349353,0.025062405,-0.7923567
303548133,0.41277006,0.32362887,-0.8949925,-3.0439405,0.0,0.1302807,0.0023172407,-0.06917453,0.0,0.0,0.0,0.0,0.0,0.0,0.001289878,0.022646742,-0.7948256
303648222,0.41277006,0.32362887,-0.8949925,-3.0439405,0.0,0.14119606,0.0031381815,-0.066351235,0.0,0.0,0.0,0.0,0.0,0.0,-0.0003913641,0.023524245,-0.79591763
303748294,0.41277006,0.32362887,-0.8949925,-3.0439405,0.0,0.15289083,0.003283593,-0.065832436,0.0,0.0,0.0,0.0,0.0,0.0,0.0025119986,0.023374211,-0.8030524
303848337,0.41277006,0.32362887,-0.8949925,-3.0439405,0.0,0.16246152,0.0032046868,-0.06779349,0.0,0.0,0.0,0.0,0.0,0.0,0.002695404,0.023485493,-0.8090283
303948443,0.41277006,0.32362887,-0.8949925,-3.0439405,0.0,0.17072275,0.003612581,-0.072135925,0.0,0.0,0.0,0.0,0.0,0.0,-0.0024978071,0.028857129,-0.8135987
304048600,0.41277006,0.32362887,-0.8949925,-3.0439405,0.0,0.17616202,0.0053212224,-0.07904738,0.0,0.0,0.0,0.0,0.0,0.0,-0.00022970326,0.027869835,-0.8242297
304148986,0.41277006,0.32362887,-0.8949925,-3.0439405,0.0,0.1789286,0.008389076,-0.08829242,0.0,0.0,0.0,0.0,0.0,0.0,-0.0057704328,0.029074201,-0.826975
304249272,0.41277006,0.32362887,-0.8949925,-3.0439405,0.0,0.17781772,0.013639887,-0.09785813,0.0,0.0,0.0,0.0,0.0,0.0,-0.008964503,0.027988715,-0.8309597
304369097,0.41277006,0.32362887,-0.8949925,-3.0439405,0.0,0.17098951,0.0221857,-0.1101715,0.0,0.0,0.0,0.0,0.0,0.0,-0.012146528,0.03425739,-0.8387514
304469205,0.41277006,0.32362887,-0.8949925,-3.0439405,0.0,0.1605894,0.03276342,-0.12133503,0.0,0.0,0.0,0.0,0.0,0.0,-0.014000446,0.036948964,-0.8435986
304569537,0.41277006,0.32362887,-0.8949925,-3.0439405,0.0,0.14842665,0.043295562,-0.13168144,0.0,0.0,0.0,0.0,0.0,0.0,-0.016470617,0.04358571,-0.8487623
304670014,0.41277006,0.32362887,-0.8949925,-3.0439405,0.0,0.13419017,0.05690963,-0.14273924,0.0,0.0,0.0,0.0,0.0,0.0,-0.016052537,0.03757391,-0.85110337
304769225,0.41277006,0.32362887,-0.8949925,-3.0439405,0.0,0.12159119,0.06785156,-0.15136075,0.0,0.0,0.0,0.0,0.0,0.0,-0.022598788,0.042127896,-0.84948087
304869509,0.41277006,0.32362887,-0.8949925,-3.0439405,0.0,0.1088431,0.078651875,-0.15722948,0.0,0.0,0.0,0.0,0.0,0.0,-0.020000862,0.03400872,-0.84686947
304969584,0.41277006,0.32362887,-0.8949925,-3.0439405,0.0,0.09879032,0.085755944,-0.15888947,0.0,0.0,0.0,0.0,0.0,0.0,-0.014637149,0.039712448,-0.8410767
305069702,0.41277006,0.32362887,-0.8949925,-3.0439405,0.0,0.08983786,0.091319025,-0.15520722,0.0,0.0,0.0,0.0,0.0,0.0,-0.01517876,0.03199415,-0.8318964
305169741,0.41277006,0.32362887,-0.8949925,-3.0439405,0.0,0.083858915,0.09285672,-0.14593202,0.0,0.0,0.0,0.0,0.0,0.0,-0.017760936,0.032343,-0.81963384
305269986,0.41277006,0.32362887,-0.8949925,-3.0439405,0.0,0.07979685,0.09196665,-0.12949371,0.0,0.0,0.0,0.0,0.0,0.0,-0.015749246,0.031239193,-0.8059286
305369825,0.41277006,0.32362887,-0.8949925,-3.0439405,0.0,0.078274526,0.08910317,-0.10918397,0.0,0.0,0.0,0.0,0.0,0.0,-0.015020211,0.030865196,-0.79371
305469956,0.41277006,0.32362887,-0.8949925,-3.0439405,0.0,0.07809885,0.08476813,-0.08395338,0.0,0.0,0.0,0.0,0.0,0.0,-0.014225239,0.028939042,-0.7810222
305570056,0.41277006,0.32362887,-0.8949925,-3.0439405,0.0,0.078791626,0.07971814,-0.05490607,0.0,0.0,0.0,0.0,0.0,0.0,-0.016033579,0.027372913,-0.7692886
305670183,0.41277006,0.32362887,-0.8949925,-3.0439405,0.0,0.07850541,0.075341806,-0.026881993,0.0,0.0,0.0,0.0,0.0,0.0,-0.017634073,0.028254777,-0.76051086
305790394,0.41277006,0.32362887,-0.8949925,-3.0439405,0.0,0.076115355,0.071228825,0.0064974427,0.0,0.0,0.0,0.0,0.0,0.0,-0.018076874,0.026856193,-0.75545454
305890457,0.41277006,0.32362887,-0.8949925,-3.0439405,0.0,0.07232588,0.070234865,0.029770553,0.0,0.0,0.0,0.0,0.0,0.0,-0.019577276,0.030055942,-0.760923
305990572,0.41277006,0.32362887,-0.8949925,-3.0439405,0.0,0.06705746,0.07109596,0.045270205,0.0,0.0,0.0,0.0,0.0,0.0,-0.018117886,0.029163152,-0.7627593
306090582,0.41277006,0.32362887,-0.8949925,-3.0439405,0.0,0.058820873,0.07310179,0.0562824,0.0,0.0,0.0,0.0,0.0,0.0,-0.026016247,0.033543617,-0.76321787
306190637,0.41277006,0.32362887,-0.8949925,-3.0439405,0.0,0.048712395,0.07585762,0.06191218,0.0,0.0,0.0,0.0,0.0,0.0,-0.021286987,0.032944568,-0.76952773
306291276,0.41277006,0.32362887,-0.8949925,-3.0439405,0.0,0.035094365,0.078274414,0.06469375,0.0,0.0,0.0,0.0,0.0,0.0,-0.031010104,0.03332564,-0.77242804
306390864,0.41277006,0.32362887,-0.8949925,-3.0439405,0.0,0.020843955,0.079346925,0.06429583,0.0,0.0,0.0,0.0,0.0,0.0,-0.028799385,0.03151317,-0.77961826
306491188,0.41277006,0.32362887,-0.8949925,-3.0439405,0.0,0.0047411337,0.07952243,0.062490404,0.0,0.0,0.0,0.0,0.0,0.0,-0.030313436,0.030051067,-0.78148144
306591313,0.41277006,0.32362887,-0.8949925,-3.0439405,0.0,-0.010175832,0.077239096,0.061089694,0.0,0.0,0.0,0.0,0.0,0.0,-0.03289361,0.026345868,-0.78331614
306691501,0.41277006,0.32362887,-0.8949925,-3.0439405,0.0,-0.025845448,0.07198095,0.059761047,0.0,0.0,0.0,0.0,0.0,0.0,-0.03131345,0.025240503,-0.7851101
306791404,0.41277006,0.32362887,-0.8949925,-3.0439405,0.0,-0.039817918,0.06484166,0.059743047,0.0,0.0,0.0,0.0,0.0,0.0,-0.035064373,0.024095789,-0.7861661
306891419,0.41277006,0.32362887,-0.8949925,-3.0439405,0.0,-0.054735847,0.055807434,0.060558617,0.0,0.0,0.0,0.0,0.0,0.0,-0.038242035,0.027860016,-0.7875091
306992072,0.41277006,0.32362887,-0.8949925,-3.0439405,0.0,-0.06908014,0.04559279,0.061129987,0.0,0.0,0.0,0.0,0.0,0.0,-0.04073697,0.024697447,-0.7906507
307091616,0.41277006,0.32362887,-0.8949925,-3.0439405,0.0,-0.08154756,0.03667484,0.059877038,0.0,0.0,0.0,0.0,0.0,0.0,-0.043463636,0.029048083,-0.7970221
307191636,0.41277006,0.32362887,-0.8949925,-3.0439405,0.0,-0.0941598,0.027973479,0.05637294,0.0,0.0,0.0,0.0,0.0,0.0,-0.040357694,0.026287239,-0.80268145
307312036,0.41277006,0.32362887,-0.8949925,-3.0439405,0.0,-0.10800923,0.021369884,0.04739988,0.0,0.0,0.0,0.0,0.0,0.0,-0.042346843,0.031981334,-0.8098277
307412342,0.41277006,0.32362887,-0.8949925,-3.0439405,0.0,-0.118176594,0.019307906,0.03756678,0.0,0.0,0.0,0.0,0.0,0.0,-0.037754104,0.023191048,-0.81485474
307512308,0.41277006,0.32362887,-0.8949925,-3.0439405,0.0,-0.12803161,0.019552862,0.025800109,0.0,0.0,0.0,0.0,0.0,0.0,-0.04290936,0.034088824,-0.81787395
307612247,0.41277006,0.32362887,-0.8949925,-3.0439405,0.0,-0.13550514,0.021915402,0.014500618,0.0,0.0,0.0,0.0,0.0,0.0,-0.042055763,0.029129049,-0.8195348
307712342,0.41277006,0.32362887,-0.8949925,-3.0439405,0.0,-0.14142708,0.025685797,0.0029463172,0.0,0.0,0.0,0.0,0.0,0.0,-0.039772253,0.03204934,-0.8247782
307812426,0.41277006,0.32362887,-0.8949925,-3.0439405,0.0,-0.1442177,0.029070435,-0.007029772,0.0,0.0,0.0,0.0,0.0,0.0,-0.040504657,0.029109497,-0.8242621
307912607,0.41277006,0.32362887,-0.8949925,-3.0439405,0.0,-0.14335707,0.030713903,-0.015051544,0.0,0.0,0.0,0.0,0.0,0.0,-0.036734305,0.02780753,-0.8216211
308013220,0.41277006,0.32362887,-0.8949925,-3.0439405,0.0,-0.14075162,0.029545004,-0.018721998,0.0,0.0,0.0,0.0,0.0,0.0,-0.036379598,0.020013021,-0.8157186
308113020,0.41277006,0.32362887,-0.8949925,-3.0439405,0.0,-0.13573548,0.023588004,-0.019505918,0.0,0.0,0.0,0.0,0.0,0.0,-0.038050015,0.020190675,-0.81241333
308213329,0.41277006,0.32362887,-0.8949925,-3.0439405,0.0,-0.13021511,0.015118095,-0.018900037,0.0,0.0,0.0,0.0,0.0,0.0,-0.027534394,0.014565574,-0.8144808
308313394,0.41277006,0.32362887,-0.8949925,-3.0439405,0.0,-0.123243175,0.0016013384,-0.018472314,0.0,0.0,0.0,0.0,0.0,0.0,-0.03285991,0.013913335,-0.81526285
308413694,0.41277006,0.32362887,-0.8949925,-3.0439405,0.0,-0.11597249,-0.012380305,-0.02020067,0.0,0.0,0.0,0.0,0.0,0.0,-0.02549226,0.01570651,-0.8181384
308533412,0.41277006,0.32362887,-0.8949925,-3.0439405,0.0,-0.10701745,-0.03118884,-0.025836468,0.0,0.0,0.0,0.0,0.0,0.0,-0.02339401,0.011385599,-0.82158166
308633621,0.41277006,0.32362887,-0.8949925,-3.0439405,0.0,-0.10000327,-0.04850127,-0.032527745,0.0,0.0,0.0,0.0,0.0,0.0,-0.0245506,0.008692283,-0.82373106
308733512,0.41277006,0.32362887,-0.8949925,-3.0439405,0.0,-0.09398245,-0.06383816,-0.040264487,0.0,0.0,0.0,0.0,0.0,0.0,-0.02534162,0.005295351,-0.8270228
308833681,0.41277006,0.32362887,-0.8949925,-3.0439405,0.0,-0.087255985,-0.08003993,-0.048828006,0.0,0.0,0.0,0.0,0.0,0.0,-0.019259784,0.0027995985,-0.828081
308933646,0.41277006,0.32362887,-0.8949925,-3.0439405,0.0,-0.080324754,-0.09436888,-0.056358635,0.0,0.0,0.0,0.0,0.0,0.0,-0.02082904,0.0022479482,-0.8264436
309033730,0.41277006,0.32362887,-0.8949925,-3.0439405,0.0,-0.0738527,-0.10545133,-0.06273669,0.0,0.0,0.0,0.0,0.0,0.0,-0.025987865,0.006651189,-0.8280482
309133723,0.41277006,0.32362887,-0.8949925,-3.0439405,0.0,-0.06816203,-0.115603834,-0.06807178,0.0,0.0,0.0,0.0,0.0,0.0,-0.025073161,0.0070350077,-0.8293278
309233745,0.41277006,0.32362887,-0.8949925,-3.0439405,0.0,-0.06393977,-0.122736074,-0.07321721,0.0,0.0,0.0,0.0,0.0,0.0,-0.029789558,0.00805185,-0.8304831
309333788,0.41277006,0.32362887,-0.8949925,-3.0439405,0.0,-0.060381554,-0.12866029,-0.07984072,0.0,0.0,0.0,0.0,0.0,0.0,-0.022509545,0.0041109435,-0.83704674
309433899,0.41277006,0.32362887,-0.8949925,-3.0439405,0.0,-0.05754337,-0.13239294,-0.087861896,0.0,0.0,0.0,0.0,0.0,0.0,-0.024440197,0.009063897,-0.8411195
309533980,0.41277006,0.32362887,-0.8949925,-3.0439405,0.0,-0.054736838,-0.13389674,-0.099166036,0.0,0.0,0.0,0.0,0.0,0.0,-0.026269464,0.0058174934,-0.84336853
309654218,0.41277006,0.32362887,-0.8949925,-3.0439405,0.0,-0.05255108,-0.1329245,-0.11282444,0.0,0.0,0.0,0.0,0.0,0.0,-0.03320057,0.0143928025,-0.8483436
309754337,0.41277006,0.32362887,-0.8949925,-3.0439405,0.0,-0.05164149,-0.13035478,-0.1238572,0.0,0.0,0.0,0.0,0.0,0.0,-0.029515281,0.016052097,-0.8504323
309855092,0.41277006,0.32362887,-0.8949925,-3.0439405,0.0,-0.05089354,-0.12564093,-0.13679385,0.0,0.0,0.0,0.0,0.0,0.0,-0.023568384,0.011506101,-0.85896045
309954595,0.41277006,0.32362887,-0.8949925,-3.0439405,0.0,-0.04963475,-0.121308655,-0.15038627,0.0,0.0,0.0,0.0,0.0,0.0,-0.022778653,0.0120669585,-0.8676197
310054652,0.41277006,0.32362887,-0.8949925,-3.0439405,0.0,-0.04685169,-0.11537784,-0.16836184,0.0,0.0,0.0,0.0,0.0,0.0,-0.025420044,0.022111792,-0.8759942
310154683,0.41277006,0.32362887,-0.8949925,-3.0439405,0.0,-0.043125406,-0.10952766,-0.18757212,0.0,0.0,0.0,0.0,0.0,0.0,-0.022323588,0.020736525,-0.88456905
310254823,0.41277006,0.32362887,-0.8949925,-3.0439405,0.0,-0.03726832,-0.103469536,-0.2108975,0.0,0.0,0.0,0.0,0.0,0.0,-0.02389568,0.02409516,-0.8949615
310354859,0.41277006,0.32362887,-0.8949925,-3.0439405,0.0,-0.030390577,-0.09817135,-0.23533797,0.0,0.0,0.0,0.0,0.0,0.0,-0.01770641,0.013704058,-0.9070616
310454946,0.41277006,0.32362887,-0.8949925,-3.0439405,0.0,-0.02043456,-0.09229609,-0.26461184,0.0,0.0,0.0,0.0,0.0,0.0,-0.015692562,0.021326492,-0.91850173
310555661,0.41277006,0.32362887,-0.8949925,-3.0439405,0.0,-0.009693136,-0.08699463,-0.29292816,0.0,0.0,0.0,0.0,0.0,0.0,-0.011269475,0.01570076,-0.92841494
310655386,0.41277006,0.32362887,-0.8949925,-3.0439405,0.0,0.0027250214,-0.08152684,-0.32364058,0.0,0.0,0.0,0.0,0.0,0.0,-0.0138485795,0.023337133,-0.9321129
310755502,0.41277006,0.32362887,-0.8949925,-3.0439405,0.0,0.015865622,-0.07560907,-0.3529355,0.0,0.0,0.0,0.0,0.0,0.0,-0.00961602,0.01827681,-0.93620604
310875789,0.41277006,0.32362887,-0.8949925,-3.0439405,0.0,0.031806868,-0.06811948,-0.38174754,0.0,0.0,0.0,0.0,0.0,0.0,-0.00989462,0.024927868,-0.9370364
310975416,0.41277006,0.32362887,-0.8949925,-3.0439405,0.0,0.04427089,-0.061432194,-0.39767516,0.0,0.0,0.0,0.0,0.0,0.0,-0.011171921,0.026134327,-0.9291438
311075617,0.41277006,0.32362887,-0.8949925,-3.0439405,0.0,0.05718038,-0.053536568,-0.40599003,0.0,0.0,0.0,0.0,0.0,0.0,-0.004880337,0.025694452,-0.91724086
311175657,0.41277006,0.32362887,-0.8949925,-3.0439405,0.0,0.06779457,-0.04603624,-0.4033229,0.0,0.0,0.0,0.0,0.0,0.0,-0.0069324225,0.023351537,-0.8987373
311275799,0.41277006,0.32362887,-0.8949925,-3.0439405,0.0,0.07832467,-0.039235566,-0.38922298,0.0,0.0,0.0,0.0,0.0,0.0,-0.007349246,0.017741498,-0.878738
311375957,0.41277006,0.32362887,-0.8949925,-3.0439405,0.0,0.08737999,-0.03396754,-0.365574,0.0,0.0,0.0,0.0,0.0,0.0,-0.004123939,0.022540314,-0.8552965
311476056,0.41277006,0.32362887,-0.8949925,-3.0439405,0.0,0.095627986,-0.031372953,-0.32734716,0.0,0.0,0.0,0.0,0.0,0.0,-0.0035390258,0.016959807,-0.8251686
311576133,0.41277006,0.32362887,-0.8949925,-3.0439405,0.0,0.10144731,-0.030832049,-0.28232276,0.0,0.0,0.0,0.0,0.0,0.0,-0.010661146,0.015527731,-0.79954755
311676158,0.41277006,0.32362887,-0.8949925,-3.0439405,0.0,0.10587825,-0.031207044,-0.22883159,0.0,0.0,0.0,0.0,0.0,0.0,-0.0059424713,0.01734073,-0.7820957
311776237,0.41277006,0.32362887,-0.8949925,-3.0439405,0.0,0.10819189,-0.03254522,-0.1768722,0.0,0.0,0.0,0.0,0.0,0.0,-0.011959721,0.01841588,-0.76282936
311876353,0.41277006,0.32362887,-0.8949925,-3.0439405,0.0,0.10899251,-0.03420437,-0.12111205,0.0,0.0,0.0,0.0,0.0,0.0,-0.015698692,0.01614245,-0.74585617
311976435,0.41277006,0.32362887,-0.8949925,-3.0439405,0.0,0.1079543,-0.03588606,-0.07306343,0.0,0.0,0.0,0.0,0.0,0.0,-0.0070534237,0.019479327,-0.7408588
312096785,0.41277006,0.32362887,-0.8949925,-3.0439405,0.0,0.10411253,-0.035148755,-0.021142185,0.0,0.0,0.0,0.0,0.0,0.0,-0.01030045,0.017728692,-0.73487526
312196833,0.41277006,0.32362887,-0.8949925,-3.0439405,0.0,0.09875966,-0.030944703,0.016097307,0.0,0.0,0.0,0.0,0.0,0.0,-0.017976431,0.027490597,-0.7332982
312296859,0.41277006,0.32362887,-0.8949925,-3.0439405,0.0,0.09208876,-0.02342447,0.04328537,0.0,0.0,0.0,0.0,0.0,0.0,-0.017845614,0.024790363,-0.7394855
312397154,0.41277006,0.32362887,-0.8949925,-3.0439405,0.0,0.08379026,-0.011478759,0.0632714,0.0,0.0,0.0,0.0,0.0,0.0,-0.020256337,0.029562455,-0.7490995
312497167,0.41277006,0.32362887,-0.8949925,-3.0439405,0.0,0.07530203,0.0031566976,0.07218057,0.0,0.0,0.0,0.0,0.0,0.0,-0.024166133,0.039577655,-0.7657368
312597149,0.41277006,0.32362887,-0.8949925,-3.0439405,0.0,0.06489013,0.02157645,0.07150304,0.0,0.0,0.0,0.0,0.0,0.0,-0.023203397,0.037392154,-0.78403544
312697239,0.41277006,0.32362887,-0.8949925,-3.0439405,0.0,0.0549434,0.040073123,0.06102556,0.0,0.0,0.0,0.0,0.0,0.0,-0.025113454,0.044679675,-0.8041686
312797259,0.41277006,0.32362887,-0.8949925,-3.0439405,0.0,0.0441592,0.060860086,0.04075426,0.0,0.0,0.0,0.0,0.0,0.0,-0.024058467,0.042929105,-0.82409084
312897913,0.41277006,0.32362887,-0.8949925,-3.0439405,0.0,0.03369464,0.08169767,0.01439476,0.0,0.0,0.0,0.0,0.0,0.0,-0.024268182,0.041133113,-0.8428841
312997709,0.41277006,0.32362887,-0.8949925,-3.0439405,0.0,0.025058368,0.09894802,-0.014886856,0.0,0.0,0.0,0.0,0.0,0.0,-0.02810394,0.045516312,-0.8604387
313097853,0.41277006,0.32362887,-0.8949925,-3.0439405,0.0,0.016862353,0.11478585,-0.05041492,0.0,0.0,0.0,0.0,0.0,0.0,-0.026006278,0.05105225,-0.8807065
313197735,0.41277006,0.32362887,-0.8949925,-3.0439405,0.0,0.010966676,0.12576696,-0.085485995,0.0,0.0,0.0,0.0,0.0,0.0,-0.024641585,0.039425902,-0.8967878
313298489,0.41277006,0.32362887,-0.8949925,-3.0439405,0.0,0.006544451,0.13307257,-0.12441254,0.0,0.0,0.0,0.0,0.0,0.0,-0.027514957,0.048898026,-0.91154945
313397873,0.41277006,0.32362887,-0.8949925,-3.0439405,0.0,0.00326536,0.13582705,-0.15924501,0.0,0.0,0.0,0.0,0.0,0.0,-0.027480721,0.03767643,-0.9186294
313518039,0.41277006,0.32362887,-0.8949925,-3.0439405,0.0,-0.00035681872,0.13312167,-0.19820541,0.0,0.0,0.0,0.0,0.0,0.0,-0.023169912,0.032554504,-0.92192876
313618304,0.41277006,0.32362887,-0.8949925,-3.0439405,0.0,-0.004082252,0.1262393,-0.22592396,0.0,0.0,0.0,0.0,0.0,0.0,-0.031435236,0.030323278,-0.9198974
313718313,0.41277006,0.32362887,-0.8949925,-3.0439405,0.0,-0.008355186,0.11608698,-0.24526757,0.0,0.0,0.0,0.0,0.0,0.0,-0.025001861,0.023907514,-0.919183
313818453,0.41277006,0.32362887,-0.8949925,-3.0439405,0.0,-0.01370206,0.101801366,-0.25945228,0.0,0.0,0.0,0.0,0.0,0.0,-0.026613854,0.018473936,-0.9121758
313918531,0.41277006,0.32362887,-0.8949925,-3.0439405,0.0,-0.019159833,0.08676559,-0.2662633,0.0,0.0,0.0,0.0,0.0,0.0,-0.025347795,0.020349033,-0.90717316
314018554,0.41277006,0.32362887,-0.8949925,-3.0439405,0.0,-0.024827624,0.068334565,-0.2684999,0.0,0.0,0.0,0.0,0.0,0.0,-0.022982309,0.013319133,-0.8992654
314118561,0.41277006,0.32362887,-0.8949925,-3.0439405,0.0,-0.028746119,0.04995471,-0.26806688,0.0,0.0,0.0,0.0,0.0,0.0,-0.028679596,0.008249976,-0.89686084
314218669,0.41277006,0.32362887,-0.8949925,-3.0439405,0.0,-0.030906992,0.029194046,-0.26596797,0.0,0.0,0.0,0.0,0.0,0.0,-0.019166688,0.008706637,-0.8891703
314318840,0.41277006,0.32362887,-0.8949925,-3.0439405,0.0,-0.030860389,0.0070775417,-0.25975168,0.0,0.0,0.0,0.0,0.0,0.0,-0.020799326,0.005254021,-0.8740712
314418869,0.41277006,0.32362887,-0.8949925,-3.0439405,0.0,-0.02935149,-0.012869568,-0.24915123,0.0,0.0,0.0,0.0,0.0,0.0,-0.02013338,-0.0002545379,-0.8615711
314519434,0.41277006,0.32362887,-0.8949925,-3.0439405,0.0,-0.026827287,-0.033280544,-0.23222554,0.0,0.0,0.0,0.0,0.0,0.0,-0.018750254,0.0024033953,-0.8488529
314619421,0.41277006,0.32362887,-0.8949925,-3.0439405,0.0,-0.02343959,-0.049299423,-0.21264231,0.0,0.0,0.0,0.0,0.0,0.0,-0.022077424,0.004329387,-0.83634126
314719557,0.41277006,0.32362887,-0.8949925,-3.0439405,0.0,-0.018758252,-0.06477583,-0.18728703,0.0,0.0,0.0,0.0,0.0,0.0,-0.014676267,0.002816895,-0.82306135
314819543,0.41277006,0.32362887,-0.8949925,-3.0439405,0.0,-0.0139502445,-0.076954044,-0.16159773,0.0,0.0,0.0,0.0,0.0,0.0,-0.021660682,-0.002005808,-0.81296504
314939639,0.41277006,0.32362887,-0.8949925,-3.0439405,0.0,-0.007496789,-0.08978477,-0.12795734,0.0,0.0,0.0,0.0,0.0,0.0,-0.015949229,-0.0014659166,-0.80379474
315039562,0.41277006,0.32362887,-0.8949925,-3.0439405,0.0,-0.0030526787,-0.0979642,-0.10403198,0.0,0.0,0.0,0.0,0.0,0.0,-0.020828385,0.0035570655,-0.79957986
315139991,0.41277006,0.32362887,-0.8949925,-3.0439405,0.0,0.0010350376,-0.10454053,-0.08185935,0.0,0.0,0.0,0.0,0.0,0.0,-0.016125951,0.0037314855,-0.8033911
315239765,0.41277006,0.32362887,-0.8949925,-3.0439405,0.0,0.0047084615,-0.11015427,-0.067475975,0.0,0.0,0.0,0.0,0.0,0.0,-0.022802215,0.0014183745,-0.80442774
315339953,0.41277006,0.32362887,-0.8949925,-3.0439405,0.0,0.008123961,-0.11542946,-0.058533907,0.0,0.0,0.0,0.0,0.0,0.0,-0.019759977,0.0050036525,-0.8157588
315440032,0.41277006,0.32362887,-0.8949925,-3.0439405,0.0,0.010025097,-0.11947414,-0.0560019,0.0,0.0,0.0,0.0,0.0,0.0,-0.022347167,0.0057451157,-0.8205169
315540760,0.41277006,0.32362887,-0.8949925,-3.0439405,0.0,0.010375319,-0.12050193,-0.059596837,0.0,0.0,0.0,0.0,0.0,0.0,-0.023553312,0.014750009,-0.8314803
315640226,0.41277006,0.32362887,-0.8949925,-3.0439405,0.0,0.008745527,-0.11866373,-0.06717044,0.0,0.0,0.0,0.0,0.0,0.0,-0.02400259,0.009804213,-0.8395653
