timestamp,ref_timestamp,ref_lat,ref_lon,x,y,z,delta_xy[0],delta_xy[1],delta_z,vx,vy,vz,z_deriv,delta_vxy[0],delta_vxy[1],delta_vz,ax,ay,az,yaw,ref_alt,dist_bottom,dist_bottom_rate,eph,epv,evh,evv,vxy_max,vz_max,hagl_min,hagl_max,xy_valid,z_valid,v_xy_valid,v_z_valid,xy_reset_counter,z_reset_counter,vxy_reset_counter,vz_reset_counter,xy_global,z_global,dist_bottom_valid
214213470,0,0.0,0.0,0.028337805,0.4709761,-0.03595349,0.011355724,0.46770203,2.096495,-0.004016349,-0.002729795,-0.0011316685,-0.0004827663,-0.018294713,-0.005836704,0.0,-0.040602535,-0.046577215,-0.02585337,-3.0651963,0.0,0.100679174,0.0011316685,0.005716268,0.003932876,0.02664733,0.017736137,inf,inf,inf,inf,1,1,1,1,2,1,2,3,0,0,0
214317506,0,0.0,0.0,0.02830467,0.4708682,-0.035809994,0.011355724,0.46770203,2.096495,-0.0036379788,-0.00295374,-0.0006817989,5.1246006e-05,-0.018294713,-0.005836704,0.0,-0.07391179,-0.060012672,-0.059806116,-3.0648623,0.0,0.10051895,0.0006817989,0.0055434797,0.003813353,0.026638966,0.01772314,inf,inf,inf,inf,1,1,1,1,2,1,2,3,0,0,0
214411913,0,0.0,0.0,0.028294723,0.4708491,-0.03564232,0.011355724,0.46770203,2.096495,-0.0041976585,-0.0035676372,-0.00022164338,0.0005777801,-0.018294713,-0.005836704,0.0,-0.059418395,-0.12742293,0.018493436,-3.0649393,0.0,0.10042294,0.00022164338,0.0053837937,0.0037037318,0.026479684,0.017623976,inf,inf,inf,inf,1,1,1,1,2,1,2,3,0,0,0
214516669,0,0.0,0.0,0.028229844,0.4708029,-0.035454318,0.011355724,0.46770203,2.096495,-0.0046244636,-0.001769796,0.00038341913,0.0012207744,-0.018294713,-0.005836704,0.0,-0.11448402,0.065124266,0.0050335834,-3.0651057,0.0,0.10029406,-0.00038341913,0.0054363003,0.0037348005,0.026673077,0.017738102,inf,inf,inf,inf,1,1,1,1,2,1,2,3,0,0,0
214620677,0,0.0,0.0,0.028177468,0.47068444,-0.03530046,0.011355724,0.46770203,2.096495,-0.0031638227,-0.0030660888,-0.00010045817,0.0007071279,-0.018294713,-0.005836704,0.0,0.34737572,-0.2425736,-0.03419827,-3.0650876,0.0,0.100089386,0.00010045817,0.005121428,0.0035288108,0.02580741,0.01721794,inf,inf,inf,inf,1,1,1,1,2,1,2,3,0,0,0
214724677,0,0.0,0.0,0.028149525,0.47062913,-0.0351839,0.011355724,0.46770203,2.096495,-0.0032951282,-0.0026198337,-0.00023324417,0.00052443,-0.018294713,-0.005836704,0.0,0.6123571,0.1550033,-0.08139254,-3.0655143,0.0,0.1,0.00023324417,0.0052127345,0.0035877058,0.026044326,0.017362257,inf,inf,inf,inf,1,1,1,1,2,1,2,3,0,0,0
214828674,0,0.0,0.0,0.028105944,0.47055966,-0.035077594,0.011355724,0.46770203,2.096495,-0.0034860217,-0.001600145,0.00029371877,0.0009977898,-0.018294713,-0.005836704,0.0,0.14339486,-0.21436869,-0.050212223,-3.0651393,0.0,0.1,-0.00029371877,0.005284918,0.003635345,0.026165193,0.017436339,inf,inf,inf,inf,1,1,1,1,2,1,2,3,0,0,0
214932688,0,0.0,0.0,0.028127812,0.4705525,-0.034965992,0.011355724,0.46770203,2.096495,-0.003076818,-0.0024044502,-0.0003005866,0.0003638565,-0.018294713,-0.005836704,0.0,0.09751495,0.28134888,-0.067314714,-3.0649252,0.0,0.1,0.0003005866,0.005363837,0.003686946,0.02634452,0.017544638,inf,inf,inf,inf,1,1,1,1,2,1,2,3,0,0,0
215028670,0,0.0,0.0,0.028147392,0.47058734,-0.034947988,0.011355724,0.46770203,2.096495,-0.003986074,-0.0030672855,-0.00014314167,0.0004673936,-0.018294713,-0.005836704,0.0,-0.0029055614,0.06298257,0.09945703,-3.064945,0.0,0.1,0.00014314167,0.0052800705,0.0036328395,0.026110597,0.017405208,inf,inf,inf,inf,1,1,1,1,2,1,2,3,0,0,0
215132670,0,0.0,0.0,0.028357504,0.47056457,-0.03502293,0.011355724,0.46770203,2.096495,-0.0042249854,-0.003944563,-4.1946296e-06,0.0005513437,-0.018294713,-0.005836704,0.0,0.6248566,-0.12984945,0.014425563,-3.0651977,0.0,0.1,4.1946296e-06,0.005355424,0.0036820148,0.026297858,0.017517146,inf,inf,inf,inf,1,1,1,1,2,1,2,3,0,0,0
215235870,0,0.0,0.0,0.02845548,0.4703494,-0.035119835,0.011355724,0.46770203,2.096495,-0.005426032,-0.0010663175,-0.0005285656,-7.858123e-05,-0.018294713,-0.005836704,0.0,-0.31550404,0.8539183,0.059496444,-3.065067,0.0,0.1,0.0005285656,0.005426855,0.003728399,0.026492987,0.017631305,inf,inf,inf,inf,1,1,1,1,2,1,2,3,0,0,0
215331875,0,0.0,0.0,0.028477928,0.47023827,-0.03519829,0.011355724,0.46770203,2.096495,-0.0037374713,-0.0037797121,-0.00010494451,0.00027471877,-0.018294713,-0.005836704,0.0,0.08275235,0.09552507,0.33519772,-3.0653138,0.0,0.1,0.00010494451,0.0053126975,0.0036546525,0.026158309,0.017433407,inf,inf,inf,inf,1,1,1,1,2,1,2,3,0,0,0
215435869,0,0.0,0.0,0.0284196,0.4702198,-0.03525072,0.011355724,0.46770203,2.096495,-0.00096942123,0.0006154003,-0.0005134739,-0.00019187067,-0.018294713,-0.005836704,0.0,0.82382876,1.3723882,0.32125404,-3.065311,0.0,0.1,0.0005134739,0.005388134,0.003703237,0.026391344,0.01757288,inf,inf,inf,inf,1,1,1,1,2,1,2,3,0,0,0
215539876,0,0.0,0.0,0.028346093,0.47021592,-0.035259526,0.011355724,0.46770203,2.096495,-0.0019513929,0.0014975279,-0.0010501331,-0.00074021093,-0.018294713,-0.005836704,0.0,0.42036054,2.0353458,0.2257786,-3.0651267,0.0,0.1,0.0010501331,0.0050943587,0.003511595,0.0256445,0.017125724,inf,inf,inf,inf,1,1,1,1,2,1,2,3,0,0,0
215643915,0,0.0,0.0,0.028271561,0.47030264,-0.035228714,0.011355724,0.46770203,2.096495,-0.0019130056,0.00073244446,-0.00010750123,0.00018921283,-0.018294713,-0.005836704,0.0,0.21399839,1.4172311,0.6252735,-3.0653157,0.0,0.1,0.00010750123,0.0051941895,0.003576336,0.025926434,0.017296243,inf,inf,inf,inf,1,1,1,1,2,1,2,3,0,0,0
215747870,0,0.0,0.0,0.028172344,0.4705413,-0.035167832,0.011355724,0.46770203,2.096495,-0.0043051727,-0.0018899135,-0.0015113831,-0.0012256376,-0.018294713,-0.005836704,0.0,-0.30116582,0.632537,0.19295189,-3.0648668,0.0,0.1,0.0015113831,0.005252362,0.0036152895,0.026007988,0.017346492,inf,inf,inf,inf,1,1,1,1,2,1,2,3,0,0,0
215843881,0,0.0,0.0,0.0281461,0.4708363,-0.03514345,0.011355724,0.46770203,2.096495,-0.0014529678,6.34948e-05,0.00060834625,0.00087528565,-0.018294713,-0.005836704,0.0,0.74558514,-0.3329164,0.029520582,-3.0651383,0.0,0.1,-0.00060834625,0.0051963083,0.0035781632,0.025912592,0.01728714,inf,inf,inf,inf,1,1,1,1,2,1,2,3,0,0,0
215947070,0,0.0,0.0,0.028292617,0.47125742,-0.035213634,0.011355724,0.46770203,2.096495,-0.0016633678,0.0009551371,0.0014837531,0.0016976512,-0.018294713,-0.005836704,0.0,0.3964214,-0.6126706,0.67260945,-3.065058,0.0,0.1,-0.0014837531,0.005272611,0.0036280444,0.026102755,0.017401487,inf,inf,inf,inf,1,1,1,1,2,1,2,3,0,0,0
216051076,0,0.0,0.0,0.028509285,0.47177094,-0.03541132,0.011355724,0.46770203,2.096495,-0.0018115612,0.001195439,-0.00060788315,-0.00045423702,-0.018294713,-0.005836704,0.0,0.4051262,0.10022825,0.25195697,-3.0643754,0.0,0.1,0.00060788315,0.0053120465,0.0036539105,0.026141541,0.017418703,inf,inf,inf,inf,1,1,1,1,2,1,2,3,0,0,0
216147078,0,0.0,0.0,0.028709713,0.4722092,-0.0356454,0.011355724,0.46770203,2.096495,0.001281519,0.001520374,-0.0007259468,-0.0006224374,-0.018294713,-0.005836704,0.0,0.9289956,-1.7379482,-0.04532856,-3.0648437,0.0,0.10014786,0.0007259468,0.005231635,0.0036016998,0.025967835,0.017319456,inf,inf,inf,inf,1,1,1,1,2,1,2,3,0,0,0
216251070,0,0.0,0.0,0.028996676,0.4724757,-0.035851423,0.011355724,0.46770203,2.096495,0.00043098495,0.00019023618,-0.0009412953,-0.0008333392,-0.018294713,-0.005836704,0.0,0.5829826,-0.4595113,0.41083443,-3.0651133,0.0,0.10023132,0.0009412953,0.00528587,0.0036371262,0.026107822,0.01740423,inf,inf,inf,inf,1,1,1,1,2,1,2,3,0,0,0
216355088,0,0.0,0.0,0.029272804,0.47264045,-0.036040653,0.011355724,0.46770203,2.096495,0.00079041393,-0.0042305756,-0.0027781283,-0.0026156788,-0.018294713,-0.005836704,0.0,0.20207189,-0.87030554,-0.307127,-3.0650835,0.0,0.100424245,0.0027781283,0.005381723,0.0036984829,0.026419,0.017590715,inf,inf,inf,inf,1,1,1,1,2,1,2,3,0,0,0
216459070,0,0.0,0.0,0.029503688,0.47272453,-0.036176972,0.011355724,0.46770203,2.096495,-0.0017560252,-0.0035944658,-0.0032008009,-0.0029520243,-0.018294713,-0.005836704,0.0,-0.94997555,-1.5508388,0.061876748,-3.0650988,0.0,0.100542836,0.0032008009,0.005476929,0.0037602899,0.026649328,0.017729703,inf,inf,inf,inf,1,1,1,1,2,1,2,3,0,0,0
216563105,0,0.0,0.0,0.029664675,0.47262648,-0.03626224,0.011355724,0.46770203,2.096495,-0.0010152403,0.000114152805,-0.0025395504,-0.0021573203,-0.018294713,-0.005836704,0.0,-0.03132477,-0.2115233,0.0977991,-3.0650952,0.0,0.100734085,0.0025395504,0.0051731006,0.0035630648,0.025842102,0.017246114,inf,inf,inf,inf,1,1,1,1,2,1,2,3,0,0,0
216666271,0,0.0,0.0,0.029639678,0.47229955,-0.036291253,0.011355724,0.46770203,2.096495,-0.0013947526,-0.0015096886,-0.0026320121,-0.0021330493,-0.018294713,-0.005836704,0.0,0.080181904,-0.7014363,0.124694705,-3.065175,0.0,0.100728646,0.0026320121,0.005248493,0.0036121714,0.026047667,0.01736968,inf,inf,inf,inf,1,1,1,1,2,1,2,3,0,0,0
216770270,0,0.0,0.0,0.029596996,0.471942,-0.036269173,0.011355724,0.46770203,2.096495,-0.0014325583,0.0005604748,-0.0011810181,-0.00058402243,-0.018294713,-0.005836704,0.0,-0.2621901,0.48646417,0.570173,-3.0653434,0.0,0.10068958,0.0011810181,0.005321998,0.0036599864,0.026235152,0.01748138,inf,inf,inf,inf,1,1,1,1,2,1,2,3,0,0,0
216866292,0,0.0,0.0,0.029604996,0.47158152,-0.03610734,0.011355724,0.46770203,2.096495,-0.0025075595,-0.0048260875,-0.0018271463,-0.0011526913,-0.018294713,-0.005836704,0.0,-0.1911242,-1.0196142,-1.117715,-3.0653145,0.0,0.10049639,0.0018271463,0.0052487054,0.0036123442,0.026045138,0.017368544,inf,inf,inf,inf,1,1,1,1,2,1,2,3,0,0,0
216970270,0,0.0,0.0,0.029650567,0.4711991,-0.035912186,0.011355724,0.46770203,2.096495,-2.0379415e-05,-0.0048659556,-0.002932273,-0.0021875459,-0.018294713,-0.005836704,0.0,0.10558086,-0.7780099,-1.19923,-3.0652747,0.0,0.10036378,0.002932273,0.005329962,0.0036653671,0.026251297,0.017491981,inf,inf,inf,inf,1,1,1,1,2,1,2,3,0,0,0
217074270,0,0.0,0.0,0.029693551,0.4708969,-0.035692926,0.011355724,0.46770203,2.096495,-0.0020862918,-0.0038843458,-0.004472926,-0.0036698114,-0.018294713,-0.005836704,0.0,-0.5285964,-0.2957482,-1.2229807,-3.0652606,0.0,0.10014452,0.004472926,0.005395914,0.0037089107,0.026385983,0.017572438,inf,inf,inf,inf,1,1,1,1,2,1,2,3,0,0,0
217170286,0,0.0,0.0,0.029702613,0.47076654,-0.035514083,0.011355724,0.46770203,2.096495,-0.0023938352,-0.00496373,0.0009831797,0.001798103,-0.018294713,-0.005836704,0.0,-0.40565422,-0.5093389,-0.060451306,-3.0649207,0.0,0.1,-0.0009831797,0.0053103273,0.0036531163,0.026180206,0.017452786,inf,inf,inf,inf,1,1,1,1,2,1,2,3,0,0,0
217273470,0,0.0,0.0,0.02967541,0.4707438,-0.035372175,0.011355724,0.46770203,2.096495,-0.002124014,-0.0012435338,-0.0027181422,-0.0019432593,-0.018294713,-0.005836704,0.0,-0.5542539,0.5156768,-1.1537048,-3.064773,0.0,0.1,0.0027181422,0.0053852797,0.0037018892,0.0263739,0.017564904,inf,inf,inf,inf,1,1,1,1,2,1,2,3,0,0,0
217377475,0,0.0,0.0,0.029658068,0.4709161,-0.035260394,0.011355724,0.46770203,2.096495,-0.0002147399,-0.0012404358,-0.0011774675,-0.00048104208,-0.018294713,-0.005836704,0.0,0.039028335,0.7928628,0.18168764,-3.065213,0.0,0.1,0.0011774675,0.0054746666,0.0037595234,0.026627887,0.017715825,inf,inf,inf,inf,1,1,1,1,2,1,2,3,0,0,0
217481478,0,0.0,0.0,0.029585352,0.47112632,-0.035177864,0.011355724,0.46770203,2.096495,-0.00015819845,0.0025124028,-0.00016002622,0.0004325234,-0.018294713,-0.005836704,0.0,0.5996391,1.3216282,0.5302902,-3.0651789,0.0,0.1,0.00016002622,0.005142666,0.0035441155,0.025740523,0.017187754,inf,inf,inf,inf,1,1,1,1,2,1,2,3,0,0,0
217585470,0,0.0,0.0,0.029549487,0.47129053,-0.035201214,0.011355724,0.46770203,2.096495,-0.0038597684,-0.0014610155,0.00018074243,0.00065062876,-0.018294713,-0.005836704,0.0,-1.6494669,-0.27985123,0.09991611,-3.06514,0.0,0.1,-0.00018074243,0.0052382834,0.003605278,0.02604134,0.017366452,inf,inf,inf,inf,1,1,1,1,2,1,2,3,0,0,0
217681534,0,0.0,0.0,0.02956495,0.47143415,-0.035324533,0.011355724,0.46770203,2.096495,0.0028085206,0.00077360176,-0.0010814006,-0.000721277,-0.018294713,-0.005836704,0.0,0.80443704,0.6246844,0.5709673,-3.0652752,0.0,0.1,0.0010814006,0.0051443903,0.0035449844,0.025735114,0.017182063,inf,inf,inf,inf,1,1,1,1,2,1,2,3,0,0,0
217785485,0,0.0,0.0,0.029708337,0.47155234,-0.0354656,0.011355724,0.46770203,2.096495,0.002373643,0.0007686597,0.0029957162,0.0033048366,-0.018294713,-0.005836704,0.0,0.9555378,1.0386584,1.2648864,-3.06519,0.0,0.1,-0.0029957162,0.005216874,0.003591863,0.025960917,0.017317748,inf,inf,inf,inf,1,1,1,1,2,1,2,3,0,0,0
217889494,0,0.0,0.0,0.030013653,0.47173584,-0.035599038,0.011355724,0.46770203,2.096495,0.005465473,0.001446447,0.004811242,0.0050851614,-0.018294713,-0.005836704,0.0,0.8687579,1.65699,2.1048539,-3.0653348,0.0,0.100050636,-0.004811242,0.005300376,0.0036459833,0.026190845,0.017457278,inf,inf,inf,inf,1,1,1,1,2,1,2,3,0,0,0
217988670,0,0.0,0.0,0.030257307,0.47193125,-0.035856172,0.011355724,0.46770203,2.096495,-0.0019681323,0.009124305,0.005179376,0.0053892145,-0.018294713,-0.005836704,0.0,-2.0733595,3.14467,3.586227,-3.0664387,0.0,0.10030777,-0.005179376,0.005216825,0.0035920548,0.025934577,0.017304866,inf,inf,inf,inf,1,1,1,1,2,1,2,3,0,0,0
218092682,0,0.0,0.0,0.030650578,0.47211355,-0.036298737,0.011355724,0.46770203,2.096495,0.00034785914,0.00935986,-0.004730725,-0.004595209,-0.018294713,-0.005836704,0.0,-2.0604298,4.272593,3.8435833,-3.0656564,0.0,0.100750335,0.004730725,0.0053304997,0.0036652046,0.026275437,0.017512782,inf,inf,inf,inf,1,1,1,1,2,1,2,3,0,0,0
218188711,0,0.0,0.0,0.030938353,0.47182882,-0.036772348,0.011355724,0.46770203,2.096495,0.0043503577,-0.008902292,-0.016249651,-0.016234733,-0.018294713,-0.005836704,0.0,-0.46248937,1.0345317,-0.83173496,-3.0653656,0.0,0.101223946,0.016249651,0.005335958,0.0036693648,0.026472049,0.017637013,inf,inf,inf,inf,1,1,1,1,2,1,2,3,0,0,0
218292705,0,0.0,0.0,0.031249829,0.4713666,-0.037614644,0.011355724,0.46770203,2.096495,0.0013660629,-0.004845282,-0.0038955933,-0.0039644935,-0.018294713,-0.005836704,0.0,0.96874976,-2.1156857,-0.47060654,-3.0663936,0.0,0.10206624,0.0038955933,0.005383058,0.0037008033,0.026478063,0.017641768,inf,inf,inf,inf,1,1,1,1,2,1,2,3,0,0,0
218396670,0,0.0,0.0,0.03133451,0.47020596,-0.038506433,0.011355724,0.46770203,2.096495,0.0068016304,-0.0060691223,-0.012651941,-0.012746293,-0.018294713,-0.005836704,0.0,0.25545636,4.964879,1.191066,-3.0654545,0.0,0.10295803,0.012651941,0.005443641,0.0037408012,0.026565755,0.017685657,inf,inf,inf,inf,1,1,1,1,2,1,2,3,0,0,0
218492670,0,0.0,0.0,0.031545594,0.46952096,-0.039637428,0.011355724,0.46770203,2.096495,0.0019183821,-0.0041546025,-0.0071719526,-0.0071911234,-0.018294713,-0.005836704,0.0,-0.01241884,-2.5541017,1.4806405,-3.0655007,0.0,0.10408902,0.0071719526,0.0053648814,0.0036893396,0.026338663,0.017552216,inf,inf,inf,inf,1,1,1,1,2,1,2,3,0,0,0
218596670,0,0.0,0.0,0.031183394,0.46824375,-0.04041777,0.011355724,0.46770203,2.096495,0.0035048684,-0.008416504,-0.021427805,-0.021270424,-0.018294713,-0.005836704,0.0,-0.48475882,-0.6025017,-1.8317667,-3.066228,0.0,0.104869366,0.021427805,0.005448369,0.003743167,0.026568957,0.01767626,inf,inf,inf,inf,1,1,1,1,2,1,2,3,0,0,0
218699870,0,0.0,0.0,0.03049116,0.4672462,-0.04103016,0.011355724,0.46770203,2.096495,0.0045952294,0.0026657316,-0.022969931,-0.022485353,-0.018294713,-0.005836704,0.0,-0.7039793,2.1955662,-4.392441,-3.0660834,0.0,0.10548176,0.022969931,0.0051287957,0.0035350486,0.025697704,0.01716507,inf,inf,inf,inf,1,1,1,1,2,1,2,3,0,0,0
218803870,0,0.0,0.0,0.030196266,0.46666366,-0.041808683,0.011355724,0.46770203,2.096495,-0.0013961379,-0.010657686,-0.018054329,-0.017167808,-0.018294713,-0.005836704,0.0,-1.9461184,2.1362915,0.13520563,-3.0657432,0.0,0.106260285,0.018054329,0.0051906337,0.0035751949,0.025867905,0.017265096,inf,inf,inf,inf,1,1,1,1,2,1,2,3,0,0,0
218907876,0,0.0,0.0,0.029336447,0.46557495,-0.04198253,0.011355724,0.46770203,2.096495,-0.009957574,0.00046576618,0.004936398,0.006172417,-0.018294713,-0.005836704,0.0,-1.4521664,8.217317,5.2979136,-3.0655875,0.0,0.10643413,-0.004936398,0.0052446104,0.0036100177,0.026014175,0.017346203,inf,inf,inf,inf,1,1,1,1,2,1,2,3,0,0,0
219003915,0,0.0,0.0,0.028829401,0.46482715,-0.042301234,0.011355724,0.46770203,2.096495,-0.0016114168,-0.021788264,-0.014263193,-0.0127125885,-0.018294713,-0.005836704,0.0,-0.29590195,5.5443516,2.7297113,-3.0660715,0.0,0.10675283,0.014263193,0.0051590027,0.0035543742,0.025791576,0.017205318,inf,inf,inf,inf,1,1,1,1,2,1,2,3,0,0,0
219107878,0,0.0,0.0,0.028366214,0.4646837,-0.04291135,0.011355724,0.46770203,2.096495,0.0022981672,-0.014268268,-0.0038909437,-0.0020669235,-0.018294713,-0.005836704,0.0,1.391813,-2.3641465,-0.3075879,-3.0669794,0.0,0.10736295,0.0038909437,0.005252722,0.0036147716,0.026068227,0.017385961,inf,inf,inf,inf,1,1,1,1,2,1,2,3,0,0,0
219211870,0,0.0,0.0,0.028146895,0.46381524,-0.043629486,0.011355724,0.46770203,2.096495,-0.00011304454,-0.032693494,-0.020142596,-0.018238394,-0.018294713,-0.005836704,0.0,0.3574475,1.8860996,-0.56842875,-3.0663419,0.0,0.10808109,0.020142596,0.005318662,0.003657914,0.026230628,0.017478034,inf,inf,inf,inf,1,1,1,1,2,1,2,3,0,0,0
219307869,0,0.0,0.0,0.02855684,0.46417484,-0.045209464,0.011355724,0.46770203,2.096495,0.0052044624,-0.008041387,-0.031175125,-0.029321507,-0.018294713,-0.005836704,0.0,2.6710372,5.985057,-2.3423507,-3.0667517,0.0,0.10966106,0.031175125,0.0052432492,0.003608946,0.026018571,0.017360259,inf,inf,inf,inf,1,1,1,1,2,1,2,3,0,0,0
219411070,0,0.0,0.0,0.03017735,0.46514672,-0.04822602,0.011355724,0.46770203,2.096495,-0.00022342321,-0.03907695,-0.03069699,-0.029136721,-0.018294713,-0.005836704,0.0,-2.9096527,-8.997608,1.9429171,-3.0697072,0.0,0.11267762,0.03069699,0.0053278073,0.0036638712,0.026271502,0.017499577,inf,inf,inf,inf,1,1,1,1,2,1,2,3,0,0,0
219515082,0,0.0,0.0,0.031012055,0.4656218,-0.051302925,0.011355724,0.46770203,2.096495,-0.007973719,-0.010474044,-0.033744402,-0.03270875,-0.018294713,-0.005836704,0.0,-7.6407833,-1.2670919,-1.7870868,-3.065768,0.0,0.11575452,0.033744402,0.00538625,0.0037018538,0.026409242,0.017581996,inf,inf,inf,inf,1,1,1,1,2,1,2,3,0,0,0
219619104,0,0.0,0.0,0.029183686,0.46642956,-0.05238152,0.011355724,0.46770203,2.096495,-0.036504105,-0.01857545,0.011132037,0.011811726,-0.018294713,-0.005836704,0.0,1.1743679,3.8435638,1.2820307,-3.0698867,0.0,0.11683312,-0.011132037,0.005467339,0.0037542998,0.026623128,0.017717298,inf,inf,inf,inf,1,1,1,1,2,1,2,3,0,0,0
219715070,0,0.0,0.0,0.025812611,0.4658836,-0.052339002,0.011355724,0.46770203,2.096495,-0.015682587,-0.026676776,-0.009938523,-0.0088931825,-0.018294713,-0.005836704,0.0,0.66457665,6.146495,-2.240219,-3.0709848,0.0,0.1167906,0.009938523,0.0053981366,0.0037106755,0.026452998,0.017670766,inf,inf,inf,inf,1,1,1,1,2,1,2,3,0,0,0
219819071,0,0.0,0.0,0.021713035,0.4638681,-0.051702876,0.011355724,0.46770203,2.096495,-0.024872523,-0.049910918,0.008402091,0.010447592,-0.018294713,-0.005836704,0.0,4.9751587,-0.3616365,3.044908,-3.0693994,0.0,0.11615448,-0.008402091,0.005482686,0.0037693114,0.026626522,0.01780629,inf,inf,inf,inf,1,1,1,1,2,1,2,3,0,0,0
219923110,0,0.0,0.0,0.017151628,0.46166906,-0.04989424,0.011355724,0.46770203,2.096495,-0.036451627,-0.01803025,0.009125555,0.012088435,-0.018294713,-0.005836704,0.0,1.69304,0.80977947,-1.7340409,-3.0676768,0.0,0.11434583,-0.009125555,0.0051587466,0.0035601207,0.02577424,0.017310353,inf,inf,inf,inf,1,1,1,1,2,1,2,3,0,0,0
220027111,0,0.0,0.0,0.01373604,0.45962393,-0.04774417,0.011355724,0.46770203,2.096495,-0.023962578,-0.042887814,-0.00850473,-0.0048534526,-0.018294713,-0.005836704,0.0,-0.34314153,2.104427,-2.20471,-3.0691266,0.0,0.11219577,0.00850473,0.0052513434,0.00362158,0.026052032,0.017469494,inf,inf,inf,inf,1,1,1,1,2,1,2,3,0,0,0
220130307,0,0.0,0.0,0.014295391,0.4588864,-0.04894526,0.011355724,0.46770203,2.096495,-0.013138539,-0.025996385,-0.0363907,-0.03243182,-0.018294713,-0.005836704,0.0,-1.0874393,-4.799735,1.1369146,-3.0667765,0.0,0.11339685,0.0363907,0.005296129,0.0036524632,0.026107654,0.017490739,inf,inf,inf,inf,1,1,1,1,2,1,2,3,0,0,0
220227083,0,0.0,0.0,0.01742957,0.46000862,-0.052413374,0.011355724,0.46770203,2.096495,0.011678801,-0.027514083,-0.04020237,-0.03693586,-0.018294713,-0.005836704,0.0,1.8191425,-1.9698333,1.3879685,-3.065799,0.0,0.11686497,0.04020237,0.0052473345,0.0036180904,0.026080547,0.017417898,inf,inf,inf,inf,1,1,1,1,2,1,2,3,0,0,0
220330269,0,0.0,0.0,0.02419982,0.4647965,-0.05869506,0.011355724,0.46770203,2.096495,0.032043748,0.011296433,-0.065830044,-0.06417051,-0.018294713,-0.005836704,0.0,-2.7501342,-8.8847065,-0.59140646,-3.0697093,0.0,0.12314665,0.065830044,0.0052856235,0.0036406587,0.02614302,0.017431187,inf,inf,inf,inf,1,1,1,1,2,1,2,3,0,0,0
220434302,0,0.0,0.0,0.03415281,0.47274965,-0.06783876,0.011355724,0.46770203,2.096495,0.10030069,0.057618465,-0.07928999,-0.07944048,-0.018294713,-0.005836704,0.0,2.7924364,1.4856936,-0.23559488,-3.0823884,0.0,0.13229036,0.07928999,0.005361214,0.0036877966,0.026376685,0.017557517,inf,inf,inf,inf,1,1,1,1,2,1,2,3,0,0,0
220530279,0,0.0,0.0,0.047251046,0.48220152,-0.07602691,0.011355724,0.46770203,2.096495,0.13191403,0.058265768,-0.058507714,-0.060082976,-0.018294713,-0.005836704,0.0,-2.595024,4.4786816,-1.225895,-3.0987744,0.0,0.1404785,0.058507714,0.0052805613,0.0036341764,0.026162172,0.01744924,inf,inf,inf,inf,1,1,1,1,2,1,2,3,0,0,0
220634272,0,0.0,0.0,0.06748946,0.49433142,-0.08118356,0.011355724,0.46770203,2.096495,0.2124546,0.10230579,-0.013730745,-0.015950106,-0.018294713,-0.005836704,0.0,2.2319255,8.183586,0.29697865,-3.1119237,0.0,0.14563516,0.013730745,0.005380041,0.0036982168,0.026448112,0.017610533,inf,inf,inf,inf,1,1,1,1,2,1,2,3,0,0,0
220738270,0,0.0,0.0,0.096541926,0.5094812,-0.07952906,0.011355724,0.46770203,2.096495,0.30106807,0.13645114,0.035367552,0.034366757,-0.018294713,-0.005836704,0.0,2.8927424,5.8959846,0.7741301,-3.1183507,0.0,0.14398065,-0.035367552,0.00509084,0.0035114053,0.02560222,0.017156655,inf,inf,inf,inf,1,1,1,1,2,1,2,3,0,0,0
220834276,0,0.0,0.0,0.13164273,0.52617675,-0.07200327,0.011355724,0.46770203,2.096495,0.3456762,0.13290009,0.06942124,0.07145194,-0.018294713,-0.005836704,0.0,1.0130342,-1.3936976,-2.1440713,-3.1176097,0.0,0.13645487,-0.06942124,0.0053854664,0.0037059102,0.026358362,0.017611364,inf,inf,inf,inf,1,1,1,1,2,1,2,3,0,0,0
220937474,0,0.0,0.0,0.17595164,0.54714686,-0.060885016,0.011355724,0.46770203,2.096495,0.37543923,0.16286275,0.0455,0.052085746,-0.018294713,-0.005836704,0.0,1.8242891,3.818057,-2.7057216,-3.1199114,0.0,0.12533662,-0.0455,0.0050886585,0.0035130614,0.025582122,0.017130792,inf,inf,inf,inf,1,1,1,1,2,1,2,3,0,0,0
221041497,0,0.0,0.0,0.22404742,0.568479,-0.054725792,0.011355724,0.46770203,2.096495,0.38304108,0.16181709,-0.032746386,-0.022371393,-0.018294713,-0.005836704,0.0,-3.2345517,0.70091873,0.6043854,-3.1294935,0.0,0.119177386,0.032746386,0.005171971,0.0035672481,0.02583718,0.01727603,inf,inf,inf,inf,1,1,1,1,2,1,2,3,0,0,0
221145514,0,0.0,0.0,0.27405185,0.58616436,-0.053639833,0.011355724,0.46770203,2.096495,0.4072439,0.15682575,-0.00997864,0.00090091047,-0.018294713,-0.005836704,0.0,-4.813715,3.8560045,3.9234316,3.1360395,0.0,0.118091434,0.00997864,0.0052317604,0.003605094,0.026057677,0.017362015,inf,inf,inf,inf,1,1,1,1,2,1,2,3,0,0,0
221249470,0,0.0,0.0,0.3250282,0.6031573,-0.054887332,0.011355724,0.46770203,2.096495,0.46151325,0.14286663,-0.029177211,-0.021083008,-0.018294713,-0.005836704,0.0,1.6199801,-2.1154184,-2.1106339,3.119965,0.0,0.11933893,0.029177211,0.0053147916,0.0036541338,0.026366863,0.017487263,inf,inf,inf,inf,1,1,1,1,2,1,2,3,0,0,0
221345477,0,0.0,0.0,0.37263614,0.61721843,-0.059024576,0.011355724,0.46770203,2.096495,0.4779214,0.14365843,-0.040538374,-0.035599675,-0.018294713,-0.005836704,0.0,-3.0667338,0.52470684,1.6227081,3.1106193,0.0,0.12347618,0.040538374,0.0052659344,0.0036193526,0.026253292,0.01741178,inf,inf,inf,inf,1,1,1,1,2,1,2,3,0,0,0
221449470,0,0.0,0.0,0.42439616,0.6313493,-0.06627024,0.011355724,0.46770203,2.096495,0.5119306,0.14358816,-0.05847938,-0.056294814,-0.018294713,-0.005836704,0.0,-0.78966063,1.2468927,0.15254398,3.1066597,0.0,0.13072184,0.05847938,0.005347603,0.003670406,0.026429081,0.017518155,inf,inf,inf,inf,1,1,1,1,2,1,2,3,0,0,0
221553470,0,0.0,0.0,0.47686183,0.6448503,-0.07480403,0.011355724,0.46770203,2.096495,0.5372794,0.12586284,-0.07154201,-0.07113908,-0.018294713,-0.005836704,0.0,-0.66049194,-4.2369723,-1.4595762,3.1043608,0.0,0.13925563,0.07154201,0.005382605,0.003692138,0.026486186,0.017528713,inf,inf,inf,inf,1,1,1,1,2,1,2,3,0,0,0
221649478,0,0.0,0.0,0.5270801,0.65730196,-0.08356536,0.011355724,0.46770203,2.096495,0.56291825,0.14994527,-0.07944025,-0.0799092,-0.018294713,-0.005836704,0.0,2.1664674,3.0218654,-1.0264479,3.104341,0.0,0.14801696,0.07944025,0.0053296965,0.0036547743,0.026437892,0.017480098,inf,inf,inf,inf,1,1,1,1,2,1,2,3,0,0,0
221752670,0,0.0,0.0,0.5813131,0.67127776,-0.09281469,0.011355724,0.46770203,2.096495,0.54608494,0.14336143,-0.06034638,-0.06104857,-0.018294713,-0.005836704,0.0,-0.4967053,-6.0068946,4.172241,3.0998487,0.0,0.15726629,0.06034638,0.0053578024,0.0036725397,0.02643726,0.017476868,inf,inf,inf,inf,1,1,1,1,2,1,2,3,0,0,0
221856670,0,0.0,0.0,0.6331683,0.68445927,-0.099801004,0.011355724,0.46770203,2.096495,0.53783095,0.1463433,-0.066013776,-0.06623252,-0.018294713,-0.005836704,0.0,4.171225,2.2789676,-2.5380197,3.0959454,0.0,0.16425261,0.066013776,0.0054244287,0.003713812,0.026651729,0.017595932,inf,inf,inf,inf,1,1,1,1,2,1,2,3,0,0,0
221960681,0,0.0,0.0,0.6819214,0.6984347,-0.103896335,0.011355724,0.46770203,2.096495,0.5011851,0.15494995,-0.040389773,-0.039307803,-0.018294713,-0.005836704,0.0,-0.35994083,-3.192925,2.0195272,3.093545,0.0,0.16834792,0.040389773,0.005149414,0.0035362423,0.025938919,0.017205711,inf,inf,inf,inf,1,1,1,1,2,1,2,3,0,0,0
222064670,0,0.0,0.0,0.72681355,0.7122597,-0.10544295,0.011355724,0.46770203,2.096495,0.4558171,0.12323527,-0.031700946,-0.02863735,-0.018294713,-0.005836704,0.0,2.5124903,-1.033699,-2.724749,3.086266,0.0,0.16989455,0.031700946,0.005229686,0.0035893787,0.02613761,0.017328266,inf,inf,inf,inf,1,1,1,1,2,1,2,3,0,0,0
222160671,0,0.0,0.0,0.76339877,0.72317797,-0.1045405,0.011355724,0.46770203,2.096495,0.4006101,0.11121383,-0.010335046,-0.0052367775,-0.018294713,-0.005836704,0.0,0.0065945187,2.3530512,-2.4170508,3.0754495,0.0,0.1689921,0.010335046,0.005147085,0.0035377566,0.025866978,0.017185934,inf,inf,inf,inf,1,1,1,1,2,1,2,3,0,0,0
222264686,0,0.0,0.0,0.7972069,0.7330466,-0.10077133,0.011355724,0.46770203,2.096495,0.34122103,0.0893022,0.012052684,0.01923122,-0.018294713,-0.005836704,0.0,-2.59745,0.12927672,-1.4729321,3.0624213,0.0,0.16522293,-0.012052684,0.005223037,0.003587752,0.02605431,0.01730486,inf,inf,inf,inf,1,1,1,1,2,1,2,3,0,0,0
222368687,0,0.0,0.0,0.82402295,0.7402102,-0.0944251,0.011355724,0.46770203,2.096495,0.28857884,0.072231285,0.040573165,0.049532857,-0.018294713,-0.005836704,0.0,-0.051933248,1.5577188,-0.691815,3.0487623,0.0,0.15887669,-0.040573165,0.00530984,0.0036439789,0.0263226,0.01746118,inf,inf,inf,inf,1,1,1,1,2,1,2,3,0,0,0
222471900,0,0.0,0.0,0.84238166,0.74290264,-0.08600832,0.011355724,0.46770203,2.096495,0.24336924,0.034182355,0.04984968,0.060298197,-0.018294713,-0.005836704,0.0,2.3629942,1.3576659,0.2616188,3.0337489,0.0,0.15045992,-0.04984968,0.0053654937,0.0036808518,0.026440792,0.017523171,inf,inf,inf,inf,1,1,1,1,2,1,2,3,0,0,0
222568670,0,0.0,0.0,0.85264003,0.7423273,-0.07737158,0.011355724,0.46770203,2.096495,0.1834603,-0.0019439845,0.06011908,0.07157764,-0.018294713,-0.005836704,0.0,-1.8645506,-0.67420644,1.147147,3.0178847,0.0,0.14182317,-0.06011908,0.0052866493,0.0036290584,0.02628032,0.017407324,inf,inf,inf,inf,1,1,1,1,2,1,2,3,0,0,0
222667886,0,0.0,0.0,0.85704887,0.736603,-0.06844481,0.011355724,0.46770203,2.096495,0.13058488,-0.047281694,0.059671246,0.0715042,-0.018294713,-0.005836704,0.0,-3.5669055,1.5676485,0.10780833,3.003923,0.0,0.13289641,-0.059671246,0.0052316324,0.003590822,0.026212472,0.01733386,inf,inf,inf,inf,1,1,1,1,2,1,2,3,0,0,0
222771887,0,0.0,0.0,0.8551258,0.72582024,-0.059897017,0.011355724,0.46770203,2.096495,0.066178136,-0.08884682,0.04860819,0.059989594,-0.018294713,-0.005836704,0.0,-1.5474561,2.7683883,-0.86865133,2.9946954,0.0,0.12434861,-0.04860819,0.005409381,0.0037029195,0.026927639,0.017756635,inf,inf,inf,inf,1,1,1,1,2,1,2,3,0,0,0
222875922,0,0.0,0.0,0.84794974,0.711962,-0.053809937,0.011355724,0.46770203,2.096495,0.012630196,-0.121234156,0.037033852,0.047010336,-0.018294713,-0.005836704,0.0,1.9555115,-0.4441654,-1.6282228,3.0004826,0.0,0.11826153,-0.037033852,0.0054784776,0.0037454402,0.027057894,0.017788552,inf,inf,inf,inf,1,1,1,1,2,1,2,3,0,0,0
222979901,0,0.0,0.0,0.8373507,0.69603693,-0.05227862,0.011355724,0.46770203,2.096495,-0.048689988,-0.14135696,-0.006751355,0.00096252025,-0.018294713,-0.005836704,0.0,2.8516943,-1.9314549,0.18481816,3.0162468,0.0,0.11673021,0.006751355,0.0055455444,0.0037852211,0.027205491,0.017821139,inf,inf,inf,inf,1,1,1,1,2,1,2,3,0,0,0
223075870,0,0.0,0.0,0.8259238,0.6805303,-0.0562776,0.011355724,0.46770203,2.096495,-0.1110793,-0.13594072,-0.038417358,-0.033611543,-0.018294713,-0.005836704,0.0,-3.8061244,-0.10853174,0.9018946,3.0369678,0.0,0.12072919,0.038417358,0.0054544164,0.0037234728,0.026996335,0.017654188,inf,inf,inf,inf,1,1,1,1,2,1,2,3,0,0,0
223178303,0,0.0,0.0,0.8117401,0.66521996,-0.06373906,0.011355724,0.46770203,2.096495,-0.17573601,-0.13986024,-0.052610174,-0.051711522,-0.018294713,-0.005836704,0.0,-4.101718,1.3895204,-1.9719563,3.069205,0.0,0.12819067,0.052610174,0.005535766,0.0037717815,0.027171152,0.01775609,inf,inf,inf,inf,1,1,1,1,2,1,2,3,0,0,0
223280670,0,0.0,0.0,0.79495263,0.6516312,-0.07516067,0.011355724,0.46770203,2.096495,-0.20648475,-0.11636838,-0.09630778,-0.0991072,-0.018294713,-0.005836704,0.0,-1.6770246,2.5356276,1.1614707,3.1096728,0.0,0.13961226,0.09630778,0.0052139745,0.0035668663,0.026230013,0.017272186,inf,inf,inf,inf,1,1,1,1,2,1,2,3,0,0,0
223379070,0,0.0,0.0,0.77482396,0.6415902,-0.08993332,0.011355724,0.46770203,2.096495,-0.26239645,-0.10315265,-0.12477965,-0.13012326,-0.018294713,-0.005836704,0.0,3.1022449,-3.4495118,0.2891987,-3.1341565,0.0,0.15438491,0.12477965,0.005454598,0.0037248775,0.026656922,0.01760342,inf,inf,inf,inf,1,1,1,1,2,1,2,3,0,0,0
223483076,0,0.0,0.0,0.74780595,0.6331411,-0.109622285,0.011355724,0.46770203,2.096495,-0.32209525,-0.10532792,-0.14795725,-0.15543096,-0.018294713,-0.005836704,0.0,-0.62183577,-6.7118783,2.3122284,-3.0975392,0.0,0.17407387,0.14795725,0.005114292,0.0035121934,0.025693206,0.017081125,inf,inf,inf,inf,1,1,1,1,2,1,2,3,0,0,0
223587070,0,0.0,0.0,0.71448976,0.62750757,-0.13167211,0.011355724,0.46770203,2.096495,-0.35932422,-0.06981843,-0.18846129,-0.19756185,-0.018294713,-0.005836704,0.0,1.7320642,-0.62657136,-3.0348446,-3.0679712,0.0,0.19612372,0.18846129,0.005261577,0.0036124296,0.02627763,0.017474268,inf,inf,inf,inf,1,1,1,1,2,1,2,3,0,0,0
223683074,0,0.0,0.0,0.6781837,0.6237196,-0.15349764,0.011355724,0.46770203,2.096495,-0.4061812,-0.056668542,-0.20751536,-0.21742862,-0.018294713,-0.005836704,0.0,1.6079015,-4.262011,-3.8832285,-3.0476847,0.0,0.21794924,0.20751536,0.0051925373,0.0035713613,0.026054082,0.017345475,inf,inf,inf,inf,1,1,1,1,2,1,2,3,0,0,0
223787079,0,0.0,0.0,0.6332055,0.6227144,-0.1765926,0.011355724,0.46770203,2.096495,-0.47992426,-0.016838394,-0.19382684,-0.20368235,-0.018294713,-0.005836704,0.0,-3.4591782,6.3815837,2.1264691,-3.0316434,0.0,0.2410442,0.19382684,0.005257847,0.0036157535,0.026230533,0.01739613,inf,inf,inf,inf,1,1,1,1,2,1,2,3,0,0,0
223891070,0,0.0,0.0,0.5825611,0.62388694,-0.1964951,0.011355724,0.46770203,2.096495,-0.5364326,0.017378012,-0.1565916,-0.165018,-0.018294713,-0.005836704,0.0,-0.8291485,-1.6715873,3.275031,-3.017752,0.0,0.2609467,0.1565916,0.005307379,0.0036459882,0.026408942,0.017446302,inf,inf,inf,inf,1,1,1,1,2,1,2,3,0,0,0
223994270,0,0.0,0.0,0.52631414,0.6280536,-0.21115644,0.011355724,0.46770203,2.096495,-0.57818013,0.018838871,-0.1341458,-0.13960752,-0.018294713,-0.005836704,0.0,1.5368166,-4.7265215,1.0243047,-3.0073397,0.0,0.27560803,0.1341458,0.0054017687,0.0037014761,0.026740966,0.017596856,inf,inf,inf,inf,1,1,1,1,2,1,2,3,0,0,0
224090278,0,0.0,0.0,0.46856272,0.6350724,-0.22019053,0.011355724,0.46770203,2.096495,-0.6159167,0.049928594,-0.10803547,-0.10955596,-0.018294713,-0.005836704,0.0,5.602409,-3.5359876,-2.5836458,-3.0022726,0.0,0.28464213,0.10803547,0.0053207246,0.003644508,0.026567474,0.017449807,inf,inf,inf,inf,1,1,1,1,2,1,2,3,0,0,0
224194296,0,0.0,0.0,0.4013312,0.6444372,-0.22456998,0.011355724,0.46770203,2.096495,-0.67187655,0.09271858,-0.05742552,-0.05418966,-0.018294713,-0.005836704,0.0,-4.0695376,3.2313673,4.055493,-2.9988775,0.0,0.28902158,0.05742552,0.0054140342,0.0036995625,0.026838256,0.017573329,inf,inf,inf,inf,1,1,1,1,2,1,2,3,0,0,0
224298270,0,0.0,0.0,0.33139703,0.65666276,-0.22219677,0.011355724,0.46770203,2.096495,-0.66610014,0.10498027,-0.015292067,-0.007302657,-0.018294713,-0.005836704,0.0,5.987373,-6.598738,-1.0008799,-3.0043728,0.0,0.28664836,0.015292067,0.0055154273,0.0037598892,0.027123416,0.017725358,inf,inf,inf,inf,1,1,1,1,2,1,2,3,0,0,0
224394278,0,0.0,0.0,0.26798752,0.66899174,-0.2150334,0.011355724,0.46770203,2.096495,-0.6579894,0.114608645,0.045238644,0.05734853,-0.018294713,-0.005836704,0.0,3.9945054,-5.1602597,-0.75427943,-3.0176775,0.0,0.279485,-0.045238644,0.0054424396,0.003711587,0.026916057,0.017618092,inf,inf,inf,inf,1,1,1,1,2,1,2,3,0,0,0
224498272,0,0.0,0.0,0.20299421,0.6833823,-0.2000196,0.011355724,0.46770203,2.096495,-0.61843383,0.1344788,0.104095,0.12010126,-0.018294713,-0.005836704,0.0,2.4259005,-3.2434244,-1.689205,-3.0413876,0.0,0.2644712,-0.104095,0.005529153,0.0037668997,0.027081016,0.017745223,inf,inf,inf,inf,1,1,1,1,2,1,2,3,0,0,0
224602301,0,0.0,0.0,0.1451143,0.6975665,-0.17846994,0.011355724,0.46770203,2.096495,-0.56290376,0.14399777,0.17491832,0.19423954,-0.018294713,-0.005836704,0.0,-3.4764297,-3.805788,4.324039,-3.0703042,0.0,0.24292153,-0.17491832,0.005175089,0.0035448347,0.026019525,0.017184773,inf,inf,inf,inf,1,1,1,1,2,1,2,3,0,0,0
224698282,0,0.0,0.0,0.10105933,0.70989144,-0.15373051,0.011355724,0.46770203,2.096495,-0.46194652,0.13575378,0.2011179,0.22289865,-0.018294713,-0.005836704,0.0,3.7982407,-3.2039025,-2.8945777,-3.1055028,0.0,0.21818212,-0.2011179,0.0054811644,0.0037438036,0.02678453,0.017692447,inf,inf,inf,inf,1,1,1,1,2,1,2,3,0,0,0
224801469,0,0.0,0.0,0.065948516,0.72078997,-0.12375636,0.011355724,0.46770203,2.096495,-0.3536712,0.10990693,0.2365981,0.26001057,-0.018294713,-0.005836704,0.0,2.6424725,-2.3210478,-1.7112626,3.1291897,0.0,0.18820795,-0.2365981,0.005154008,0.0035394593,0.025834035,0.017196683,inf,inf,inf,inf,1,1,1,1,2,1,2,3,0,0,0
224905524,0,0.0,0.0,0.046455238,0.72793835,-0.09309186,0.011355724,0.46770203,2.096495,-0.22371061,0.08071303,0.2544271,0.27794436,-0.018294713,-0.005836704,0.0,1.7790821,1.1452854,2.4016416,3.0669265,0.0,0.15754345,-0.2544271,0.0052002687,0.0035763916,0.02585224,0.017290806,inf,inf,inf,inf,1,1,1,1,2,1,2,3,0,0,0
225009494,0,0.0,0.0,0.04426281,0.72938967,-0.06387162,0.011355724,0.46770203,2.096495,-0.10114632,0.020820083,0.24427187,0.2661077,-0.018294713,-0.005836704,0.0,-0.20446706,0.43285793,-2.7072132,2.9990551,0.0,0.12832323,-0.24427187,0.0052846973,0.0036377786,0.026085278,0.01748225,inf,inf,inf,inf,1,1,1,1,2,1,2,3,0,0,0
225105470,0,0.0,0.0,0.056328703,0.7237398,-0.03788793,0.011355724,0.46770203,2.096495,0.0032307599,-0.04504274,0.25931597,0.2781027,-0.018294713,-0.005836704,0.0,0.57812023,0.24485782,-0.43662554,2.9539359,0.0,0.10233953,-0.25931597,0.005204279,0.0035911615,0.02591495,0.01741011,inf,inf,inf,inf,1,1,1,1,2,1,2,3,0,0,0
225209473,0,0.0,0.0,0.08223398,0.71041465,-0.012851414,0.011355724,0.46770203,2.096495,0.1009688,-0.10893135,0.2286395,0.24315,-0.018294713,-0.005836704,0.0,-0.02835268,1.7109379,0.6799126,2.9290776,0.0,0.1,-0.2286395,0.005271055,0.0036390533,0.026224952,0.017562086,inf,inf,inf,inf,1,1,1,1,2,1,2,3,0,0,0
225313470,0,0.0,0.0,0.108257204,0.69405824,-0.0011872111,0.011355724,0.46770203,2.096495,0.047016013,-0.09531142,0.009125576,0.018827293,-0.018294713,-0.005836704,0.0,1.6137415,-3.3250966,-0.56870425,2.9476671,0.0,0.1,-0.009125576,0.005358696,0.0036940505,0.026702816,0.017683921,inf,inf,inf,inf,1,1,1,1,2,1,2,3,0,0,0
225412711,0,0.0,0.0,0.12850009,0.6859628,-0.011964133,0.011355724,0.46770203,2.096495,0.07041115,-0.048190925,-0.081480436,-0.07863277,-0.018294713,-0.005836704,0.0,0.96697956,-1.3107916,0.75114846,2.992238,0.0,0.1,0.081480436,0.005340005,0.0036678426,0.0270577,0.017609641,inf,inf,inf,inf,1,1,1,1,2,1,2,3,0,0,0
225516670,0,0.0,0.0,0.14259781,0.68226856,-0.03682663,0.011355724,0.46770203,2.096495,0.06160882,-0.073214225,-0.17995858,-0.18872826,-0.018294713,-0.005836704,0.0,-1.2870992,-2.2003996,-4.4702024,3.0433223,0.0,0.10127823,0.17995858,0.0050899447,0.003480648,0.0268539,0.01706759,inf,inf,inf,inf,1,1,1,1,2,1,2,3,0,0,0
225612669,0,0.0,0.0,0.15261783,0.6780248,-0.07295675,0.011355724,0.46770203,2.096495,0.11099857,-0.04823053,-0.27659705,-0.29718977,-0.018294713,-0.005836704,0.0,-0.7630314,3.8452957,0.17850171,3.0626318,0.0,0.13740835,0.27659705,0.005410621,0.0036638062,0.027553843,0.017539576,inf,inf,inf,inf,1,1,1,1,2,1,2,3,0,0,0
225716670,0,0.0,0.0,0.16498268,0.66966295,-0.12321222,0.011355724,0.46770203,2.096495,0.14698549,-0.11065291,-0.3467041,-0.37762558,-0.018294713,-0.005836704,0.0,-2.0093265,-0.96250594,0.8392999,3.052244,0.0,0.18766382,0.3467041,0.005415073,0.0036641713,0.027202865,0.017533325,inf,inf,inf,inf,1,1,1,1,2,1,2,3,0,0,0
225820670,0,0.0,0.0,0.1789937,0.6543519,-0.17707556,0.011355724,0.46770203,2.096495,0.17442411,-0.16239241,-0.38868117,-0.42600748,-0.018294713,-0.005836704,0.0,-1.0293943,-1.7416146,-3.3705244,3.0457447,0.0,0.24152717,0.38868117,0.00542171,0.0036767365,0.026959449,0.017569326,inf,inf,inf,inf,1,1,1,1,2,1,2,3,0,0,0
225916681,0,0.0,0.0,0.19354802,0.63782275,-0.22575818,0.011355724,0.46770203,2.096495,0.20542751,-0.18718156,-0.38452843,-0.42305267,-0.018294713,-0.005836704,0.0,2.4813786,0.3144281,-0.4774778,3.0545409,0.0,0.29020977,0.38452843,0.0052940054,0.0036089492,0.026409568,0.017447803,inf,inf,inf,inf,1,1,1,1,2,1,2,3,0,0,0
226020678,0,0.0,0.0,0.21039246,0.61785465,-0.2746064,0.011355724,0.46770203,2.096495,0.21277297,-0.21568161,-0.39987504,-0.43480605,-0.018294713,-0.005836704,0.0,1.0877174,1.3124368,-1.5625755,3.0814712,0.0,0.339058,0.39987504,0.0053624404,0.0036660489,0.026499651,0.017584072,inf,inf,inf,inf,1,1,1,1,2,1,2,3,0,0,0
226124670,0,0.0,0.0,0.22722615,0.5965624,-0.31579968,0.011355724,0.46770203,2.096495,0.22587171,-0.2626924,-0.3639458,-0.39167732,-0.018294713,-0.005836704,0.0,-1.0779084,-3.5684907,-0.94666445,3.1174524,0.0,0.3802513,0.3639458,0.0054054265,0.0037050913,0.0264885,0.017624468,inf,inf,inf,inf,1,1,1,1,2,1,2,3,0,0,0
226223869,0,0.0,0.0,0.24526854,0.5728852,-0.34847948,0.011355724,0.46770203,2.096495,0.26282594,-0.26428896,-0.36366817,-0.3819254,-0.018294713,-0.005836704,0.0,2.5289273,5.5171824,-2.1510246,-3.126002,0.0,0.41293108,0.36366817,0.0054319603,0.0037294042,0.026442913,0.017633911,inf,inf,inf,inf,1,1,1,1,2,1,2,3,0,0,0
226327898,0,0.0,0.0,0.26730978,0.5443679,-0.3765276,0.011355724,0.46770203,2.096495,0.26526803,-0.30574623,-0.329554,-0.33759996,-0.018294713,-0.005836704,0.0,-1.7672957,3.201415,-0.6968273,-3.0840504,0.0,0.4409792,0.329554,0.0050756396,0.003500856,0.025481492,0.017061684,inf,inf,inf,inf,1,1,1,1,2,1,2,3,0,0,0
226423898,0,0.0,0.0,0.29031023,0.51430017,-0.39739546,0.011355724,0.46770203,2.096495,0.2703452,-0.32070488,-0.27790973,-0.2776551,-0.018294713,-0.005836704,0.0,0.5773346,-5.097621,1.815451,-3.0441751,0.0,0.46184707,0.27790973,0.005355868,0.003685361,0.026247734,0.017508714,inf,inf,inf,inf,1,1,1,1,2,1,2,3,0,0,0
226527869,0,0.0,0.0,0.31656128,0.47878423,-0.4144308,0.011355724,0.46770203,2.096495,0.28254914,-0.35140613,-0.25134194,-0.24346623,-0.018294713,-0.005836704,0.0,-1.1904609,-1.2296903,-1.1483785,-3.003798,0.0,0.4788824,0.25134194,0.005425059,0.0037309255,0.02647206,0.017624779,inf,inf,inf,inf,1,1,1,1,2,1,2,3,0,0,0
226631897,0,0.0,0.0,0.3433335,0.44152734,-0.4271077,0.011355724,0.46770203,2.096495,0.3057866,-0.34795925,-0.2180064,-0.20372106,-0.018294713,-0.005836704,0.0,6.8284764,-1.1832434,-1.2207757,-2.96578,0.0,0.4915593,0.2180064,0.005119814,0.0035300578,0.025774518,0.017151194,inf,inf,inf,inf,1,1,1,1,2,1,2,3,0,0,0
226727876,0,0.0,0.0,0.3677118,0.4077675,-0.4370208,0.011355724,0.46770203,2.096495,0.26765543,-0.34564853,-0.1927071,-0.17399867,-0.018294713,-0.005836704,0.0,-4.3247695,-5.5503902,1.2966062,-2.9311984,0.0,0.5014724,0.1927071,0.0054596877,0.003746246,0.026837585,0.017705197,inf,inf,inf,inf,1,1,1,1,2,1,2,3,0,0,0
226831870,0,0.0,0.0,0.39325997,0.37359592,-0.44770327,0.011355724,0.46770203,2.096495,0.26676193,-0.2928521,-0.18125309,-0.15963997,-0.018294713,-0.005836704,0.0,-0.12650381,1.9520094,-0.4620217,-2.9017868,0.0,0.5121549,0.18125309,0.005545824,0.0037944256,0.027194865,0.017792748,inf,inf,inf,inf,1,1,1,1,2,1,2,3,0,0,0
226931072,0,0.0,0.0,0.41529772,0.34864005,-0.45786685,0.011355724,0.46770203,2.096495,0.25225502,-0.22189061,-0.16864344,-0.14617185,-0.018294713,-0.005836704,0.0,2.4603999,5.0989923,-1.7981628,-2.8830767,0.0,0.5223184,0.16864344,0.005118189,0.0035095986,0.026268793,0.017132742,inf,inf,inf,inf,1,1,1,1,2,1,2,3,0,0,0
227035082,0,0.0,0.0,0.43602523,0.33052042,-0.46850324,0.011355724,0.46770203,2.096495,0.23744896,-0.1524861,-0.13568133,-0.114054926,-0.018294713,-0.005836704,0.0,1.4516555,-2.6819887,-0.34527734,-2.8713682,0.0,0.5329548,0.13568133,0.0052383975,0.0035749646,0.026760353,0.017293666,inf,inf,inf,inf,1,1,1,1,2,1,2,3,0,0,0
227139069,0,0.0,0.0,0.45449895,0.32214683,-0.47718653,0.011355724,0.46770203,2.096495,0.24210276,-0.07122359,-0.102802776,-0.08294457,-0.018294713,-0.005836704,0.0,2.2360287,3.2657118,-0.53973246,-2.8708873,0.0,0.54163814,0.102802776,0.0054099937,0.003672123,0.027446201,0.017630441,inf,inf,inf,inf,1,1,1,1,2,1,2,3,0,0,0
227235070,0,0.0,0.0,0.46955085,0.32356495,-0.482037,0.011355724,0.46770203,2.096495,0.21744531,0.019579977,-0.05341254,-0.035017774,-0.018294713,-0.005836704,0.0,1.229427,-2.3977704,0.53991956,-2.8740249,0.0,0.5464886,0.05341254,0.0053009526,0.003598775,0.027036626,0.017367877,inf,inf,inf,inf,1,1,1,1,2,1,2,3,0,0,0
227339078,0,0.0,0.0,0.48354805,0.33549356,-0.48296142,0.011355724,0.46770203,2.096495,0.22281857,0.07767073,-0.010180791,0.0074336645,-0.018294713,-0.005836704,0.0,2.0597625,-0.881097,1.626048,-2.8807046,0.0,0.547413,0.010180791,0.005387522,0.0036476112,0.027226131,0.017475152,inf,inf,inf,inf,1,1,1,1,2,1,2,3,0,0,0
227443070,0,0.0,0.0,0.49690583,0.35748112,-0.47773695,0.011355724,0.46770203,2.096495,0.2213436,0.17541015,0.04469089,0.06240842,-0.018294713,-0.005836704,0.0,3.1700833,6.663961,-1.5615095,-2.891547,0.0,0.5421885,-0.04469089,0.005484488,0.0037058967,0.027430335,0.017629202,inf,inf,inf,inf,1,1,1,1,2,1,2,3,0,0,0
227547079,0,0.0,0.0,0.51085544,0.3893251,-0.466317,0.011355724,0.46770203,2.096495,0.22671944,0.23055926,0.10868999,0.12701045,-0.018294713,-0.005836704,0.0,5.778403,2.3178596,1.3840046,-2.903907,0.0,0.5307686,-0.10868999,0.0055373977,0.0037427747,0.02739666,0.017679472,inf,inf,inf,inf,1,1,1,1,2,1,2,3,0,0,0
227641503,0,0.0,0.0,0.5242609,0.42237595,-0.44994536,0.011355724,0.46770203,2.096495,0.23757942,0.28511247,0.15403177,0.17306182,-0.018294713,-0.005836704,0.0,3.533232,1.1602887,-0.56277335,-2.9159672,0.0,0.51439697,-0.15403177,0.0054255715,0.0036790913,0.026975622,0.017524641,inf,inf,inf,inf,1,1,1,1,2,1,2,3,0,0,0
227746270,0,0.0,0.0,0.538842,0.46075237,-0.4248387,0.011355724,0.46770203,2.096495,0.20874299,0.31085774,0.22703113,0.24668956,-0.018294713,-0.005836704,0.0,4.0872693,3.831374,-2.0495472,-2.9298112,0.0,0.4892903,-0.22703113,0.005492713,0.003728207,0.027043935,0.017656503,inf,inf,inf,inf,1,1,1,1,2,1,2,3,0,0,0
227850270,0,0.0,0.0,0.55264276,0.49646208,-0.39428934,0.011355724,0.46770203,2.096495,0.1844447,0.30750385,0.29120958,0.311305,-0.018294713,-0.005836704,0.0,5.7429047,-2.2590363,2.4982915,-2.9406738,0.0,0.45874095,-0.29120958,0.0051759053,0.0035355852,0.026113652,0.017209733,inf,inf,inf,inf,1,1,1,1,2,1,2,3,0,0,0
227946281,0,0.0,0.0,0.5639948,0.52697057,-0.3621241,0.011355724,0.46770203,2.096495,0.16382702,0.3253958,0.31162187,0.3315954,-0.018294713,-0.005836704,0.0,1.0842463,3.316358,-1.046249,-2.9481802,0.0,0.4265757,-0.31162187,0.0054698284,0.0037300896,0.026806744,0.017671583,inf,inf,inf,inf,1,1,1,1,2,1,2,3,0,0,0
228050311,0,0.0,0.0,0.5736224,0.55664206,-0.32446522,0.011355724,0.46770203,2.096495,0.117230564,0.29347754,0.35150003,0.37034187,-0.018294713,-0.005836704,0.0,5.008637,-2.9954667,-0.18757592,-2.95686,0.0,0.38891682,-0.35150003,0.005148907,0.0035323978,0.025871998,0.017186822,inf,inf,inf,inf,1,1,1,1,2,1,2,3,0,0,0
228154270,0,0.0,0.0,0.58041245,0.58038396,-0.2876425,0.011355724,0.46770203,2.096495,0.07030254,0.2589316,0.3425055,0.35893515,-0.018294713,-0.005836704,0.0,0.7563634,-5.063341,0.61603194,-2.9652236,0.0,0.3520941,-0.3425055,0.005207883,0.00357579,0.025976993,0.017286554,inf,inf,inf,inf,1,1,1,1,2,1,2,3,0,0,0
228250269,0,0.0,0.0,0.5825224,0.5979408,-0.257273,0.011355724,0.46770203,2.096495,0.043101236,0.24896614,0.30598572,0.3188146,-0.018294713,-0.005836704,0.0,3.7203178,1.8168722,-1.2075102,-2.9742622,0.0,0.3217246,-0.30598572,0.0051329024,0.0035307487,0.025786025,0.017184222,inf,inf,inf,inf,1,1,1,1,2,1,2,3,0,0,0
228352708,0,0.0,0.0,0.57967633,0.61122507,-0.23188755,0.011355724,0.46770203,2.096495,-0.013371922,0.20788561,0.25516456,0.26234296,-0.018294713,-0.005836704,0.0,2.2354257,1.2017763,0.08986503,-2.9792225,0.0,0.29633915,-0.25516456,0.005197985,0.0035751786,0.025958,0.017287435,inf,inf,inf,inf,1,1,1,1,2,1,2,3,0,0,0
228457470,0,0.0,0.0,0.5715321,0.6214304,-0.21587943,0.011355724,0.46770203,2.096495,-0.056431897,0.19365251,0.1785723,0.17834802,-0.018294713,-0.005836704,0.0,3.737946,0.069637254,-0.10925785,-2.9830093,0.0,0.28033102,-0.1785723,0.0052775485,0.0036266993,0.026226409,0.017422529,inf,inf,inf,inf,1,1,1,1,2,1,2,3,0,0,0
228561476,0,0.0,0.0,0.5585638,0.62898016,-0.21086794,0.011355724,0.46770203,2.096495,-0.091174744,0.18558952,0.10964984,0.10089614,-0.018294713,-0.005836704,0.0,5.232018,-1.063273,0.056231376,-2.9887269,0.0,0.27531955,-0.10964984,0.005308188,0.0036459975,0.026312659,0.017438158,inf,inf,inf,inf,1,1,1,1,2,1,2,3,0,0,0
228665470,0,0.0,0.0,0.54272485,0.6346022,-0.21591453,0.011355724,0.46770203,2.096495,-0.10737275,0.19014691,0.031325266,0.01378424,-0.018294713,-0.005836704,0.0,4.5291243,4.318977,-1.4190038,-2.9941397,0.0,0.28036612,-0.031325266,0.0053810724,0.003690376,0.026584778,0.01756754,inf,inf,inf,inf,1,1,1,1,2,1,2,3,0,0,0
228761472,0,0.0,0.0,0.5273551,0.6404792,-0.22807567,0.011355724,0.46770203,2.096495,-0.118738994,0.1742759,-0.031151371,-0.055839367,-0.018294713,-0.005836704,0.0,-0.61262,-6.016187,-1.8106881,-2.9980311,0.0,0.29252726,0.031151371,0.0053490335,0.0036665865,0.026553042,0.017548839,inf,inf,inf,inf,1,1,1,1,2,1,2,3,0,0,0
228865485,0,0.0,0.0,0.51246095,0.64943486,-0.2470828,0.011355724,0.46770203,2.096495,-0.10370191,0.18938844,-0.08063332,-0.111090615,-0.018294713,-0.005836704,0.0,1.6735996,-1.2765328,-2.5186844,-3.0034685,0.0,0.3115344,0.08063332,0.0051414594,0.0035300811,0.026047803,0.017253654,inf,inf,inf,inf,1,1,1,1,2,1,2,3,0,0,0
228969470,0,0.0,0.0,0.50087744,0.6623684,-0.26917118,0.011355724,0.46770203,2.096495,-0.08729422,0.20906761,-0.10862568,-0.14219634,-0.018294713,-0.005836704,0.0,-1.2477554,-2.6539555,0.92500186,-3.0091593,0.0,0.33362278,0.10862568,0.0052828887,0.0036215119,0.026369046,0.017455453,inf,inf,inf,inf,1,1,1,1,2,1,2,3,0,0,0
229073502,0,0.0,0.0,0.49418408,0.6807037,-0.2917135,0.011355724,0.46770203,2.096495,-0.036823712,0.21676852,-0.14725295,-0.18110327,-0.018294713,-0.005836704,0.0,0.89345753,-6.044172,-1.8566332,-3.0182347,0.0,0.3561651,0.14725295,0.0053621517,0.0036755332,0.026439052,0.017529847,inf,inf,inf,inf,1,1,1,1,2,1,2,3,0,0,0
229168670,0,0.0,0.0,0.49407217,0.70134455,-0.31225082,0.011355724,0.46770203,2.096495,0.014852752,0.2647449,-0.16349009,-0.19532458,-0.018294713,-0.005836704,0.0,4.1438017,1.9269403,0.25402376,-3.024407,0.0,0.37670243,0.16349009,0.005305114,0.0036407057,0.026269633,0.017455982,inf,inf,inf,inf,1,1,1,1,2,1,2,3,0,0,0
229272669,0,0.0,0.0,0.50162554,0.72802323,-0.33281517,0.011355724,0.46770203,2.096495,0.0598431,0.26806763,-0.17455868,-0.20249785,-0.018294713,-0.005836704,0.0,4.676345,0.9489927,-0.50879264,-3.034395,0.0,0.39726678,0.17455868,0.005361405,0.0036804557,0.026350122,0.017524235,inf,inf,inf,inf,1,1,1,1,2,1,2,3,0,0,0
229376689,0,0.0,0.0,0.5177834,0.7571875,-0.35163742,0.011355724,0.46770203,2.096495,0.09521929,0.26158014,-0.1689753,-0.19185789,-0.018294713,-0.005836704,0.0,2.5638661,-3.4568405,-0.012504596,-3.0464263,0.0,0.41608903,0.1689753,0.005080839,0.003499428,0.025637072,0.017116537,inf,inf,inf,inf,1,1,1,1,2,1,2,3,0,0,0
229472670,0,0.0,0.0,0.5397282,0.78165615,-0.36600816,0.011355724,0.46770203,2.096495,0.174374,0.19198485,-0.1539518,-0.17179237,-0.018294713,-0.005836704,0.0,5.997829,-0.55464077,0.24663897,-3.0606694,0.0,0.43045977,0.1539518,0.0053641214,0.003685836,0.026335876,0.017542042,inf,inf,inf,inf,1,1,1,1,2,1,2,3,0,0,0
229576670,0,0.0,0.0,0.5704075,0.8003102,-0.37642765,0.011355724,0.46770203,2.096495,0.20734872,0.12879567,-0.11410837,-0.12608424,-0.018294713,-0.005836704,0.0,1.4629043,-2.9849303,1.1727455,-3.0807755,0.0,0.44087926,0.11410837,0.0054322127,0.0037317993,0.02649202,0.017660018,inf,inf,inf,inf,1,1,1,1,2,1,2,3,0,0,0
229680676,0,0.0,0.0,0.60811967,0.81042665,-0.3822885,0.011355724,0.46770203,2.096495,0.2834434,0.018349785,-0.08645745,-0.092180535,-0.018294713,-0.005836704,0.0,3.0364738,-7.969639,-0.37676173,-3.0976646,0.0,0.4467401,0.08645745,0.0051224963,0.003532063,0.025665792,0.017194914,inf,inf,inf,inf,1,1,1,1,2,1,2,3,0,0,0
229776670,0,0.0,0.0,0.648242,0.8104408,-0.38325608,0.011355724,0.46770203,2.096495,0.33893377,-0.03052489,-0.06556325,-0.06566141,-0.018294713,-0.005836704,0.0,0.3092514,2.7284782,0.17829885,-3.1108015,0.0,0.44770768,0.06556325,0.0054190257,0.003726851,0.026452424,0.017657926,inf,inf,inf,inf,1,1,1,1,2,1,2,3,0,0,0
229883870,0,0.0,0.0,0.6964842,0.8006589,-0.38022968,0.011355724,0.46770203,2.096495,0.36654952,-0.109665774,-0.025274888,-0.019794108,-0.018294713,-0.005836704,0.0,-2.681483,2.473939,3.691862,-3.12009,0.0,0.4446813,0.025274888,0.0051545044,0.0035535821,0.02584771,0.01728657,inf,inf,inf,inf,1,1,1,1,2,1,2,3,0,0,0
229979919,0,0.0,0.0,0.7414242,0.780896,-0.3753963,0.011355724,0.46770203,2.096495,0.39163634,-0.19263503,-0.028842224,-0.019032428,-0.018294713,-0.005836704,0.0,-1.0558455,1.2394367,-1.1561123,-3.1171212,0.0,0.43984792,0.028842224,0.0050842836,0.0035076293,0.025614558,0.017125016,inf,inf,inf,inf,1,1,1,1,2,1,2,3,0,0,0
230083870,0,0.0,0.0,0.78802115,0.75028396,-0.37061462,0.011355724,0.46770203,2.096495,0.36294433,-0.20928554,-0.030069662,-0.01688624,-0.018294713,-0.005836704,0.0,-2.0323992,3.9781268,1.7876402,-3.1046429,0.0,0.43506622,0.030069662,0.005209981,0.0035907472,0.026100619,0.017435314,inf,inf,inf,inf,1,1,1,1,2,1,2,3,0,0,0
230187870,0,0.0,0.0,0.8299255,0.71223736,-0.36933374,0.011355724,0.46770203,2.096495,0.33777824,-0.27400404,-0.06381746,-0.049360193,-0.018294713,-0.005836704,0.0,0.9476728,3.7455635,-1.2354912,-3.087303,0.0,0.43378535,0.06381746,0.0052909534,0.0036429758,0.026282687,0.017523842,inf,inf,inf,inf,1,1,1,1,2,1,2,3,0,0,0
230283895,0,0.0,0.0,0.86224765,0.67455727,-0.37362328,0.011355724,0.46770203,2.096495,0.25415608,-0.30569848,-0.09525857,-0.08183122,-0.018294713,-0.005836704,0.0,-1.7377436,0.7337544,1.6197525,-3.0699654,0.0,0.4380749,0.09525857,0.005186735,0.0035739103,0.025950152,0.017291958,inf,inf,inf,inf,1,1,1,1,2,1,2,3,0,0,0
230387870,0,0.0,0.0,0.88897574,0.6326373,-0.38531178,0.011355724,0.46770203,2.096495,0.20162745,-0.35165948,-0.13568538,-0.12566966,-0.018294713,-0.005836704,0.0,-0.76577747,-1.1357515,0.8348831,-3.0499508,0.0,0.4497634,0.13568538,0.0052718436,0.0036262516,0.02623619,0.017428244,inf,inf,inf,inf,1,1,1,1,2,1,2,3,0,0,0
230491869,0,0.0,0.0,0.90636075,0.5913834,-0.40388656,0.011355724,0.46770203,2.096495,0.13999082,-0.3840868,-0.17122114,-0.1659993,-0.018294713,-0.005836704,0.0,0.8496869,-2.4340582,0.0054423674,-3.0332317,0.0,0.46833816,0.17122114,0.005347194,0.00367273,0.026431946,0.01752916,inf,inf,inf,inf,1,1,1,1,2,1,2,3,0,0,0
230594329,0,0.0,0.0,0.9129577,0.5529426,-0.42721984,0.011355724,0.46770203,2.096495,0.074678265,-0.3844721,-0.18846609,-0.1880377,-0.018294713,-0.005836704,0.0,-5.6362886,2.5064893,1.1651461,-3.0166562,0.0,0.49167144,0.18846609,0.005432968,0.0037268954,0.026645636,0.017663095,inf,inf,inf,inf,1,1,1,1,2,1,2,3,0,0,0
230691070,0,0.0,0.0,0.91113317,0.5177477,-0.45178828,0.011355724,0.46770203,2.096495,0.06327779,-0.39296365,-0.22779816,-0.23068179,-0.018294713,-0.005836704,0.0,1.3202043,6.059157,-0.21087226,-3.0000737,0.0,0.5162399,0.22779816,0.005315064,0.003651551,0.026256844,0.017451009,inf,inf,inf,inf,1,1,1,1,2,1,2,3,0,0,0
230795070,0,0.0,0.0,0.9030421,0.48155326,-0.48088843,0.011355724,0.46770203,2.096495,0.034351565,-0.3994208,-0.24630588,-0.2512866,-0.018294713,-0.005836704,0.0,-2.244066,-1.2574296,1.7043052,-2.9855843,0.0,0.54534,0.24630588,0.0053827614,0.003695942,0.026412118,0.017562887,inf,inf,inf,inf,1,1,1,1,2,1,2,3,0,0,0
230899093,0,0.0,0.0,0.89280874,0.44741753,-0.5103167,0.011355724,0.46770203,2.096495,0.01988607,-0.39059752,-0.24957415,-0.2553675,-0.018294713,-0.005836704,0.0,-1.2787621,0.70483524,1.2331662,-2.9712694,0.0,0.5747683,0.24957415,0.005096307,0.003510202,0.02571908,0.017142761,inf,inf,inf,inf,1,1,1,1,2,1,2,3,0,0,0
230995080,0,0.0,0.0,0.8847205,0.41705143,-0.5364026,0.011355724,0.46770203,2.096495,0.04269979,-0.39080903,-0.2528345,-0.25843272,-0.018294713,-0.005836704,0.0,3.2165742,-4.7318745,-1.0178564,-2.9584494,0.0,0.60085416,0.2528345,0.0054124687,0.0037156497,0.026545541,0.017645981,inf,inf,inf,inf,1,1,1,1,2,1,2,3,0,0,0
231099119,0,0.0,0.0,0.8808866,0.3845658,-0.5615754,0.011355724,0.46770203,2.096495,0.0641391,-0.37041536,-0.21671776,-0.22086012,-0.018294713,-0.005836704,0.0,0.86278933,2.4675179,-0.74544704,-2.9478364,0.0,0.626027,0.21671776,0.0054741446,0.0037571113,0.026646663,0.017705694,inf,inf,inf,inf,1,1,1,1,2,1,2,3,0,0,0
231203069,0,0.0,0.0,0.8841152,0.35382697,-0.5797074,0.011355724,0.46770203,2.096495,0.07919831,-0.36198077,-0.1696053,-0.17080405,-0.018294713,-0.005836704,0.0,-4.351872,-0.80562276,0.12524553,-2.945076,0.0,0.64415896,0.1696053,0.0051571373,0.0035516287,0.025824068,0.017222352,inf,inf,inf,inf,1,1,1,1,2,1,2,3,0,0,0
231306303,0,0.0,0.0,0.89442074,0.32356298,-0.59015733,0.011355724,0.46770203,2.096495,0.08206623,-0.36227182,-0.10179125,-0.098723605,-0.018294713,-0.005836704,0.0,-0.75546354,-0.62771094,0.50755507,-2.9459252,0.0,0.6546089,0.10179125,0.005234824,0.003603046,0.025996244,0.017344482,inf,inf,inf,inf,1,1,1,1,2,1,2,3,0,0,0
231410314,0,0.0,0.0,0.9081075,0.29394308,-0.59177613,0.011355724,0.46770203,2.096495,0.071159706,-0.35678494,-0.054454807,-0.046014596,-0.018294713,-0.005836704,0.0,0.6367771,1.7533903,0.60476065,-2.9478521,0.0,0.6562277,0.054454807,0.005307251,0.003651028,0.026191326,0.017470662,inf,inf,inf,inf,1,1,1,1,2,1,2,3,0,0,0
231506269,0,0.0,0.0,0.9213393,0.2663289,-0.58793235,0.011355724,0.46770203,2.096495,0.055262767,-0.34830278,-0.031218288,-0.017556727,-0.018294713,-0.005836704,0.0,0.87376344,5.466301,-2.2973425,-2.952436,0.0,0.6523839,0.031218288,0.0052094404,0.0035884962,0.025889223,0.017300596,inf,inf,inf,inf,1,1,1,1,2,1,2,3,0,0,0
231610271,0,0.0,0.0,0.93354136,0.23459122,-0.5797013,0.011355724,0.46770203,2.096495,0.0016812384,-0.37955803,0.014829719,0.033174094,-0.018294713,-0.005836704,0.0,0.9593652,-3.9180686,-0.033037122,-2.955584,0.0,0.6441529,-0.014829719,0.0053084902,0.003653434,0.026193516,0.017487882,inf,inf,inf,inf,1,1,1,1,2,1,2,3,0,0,0
231714270,0,0.0,0.0,0.94025403,0.20166218,-0.5676685,0.011355724,0.46770203,2.096495,-0.070796564,-0.35336113,0.06800732,0.088857785,-0.018294713,-0.005836704,0.0,-2.2910876,2.3442514,2.8392963,-2.9584265,0.0,0.6321201,-0.06800732,0.0053555975,0.0036851105,0.026265625,0.017528005,inf,inf,inf,inf,1,1,1,1,2,1,2,3,0,0,0
231810276,0,0.0,0.0,0.9392922,0.17105073,-0.55429626,0.011355724,0.46770203,2.096495,-0.11914342,-0.34053466,0.0944328,0.115849726,-0.018294713,-0.005836704,0.0,-2.365786,0.6957534,0.006019389,-2.9620306,0.0,0.61874783,-0.0944328,0.0052729696,0.003631176,0.02606821,0.017413717,inf,inf,inf,inf,1,1,1,1,2,1,2,3,0,0,0
231914312,0,0.0,0.0,0.9271312,0.13968278,-0.53903025,0.011355724,0.46770203,2.096495,-0.19558854,-0.30876127,0.103766985,0.12458962,-0.018294713,-0.005836704,0.0,-5.4734507,2.1322045,-0.5585165,-2.9698472,0.0,0.6034818,-0.103766985,0.0053673917,0.0036928367,0.026327748,0.017578047,inf,inf,inf,inf,1,1,1,1,2,1,2,3,0,0,0
232018300,0,0.0,0.0,0.90256304,0.11176521,-0.5252776,0.011355724,0.46770203,2.096495,-0.23681532,-0.25451243,0.095432706,0.11461368,-0.018294713,-0.005836704,0.0,0.55959934,2.1064012,-0.09349904,-2.9793599,0.0,0.5897292,-0.095432706,0.0050709024,0.0034996788,0.025554435,0.017110439,inf,inf,inf,inf,1,1,1,1,2,1,2,3,0,0,0
232121508,0,0.0,0.0,0.8661034,0.08698349,-0.51441324,0.011355724,0.46770203,2.096495,-0.30688155,-0.22080952,0.09060937,0.106940806,-0.018294713,-0.005836704,0.0,0.37362215,-2.8494523,-0.6721467,-2.98439,0.0,0.5788648,-0.09060937,0.005147659,0.003550064,0.025757195,0.017228212,inf,inf,inf,inf,1,1,1,1,2,1,2,3,0,0,0
232225469,0,0.0,0.0,0.8191087,0.06938623,-0.506654,0.011355724,0.46770203,2.096495,-0.36457863,-0.14218882,0.07751988,0.08972416,-0.018294713,-0.005836704,0.0,2.678345,2.6606727,1.2915671,-2.9882724,0.0,0.5711056,-0.07751988,0.005249763,0.003615587,0.026089888,0.01740943,inf,inf,inf,inf,1,1,1,1,2,1,2,3,0,0,0
232321470,0,0.0,0.0,0.7705473,0.05900377,-0.50348186,0.011355724,0.46770203,2.096495,-0.40779853,-0.09119351,0.045454554,0.05330403,-0.018294713,-0.005836704,0.0,0.6950481,3.545851,-0.482769,-2.9928293,0.0,0.56793344,-0.045454554,0.005161098,0.003557211,0.025826674,0.017239625,inf,inf,inf,inf,1,1,1,1,2,1,2,3,0,0,0
232425486,0,0.0,0.0,0.715809,0.055185914,-0.5038041,0.011355724,0.46770203,2.096495,-0.44450477,-0.04196609,0.038535994,0.04144136,-0.018294713,-0.005836704,0.0,2.3497872,-1.0150021,2.0862966,-2.999411,0.0,0.56825566,-0.038535994,0.005207774,0.0035875214,0.025922613,0.017292436,inf,inf,inf,inf,1,1,1,1,2,1,2,3,0,0,0
232529469,0,0.0,0.0,0.66228986,0.060115725,-0.506595,0.011355724,0.46770203,2.096495,-0.45544678,0.039502848,0.019007368,0.017223436,-0.018294713,-0.005836704,0.0,4.0795727,2.5368068,-3.4585261,-3.0070183,0.0,0.5710466,-0.019007368,0.0052767517,0.0036311247,0.02615581,0.017420003,inf,inf,inf,inf,1,1,1,1,2,1,2,3,0,0,0
232625470,0,0.0,0.0,0.61554575,0.07160751,-0.5099166,0.011355724,0.46770203,2.096495,-0.46016565,0.0888912,0.014199871,0.009068102,-0.018294713,-0.005836704,0.0,-0.69879913,0.4538972,-2.2675843,-3.014125,0.0,0.5743682,-0.014199871,0.0052226554,0.003594948,0.026025765,0.017347513,inf,inf,inf,inf,1,1,1,1,2,1,2,3,0,0,0
232729476,0,0.0,0.0,0.5685908,0.091115735,-0.5128195,0.011355724,0.46770203,2.096495,-0.43908057,0.1529615,0.020909775,0.013678578,-0.018294713,-0.005836704,0.0,-1.0051184,3.5679421,2.3391669,-3.02188,0.0,0.5772711,-0.020909775,0.0053204447,0.0036583925,0.026285337,0.017512133,inf,inf,inf,inf,1,1,1,1,2,1,2,3,0,0,0
232833470,0,0.0,0.0,0.5266024,0.11535395,-0.5143245,0.011355724,0.46770203,2.096495,-0.41705284,0.19564147,0.022221563,0.014416544,-0.018294713,-0.005836704,0.0,-1.2890247,-2.04977,-0.6062057,-3.0297868,0.0,0.57877606,-0.022221563,0.005381204,0.0036993094,0.026371293,0.01757893,inf,inf,inf,inf,1,1,1,1,2,1,2,3,0,0,0
232935916,0,0.0,0.0,0.49060172,0.14228103,-0.5140619,0.011355724,0.46770203,2.096495,-0.38895673,0.21999799,0.028817575,0.021668473,-0.018294713,-0.005836704,0.0,-2.7741673,-2.1558754,0.21064332,-3.0398273,0.0,0.5785135,-0.028817575,0.005454363,0.003747863,0.026558017,0.017694294,inf,inf,inf,inf,1,1,1,1,2,1,2,3,0,0,0
233032695,0,0.0,0.0,0.46175167,0.16833395,-0.5122508,0.011355724,0.46770203,2.096495,-0.3469201,0.26721105,0.02652477,0.020612452,-0.018294713,-0.005836704,0.0,-1.327085,4.254421,0.94999534,-3.0476987,0.0,0.57670236,-0.02652477,0.0053066215,0.0036531016,0.02609284,0.017414277,inf,inf,inf,inf,1,1,1,1,2,1,2,3,0,0,0
233136670,0,0.0,0.0,0.43712118,0.19676125,-0.51028085,0.011355724,0.46770203,2.096495,-0.29909107,0.26303476,0.019947616,0.015620459,-0.018294713,-0.005836704,0.0,-1.7899604,2.6909618,2.002866,-3.0555055,0.0,0.5747324,-0.019947616,0.00502198,0.0034669207,0.025442999,0.017026102,inf,inf,inf,inf,1,1,1,1,2,1,2,3,0,0,0
233240683,0,0.0,0.0,0.4191356,0.22277464,-0.5092118,0.011355724,0.46770203,2.096495,-0.23644738,0.24982549,7.6167875e-05,-0.0029955138,-0.018294713,-0.005836704,0.0,0.241922,-1.567721,1.511747,-3.060908,0.0,0.57366335,-7.6167875e-05,0.0051252483,0.0035334283,0.025779018,0.017217204,inf,inf,inf,inf,1,1,1,1,2,1,2,3,0,0,0
233336676,0,0.0,0.0,0.40769675,0.24490316,-0.508929,0.011355724,0.46770203,2.096495,-0.20565692,0.22885573,0.003190347,0.00061492523,-0.018294713,-0.005836704,0.0,2.6029558,-4.474661,1.8427752,-3.0626152,0.0,0.5733806,-0.003190347,0.005409817,0.0037186944,0.026509415,0.017635824,inf,inf,inf,inf,1,1,1,1,2,1,2,3,0,0,0
233440668,0,0.0,0.0,0.39976788,0.26505664,-0.50848645,0.011355724,0.46770203,2.096495,-0.16151486,0.22354673,0.012056792,0.00944944,-0.018294713,-0.005836704,0.0,1.1602006,2.3401506,-0.7374546,-3.0610294,0.0,0.572938,-0.012056792,0.0051186695,0.0035276338,0.025748987,0.0171773,inf,inf,inf,inf,1,1,1,1,2,1,2,3,0,0,0
233539870,0,0.0,0.0,0.3949474,0.28067753,-0.50762516,0.011355724,0.46770203,2.096495,-0.11926041,0.19194612,0.01161029,0.009005606,-0.018294713,-0.005836704,0.0,0.9186693,-1.6025679,0.7673975,-3.0574648,0.0,0.57207674,-0.01161029,0.0050635985,0.0034905695,0.025620475,0.017099729,inf,inf,inf,inf,1,1,1,1,2,1,2,3,0,0,0
233643870,0,0.0,0.0,0.39250705,0.29272053,-0.5060469,0.011355724,0.46770203,2.096495,-0.09162854,0.18281208,0.020394295,0.018192118,-0.018294713,-0.005836704,0.0,-1.6883527,2.5713692,-0.55129457,-3.0546436,0.0,0.57049847,-0.020394295,0.005167147,0.0035577805,0.025890198,0.017271489,inf,inf,inf,inf,1,1,1,1,2,1,2,3,0,0,0
233747876,0,0.0,0.0,0.3924275,0.30088174,-0.49984437,0.011355724,0.46770203,2.096495,-0.05403448,0.15541226,0.072220504,0.07077669,-0.018294713,-0.005836704,0.0,-0.9243664,-0.31843725,-0.38118434,-3.0516217,0.0,0.56429595,-0.072220504,0.0052874004,0.0036374757,0.02630037,0.017542958,inf,inf,inf,inf,1,1,1,1,2,1,2,3,0,0,0
233843913,0,0.0,0.0,0.39509693,0.3064174,-0.4908376,0.011355724,0.46770203,2.096495,-0.018470217,0.12357094,0.08100052,0.08099828,-0.018294713,-0.005836704,0.0,6.7867093,-0.8413253,-0.120514564,-3.0502143,0.0,0.5552892,-0.08100052,0.005204497,0.0035847013,0.02598889,0.017379021,inf,inf,inf,inf,1,1,1,1,2,1,2,3,0,0,0
233947870,0,0.0,0.0,0.4000893,0.31180853,-0.48158976,0.011355724,0.46770203,2.096495,0.008974218,0.13002694,0.047317762,0.049638536,-0.018294713,-0.005836704,0.0,1.3563994,5.545626,-0.7677607,-3.047804,0.0,0.54604137,-0.047317762,0.0052759424,0.003633667,0.026105748,0.017466458,inf,inf,inf,inf,1,1,1,1,2,1,2,3,0,0,0
234051876,0,0.0,0.0,0.40675363,0.3180785,-0.47570226,0.011355724,0.46770203,2.096495,0.04722946,0.1117057,0.01964368,0.0233749,-0.018294713,-0.005836704,0.0,3.4889386,-3.9557302,-0.097995855,-3.0448167,0.0,0.54015386,-0.01964368,0.0053409874,0.0036772485,0.026274465,0.017540485,inf,inf,inf,inf,1,1,1,1,2,1,2,3,0,0,0
234147882,0,0.0,0.0,0.4140147,0.3247365,-0.47481522,0.011355724,0.46770203,2.096495,0.06737329,0.108389765,-0.0010618132,0.0020633256,-0.018294713,-0.005836704,0.0,0.5099701,-0.6883137,-0.77925766,-3.0437505,0.0,0.5392668,0.0010618132,0.0052527296,0.0036184508,0.026079819,0.017386446,inf,inf,inf,inf,1,1,1,1,2,1,2,3,0,0,0
234251870,0,0.0,0.0,0.4213813,0.33222207,-0.47160646,0.011355724,0.46770203,2.096495,0.08359622,0.10681943,0.044154588,0.044886325,-0.018294713,-0.005836704,0.0,0.7938667,1.0208912,-0.46207765,-3.040274,0.0,0.53605807,-0.044154588,0.0053325538,0.0036677904,0.026339024,0.01751329,inf,inf,inf,inf,1,1,1,1,2,1,2,3,0,0,0
234355074,0,0.0,0.0,0.42942178,0.3412079,-0.4685519,0.011355724,0.46770203,2.096495,0.0828082,0.106727935,0.04056253,0.039317064,-0.018294713,-0.005836704,0.0,0.01896766,1.4471184,-1.937233,-3.0375843,0.0,0.5330035,-0.04056253,0.005400609,0.0037106785,0.026413217,0.017596124,inf,inf,inf,inf,1,1,1,1,2,1,2,3,0,0,0
234459070,0,0.0,0.0,0.43910336,0.35172215,-0.4688642,0.011355724,0.46770203,2.096495,0.11063525,0.102527246,-0.021102132,-0.022749735,-0.018294713,-0.005836704,0.0,-0.33309913,1.7269297,0.31946963,-3.035944,0.0,0.5333158,0.021102132,0.005098732,0.0035151793,0.02564152,0.017145595,inf,inf,inf,inf,1,1,1,1,2,1,2,3,0,0,0
234563083,0,0.0,0.0,0.4497534,0.3639868,-0.47353023,0.011355724,0.46770203,2.096495,0.10376254,0.09309994,-0.05182669,-0.053780995,-0.018294713,-0.005836704,0.0,-0.060670674,-5.531694,-1.2474203,-3.0346575,0.0,0.5379818,0.05182669,0.005140491,0.0035434254,0.025752632,0.017196942,inf,inf,inf,inf,1,1,1,1,2,1,2,3,0,0,0
234659083,0,0.0,0.0,0.45986858,0.37569737,-0.48209053,0.011355724,0.46770203,2.096495,0.10791013,0.08918124,-0.07852103,-0.081734136,-0.018294713,-0.005836704,0.0,0.9740544,-1.4978282,-0.34466827,-3.0331311,0.0,0.5465421,0.07852103,0.0054677003,0.003754284,0.026708676,0.017731266,inf,inf,inf,inf,1,1,1,1,2,1,2,3,0,0,0
234763071,0,0.0,0.0,0.4698953,0.38797563,-0.4942713,0.011355724,0.46770203,2.096495,0.11383703,0.08120792,-0.10124609,-0.10653226,-0.018294713,-0.005836704,0.0,-1.7162399,3.6144612,-1.1066339,-3.0337517,0.0,0.5587229,0.10124609,0.005173873,0.0035616213,0.025952417,0.017267065,inf,inf,inf,inf,1,1,1,1,2,1,2,3,0,0,0
234867110,0,0.0,0.0,0.4787297,0.39803365,-0.5081536,0.011355724,0.46770203,2.096495,0.103592455,0.04429322,-0.106497616,-0.11364836,-0.018294713,-0.005836704,0.0,-3.645435,0.034573108,1.2724472,-3.038106,0.0,0.5726052,0.106497616,0.0052559166,0.0036138066,0.026163766,0.017396478,inf,inf,inf,inf,1,1,1,1,2,1,2,3,0,0,0
234971070,0,0.0,0.0,0.4869174,0.40444466,-0.52341133,0.011355724,0.46770203,2.096495,0.10678777,0.019042347,-0.13136767,-0.13944156,-0.018294713,-0.005836704,0.0,-1.124308,-5.503631,-0.41852987,-3.0439632,0.0,0.5878629,0.13136767,0.0053189173,0.0036552753,0.026242102,0.017468842,inf,inf,inf,inf,1,1,1,1,2,1,2,3,0,0,0
235067870,0,0.0,0.0,0.49413535,0.40791044,-0.5373836,0.011355724,0.46770203,2.096495,0.11636323,0.00013320846,-0.12331333,-0.13121581,-0.018294713,-0.005836704,0.0,1.7852933,0.28610665,0.6870435,-3.0498111,0.0,0.6018352,0.12331333,0.0052445643,0.0036077227,0.026056718,0.01736515,inf,inf,inf,inf,1,1,1,1,2,1,2,3,0,0,0
235170315,0,0.0,0.0,0.5007244,0.40764114,-0.5507414,0.011355724,0.46770203,2.096495,0.09513815,-0.0064777243,-0.12007306,-0.12690295,-0.018294713,-0.005836704,0.0,0.95379496,4.0109167,-2.411444,-3.0518818,0.0,0.61519295,0.12007306,0.0053141196,0.0036537577,0.026225353,0.017477598,inf,inf,inf,inf,1,1,1,1,2,1,2,3,0,0,0
235274288,0,0.0,0.0,0.5062057,0.40481028,-0.5618855,0.011355724,0.46770203,2.096495,0.08224811,-0.025908915,-0.107460395,-0.11226966,-0.018294713,-0.005836704,0.0,-1.8239251,2.5218444,1.3324313,-3.0542388,0.0,0.62633705,0.107460395,0.005380236,0.0036978852,0.026427064,0.017617049,inf,inf,inf,inf,1,1,1,1,2,1,2,3,0,0,0
235370278,0,0.0,0.0,0.5104916,0.39999816,-0.570995,0.011355724,0.46770203,2.096495,0.086667165,-0.035932068,-0.11342168,-0.11573901,-0.018294713,-0.005836704,0.0,1.953058,4.0774674,-0.014748697,-3.0552878,0.0,0.63544655,0.11342168,0.0052793347,0.0036336863,0.026100121,0.017427891,inf,inf,inf,inf,1,1,1,1,2,1,2,3,0,0,0
235474277,0,0.0,0.0,0.515042,0.39336815,-0.5806602,0.011355724,0.46770203,2.096495,0.07659914,-0.059229657,-0.11728131,-0.11685839,-0.018294713,-0.005836704,0.0,-1.1062977,-3.269985,0.9597746,-3.0549638,0.0,0.6451118,0.11728131,0.0053422353,0.0036757223,0.0262641,0.017519841,inf,inf,inf,inf,1,1,1,1,2,1,2,3,0,0,0
235578270,0,0.0,0.0,0.51989377,0.3855412,-0.5897578,0.011355724,0.46770203,2.096495,0.06100071,-0.06278224,-0.116128184,-0.11359429,-0.018294713,-0.005836704,0.0,-5.2371516,1.8579873,-0.967154,-3.053924,0.0,0.6542094,0.116128184,0.005420841,0.003726637,0.026495755,0.01764937,inf,inf,inf,inf,1,1,1,1,2,1,2,3,0,0,0
235674287,0,0.0,0.0,0.5251137,0.37851408,-0.59816885,0.011355724,0.46770203,2.096495,0.08772471,-0.059256114,-0.11650893,-0.11267067,-0.018294713,-0.005836704,0.0,1.7339759,2.9228857,-1.0996716,-3.0534306,0.0,0.6626204,0.11650893,0.0053592203,0.0036855522,0.026359506,0.017573306,inf,inf,inf,inf,1,1,1,1,2,1,2,3,0,0,0
235777495,0,0.0,0.0,0.53201294,0.37096956,-0.6069559,0.011355724,0.46770203,2.096495,0.08150927,-0.087231554,-0.10329319,-0.098576725,-0.018294713,-0.005836704,0.0,-3.1620357,-0.6513194,2.0161908,-3.0545323,0.0,0.67140746,0.10329319,0.005452325,0.0037458413,0.026603084,0.017712176,inf,inf,inf,inf,1,1,1,1,2,1,2,3,0,0,0
235881469,0,0.0,0.0,0.5399337,0.36413562,-0.6157911,0.011355724,0.46770203,2.096495,0.07497373,-0.09086476,-0.094759114,-0.0894254,-0.018294713,-0.005836704,0.0,-0.886358,-5.8499994,1.3124619,-3.0551615,0.0,0.68024266,0.094759114,0.00513257,0.0035381946,0.025717927,0.017181547,inf,inf,inf,inf,1,1,1,1,2,1,2,3,0,0,0
235985470,0,0.0,0.0,0.5488838,0.35815805,-0.62362486,0.011355724,0.46770203,2.096495,0.092984796,-0.07896968,-0.09587207,-0.09002858,-0.018294713,-0.005836704,0.0,1.4714742,-0.30751458,-0.47261116,-3.0570505,0.0,0.68807644,0.09587207,0.0051856604,0.0035726808,0.025828382,0.017244643,inf,inf,inf,inf,1,1,1,1,2,1,2,3,0,0,0
236089470,0,0.0,0.0,0.55839354,0.3528772,-0.63062626,0.011355724,0.46770203,2.096495,0.083481684,-0.06441187,-0.091575965,-0.085192256,-0.018294713,-0.005836704,0.0,-0.98621815,3.7894814,-1.7244943,-3.057132,0.0,0.69507784,0.091575965,0.00527065,0.0036285648,0.026075276,0.017408239,inf,inf,inf,inf,1,1,1,1,2,1,2,3,0,0,0
236185470,0,0.0,0.0,0.56697196,0.34871688,-0.637529,0.011355724,0.46770203,2.096495,0.08186768,-0.06130413,-0.09739681,-0.09057586,-0.018294713,-0.005836704,0.0,2.0786424,1.3774828,-0.79548466,-3.054431,0.0,0.7019806,0.09739681,0.005187846,0.0035749942,0.02584529,0.017273672,inf,inf,inf,inf,1,1,1,1,2,1,2,3,0,0,0
236289470,0,0.0,0.0,0.57526946,0.34439668,-0.6444224,0.011355724,0.46770203,2.096495,0.06720113,-0.06516806,-0.07523938,-0.068317465,-0.018294713,-0.005836704,0.0,-1.7758021,3.3440876,0.6087561,-3.0517597,0.0,0.708874,0.07523938,0.005284794,0.0036377523,0.026160035,0.017456478,inf,inf,inf,inf,1,1,1,1,2,1,2,3,0,0,0
236393470,0,0.0,0.0,0.58270615,0.33981395,-0.6492922,0.011355724,0.46770203,2.096495,0.05582667,-0.056425367,-0.03140744,-0.02465326,-0.018294713,-0.005836704,0.0,-5.0336533,-1.886677,2.0248451,-3.0506597,0.0,0.71374375,0.03140744,0.005346751,0.0036785763,0.026281403,0.01752582,inf,inf,inf,inf,1,1,1,1,2,1,2,3,0,0,0
236489469,0,0.0,0.0,0.58774716,0.3366794,-0.64844346,0.011355724,0.46770203,2.096495,0.05019511,-0.0708022,0.023633767,0.03058036,-0.018294713,-0.005836704,0.0,6.370082,-0.6004919,-0.3809318,-3.0517793,0.0,0.71289504,-0.023633767,0.0052891285,0.0036407013,0.026153607,0.017459476,inf,inf,inf,inf,1,1,1,1,2,1,2,3,0,0,0
236596686,0,0.0,0.0,0.59098065,0.3319438,-0.63753057,0.011355724,0.46770203,2.096495,0.044661745,-0.06102256,0.12152474,0.12993616,-0.018294713,-0.005836704,0.0,5.55369,4.663217,-1.8992745,-3.0518494,0.0,0.70198214,-0.12152474,0.0053665885,0.0036924824,0.026295837,0.017581534,inf,inf,inf,inf,1,1,1,1,2,1,2,3,0,0,0
236692671,0,0.0,0.0,0.59236676,0.3273805,-0.6167364,0.011355724,0.46770203,2.096495,0.012934362,-0.054760396,0.21962082,0.2312228,-0.018294713,-0.005836704,0.0,-4.6946483,3.935977,0.90529513,-3.052045,0.0,0.681188,-0.21962082,0.0053109927,0.003658142,0.026123103,0.017506404,inf,inf,inf,inf,1,1,1,1,2,1,2,3,0,0,0
236796676,0,0.0,0.0,0.59159833,0.32208493,-0.5825412,0.011355724,0.46770203,2.096495,0.00054548087,-0.07473284,0.29744542,0.3142405,-0.018294713,-0.005836704,0.0,-3.7398655,-0.6927627,1.6298001,-3.054469,0.0,0.6469928,-0.29744542,0.0054406254,0.0037468928,0.026537562,0.017807642,inf,inf,inf,inf,1,1,1,1,2,1,2,3,0,0,0
236900716,0,0.0,0.0,0.5895645,0.3149195,-0.53937936,0.011355724,0.46770203,2.096495,0.0081977295,-0.07848271,0.34546328,0.3679274,-0.018294713,-0.005836704,0.0,1.4796132,1.0184181,-1.1452593,-3.0565171,0.0,0.60383093,-0.34546328,0.0051223766,0.0035412756,0.025623396,0.017257957,inf,inf,inf,inf,1,1,1,1,2,1,2,3,0,0,0
236996680,0,0.0,0.0,0.58714724,0.30807862,-0.49473968,0.011355724,0.46770203,2.096495,-0.029534698,-0.089792736,0.38710916,0.41359222,-0.018294713,-0.005836704,0.0,-5.458084,-3.4441156,2.3611097,-3.0571306,0.0,0.5591913,-0.38710916,0.0054135467,0.0037341313,0.026357923,0.017698284,inf,inf,inf,inf,1,1,1,1,2,1,2,3,0,0,0
237100676,0,0.0,0.0,0.5833874,0.299184,-0.4453712,0.011355724,0.46770203,2.096495,-0.02061517,-0.09927232,0.39274043,0.4209131,-0.018294713,-0.005836704,0.0,-3.782041,0.74523604,0.11191823,-3.056986,0.0,0.5098228,-0.39274043,0.005110138,0.003534056,0.025574265,0.017195523,inf,inf,inf,inf,1,1,1,1,2,1,2,3,0,0,0
237204670,0,0.0,0.0,0.5797766,0.28936762,-0.39992768,0.011355724,0.46770203,2.096495,0.0027898867,-0.09452915,0.37091243,0.39745098,-0.018294713,-0.005836704,0.0,1.1782517,1.8891631,-2.076664,-3.05564,0.0,0.46437928,-0.37091243,0.005177356,0.0035769003,0.025786705,0.017288815,inf,inf,inf,inf,1,1,1,1,2,1,2,3,0,0,0
237308670,0,0.0,0.0,0.5769195,0.27838245,-0.36213988,0.011355724,0.46770203,2.096495,-0.008747573,-0.109459795,0.33516994,0.35662735,-0.018294713,-0.005836704,0.0,-0.6386621,3.7223558,0.36804283,-3.0539138,0.0,0.4265915,-0.33516994,0.0052590193,0.0036276958,0.026081895,0.017420754,inf,inf,inf,inf,1,1,1,1,2,1,2,3,0,0,0
237403870,0,0.0,0.0,0.5749985,0.2669057,-0.33533946,0.011355724,0.46770203,2.096495,-0.022547042,-0.12994707,0.28979474,0.30404517,-0.018294713,-0.005836704,0.0,-1.1475817,-0.40909177,-1.5818472,-3.0518284,0.0,0.39979106,-0.28979474,0.0051666033,0.003564441,0.025857797,0.017241564,inf,inf,inf,inf,1,1,1,1,2,1,2,3,0,0,0
237507870,0,0.0,0.0,0.57394207,0.25404593,-0.31536523,0.011355724,0.46770203,2.096495,-0.022009484,-0.11373727,0.22764888,0.23254019,-0.018294713,-0.005836704,0.0,0.75681055,4.039407,-1.9293315,-3.0458767,0.0,0.37981683,-0.22764888,0.005202233,0.0035837595,0.025959838,0.01726717,inf,inf,inf,inf,1,1,1,1,2,1,2,3,0,0,0
237611869,0,0.0,0.0,0.5734549,0.24043459,-0.30475,0.011355724,0.46770203,2.096495,-0.030026104,-0.13150519,0.16874516,0.16430181,-0.018294713,-0.005836704,0.0,-0.51248974,5.1581,0.6927139,-3.0383155,0.0,0.3692016,-0.16874516,0.0053208373,0.0036565175,0.026398605,0.01750881,inf,inf,inf,inf,1,1,1,1,2,1,2,3,0,0,0
237707902,0,0.0,0.0,0.57271546,0.22795534,-0.30089632,0.011355724,0.46770203,2.096495,-0.04645678,-0.1259884,0.13944402,0.12730652,-0.018294713,-0.005836704,0.0,-1.5961517,-0.99082625,-1.8789831,-3.0307329,0.0,0.36534792,-0.13944402,0.0052513946,0.003609145,0.02621579,0.017381223,inf,inf,inf,inf,1,1,1,1,2,1,2,3,0,0,0
237811870,0,0.0,0.0,0.5709551,0.21622021,-0.3005427,0.011355724,0.46770203,2.096495,-0.050114382,-0.11860628,0.088993,0.07029523,-0.018294713,-0.005836704,0.0,0.38375184,1.4286773,-1.4091839,-3.0216873,0.0,0.36499432,-0.088993,0.0053217867,0.0036530988,0.02637303,0.017474439,inf,inf,inf,inf,1,1,1,1,2,1,2,3,0,0,0
237915887,0,0.0,0.0,0.5672642,0.20623758,-0.3025513,0.011355724,0.46770203,2.096495,-0.06902054,-0.0820469,0.07030562,0.04772465,-0.018294713,-0.005836704,0.0,-3.0816145,2.1112845,2.9893777,-3.0143867,0.0,0.3670029,-0.07030562,0.00542206,0.003717307,0.02661337,0.017651653,inf,inf,inf,inf,1,1,1,1,2,1,2,3,0,0,0
238011876,0,0.0,0.0,0.5622571,0.19972931,-0.30587408,0.011355724,0.46770203,2.096495,-0.058575176,-0.063206814,0.028946111,0.0050625545,-0.018294713,-0.005836704,0.0,2.9365046,2.7878673,-2.0424244,-3.0091777,0.0,0.37032568,-0.028946111,0.0053469534,0.0036699348,0.026388928,0.017527776,inf,inf,inf,inf,1,1,1,1,2,1,2,3,0,0,0
238115071,0,0.0,0.0,0.5555638,0.1956638,-0.31010178,0.011355724,0.46770203,2.096495,-0.06915468,-0.035397973,0.0130902305,-0.010382974,-0.018294713,-0.005836704,0.0,-2.4481184,-0.58517253,1.4370965,-3.0061998,0.0,0.37455338,-0.0130902305,0.005410019,0.003712652,0.026502948,0.017603163,inf,inf,inf,inf,1,1,1,1,2,1,2,3,0,0,0
238219104,0,0.0,0.0,0.54733235,0.19570038,-0.31384522,0.011355724,0.46770203,2.096495,-0.1012921,-0.002458687,0.0016896599,-0.020143718,-0.018294713,-0.005836704,0.0,-9.134157,-0.372643,-0.59032506,-3.0026805,0.0,0.37829682,-0.0016896599,0.005102911,0.0035141879,0.025702503,0.017132012,inf,inf,inf,inf,1,1,1,1,2,1,2,3,0,0,0
238323122,0,0.0,0.0,0.5373202,0.20014878,-0.3160718,0.011355724,0.46770203,2.096495,-0.10700101,0.03926338,0.0063888645,-0.012921163,-0.018294713,-0.005836704,0.0,0.45776263,3.819628,-0.5651043,-3.0005636,0.0,0.3805234,-0.0063888645,0.0051426683,0.003540927,0.025772553,0.017180232,inf,inf,inf,inf,1,1,1,1,2,1,2,3,0,0,0
238427075,0,0.0,0.0,0.5258587,0.2088576,-0.31604546,0.011355724,0.46770203,2.096495,-0.098736845,0.059453655,0.007665722,-0.008257367,-0.018294713,-0.005836704,0.0,1.6880769,-1.245373,1.752767,-3.0021574,0.0,0.38049707,-0.007665722,0.00524974,0.0036102505,0.026106795,0.0173977,inf,inf,inf,inf,1,1,1,1,2,1,2,3,0,0,0
238523117,0,0.0,0.0,0.5142698,0.21936704,-0.31369117,0.011355724,0.46770203,2.096495,-0.11871808,0.07976993,0.014845649,0.0025842006,-0.018294713,-0.005836704,0.0,2.1922977,3.10162,-1.5214951,-3.0051754,0.0,0.37814277,-0.014845649,0.0051687607,0.003559214,0.025849672,0.017253477,inf,inf,inf,inf,1,1,1,1,2,1,2,3,0,0,0
238627070,0,0.0,0.0,0.50110555,0.2327348,-0.30947602,0.011355724,0.46770203,2.096495,-0.110354535,0.09598366,0.014542492,0.0064523323,-0.018294713,-0.005836704,0.0,5.07298,0.87874526,-0.5351354,-3.0086884,0.0,0.37392762,-0.014542492,0.005224088,0.0035970104,0.025931219,0.01731712,inf,inf,inf,inf,1,1,1,1,2,1,2,3,0,0,0
238731070,0,0.0,0.0,0.48776916,0.24657029,-0.30444625,0.011355724,0.46770203,2.096495,-0.112579055,0.09825553,0.014445272,0.010275145,-0.018294713,-0.005836704,0.0,0.64733166,1.7995363,1.4211824,-3.0137143,0.0,0.36889786,-0.014445272,0.005297174,0.0036454878,0.026141876,0.017447883,inf,inf,inf,inf,1,1,1,1,2,1,2,3,0,0,0
238833512,0,0.0,0.0,0.47465876,0.25942975,-0.30007878,0.011355724,0.46770203,2.096495,-0.10504404,0.11972529,0.006161464,0.0051002316,-0.018294713,-0.005836704,0.0,2.8794062,2.204124,0.3880224,-3.018774,0.0,0.36453038,-0.006161464,0.005362751,0.00368891,0.026307,0.017544374,inf,inf,inf,inf,1,1,1,1,2,1,2,3,0,0,0
238930271,0,0.0,0.0,0.46247545,0.26974112,-0.29641455,0.011355724,0.46770203,2.096495,-0.124979705,0.09148304,0.00031125537,0.0011256059,-0.018294713,-0.005836704,0.0,-2.6060417,1.7398074,-1.3588141,-3.0223835,0.0,0.36086616,-0.00031125537,0.005263248,0.003623957,0.026045363,0.017379092,inf,inf,inf,inf,1,1,1,1,2,1,2,3,0,0,0
239034289,0,0.0,0.0,0.45047712,0.27804574,-0.29371005,0.011355724,0.46770203,2.096495,-0.10816314,0.07440451,0.0029443116,0.0048684543,-0.018294713,-0.005836704,0.0,2.8432627,-2.2864347,0.88145655,-3.0269022,0.0,0.35816166,-0.0029443116,0.005355723,0.0036833344,0.02634183,0.01755889,inf,inf,inf,inf,1,1,1,1,2,1,2,3,0,0,0
239138298,0,0.0,0.0,0.4401786,0.2830929,-0.2924643,0.011355724,0.46770203,2.096495,-0.1029223,0.057807676,-0.0072433203,-0.004846672,-0.018294713,-0.005836704,0.0,-0.20689122,1.0395225,-0.00089209306,-3.031818,0.0,0.3569159,0.0072433203,0.005449696,0.0037440392,0.026600234,0.017713323,inf,inf,inf,inf,1,1,1,1,2,1,2,3,0,0,0
239234281,0,0.0,0.0,0.4326691,0.2852164,-0.29266763,0.011355724,0.46770203,2.096495,-0.07814166,0.06561917,-0.013857052,-0.01143476,-0.018294713,-0.005836704,0.0,-0.97447765,3.2260146,2.0484707,-3.0361488,0.0,0.35711923,0.013857052,0.0053527453,0.0036818443,0.026299926,0.017535644,inf,inf,inf,inf,1,1,1,1,2,1,2,3,0,0,0
239338270,0,0.0,0.0,0.42665568,0.2851892,-0.29382083,0.011355724,0.46770203,2.096495,-0.067945495,0.03410051,-0.015796753,-0.013629647,-0.018294713,-0.005836704,0.0,-1.2206001,-1.9055471,1.3415847,-3.0387938,0.0,0.35827243,0.015796753,0.0054418407,0.0037393786,0.026553499,0.017681388,inf,inf,inf,inf,1,1,1,1,2,1,2,3,0,0,0
239442309,0,0.0,0.0,0.4224071,0.28340465,-0.2949852,0.011355724,0.46770203,2.096495,-0.07372855,0.031907205,-0.013211425,-0.011273548,-0.018294713,-0.005836704,0.0,-5.1688333,-0.10087785,1.1160855,-3.038956,0.0,0.3594368,0.013211425,0.005142024,0.003544136,0.025759263,0.017207593,inf,inf,inf,inf,1,1,1,1,2,1,2,3,0,0,0
239537470,0,0.0,0.0,0.41952592,0.28132853,-0.2968845,0.011355724,0.46770203,2.096495,-0.050527092,0.01959571,-0.03282068,-0.030815711,-0.018294713,-0.005836704,0.0,3.5057368,1.9912103,1.304942,-3.037268,0.0,0.3613361,0.03282068,0.00544863,0.0037440765,0.02654274,0.017689653,inf,inf,inf,inf,1,1,1,1,2,1,2,3,0,0,0
239641470,0,0.0,0.0,0.41694823,0.27894193,-0.30039924,0.011355724,0.46770203,2.096495,-0.05013106,0.03616054,-0.05171881,-0.04944976,-0.018294713,-0.005836704,0.0,-1.547692,3.6103008,-0.1458582,-3.0327656,0.0,0.36485085,0.05171881,0.0051437183,0.0035459402,0.025754487,0.017209718,inf,inf,inf,inf,1,1,1,1,2,1,2,3,0,0,0
239745470,0,0.0,0.0,0.41398594,0.27751362,-0.30598935,0.011355724,0.46770203,2.096495,-0.060628407,0.021953352,-0.06253097,-0.060273167,-0.018294713,-0.005836704,0.0,-1.1485325,-2.9513268,-0.94760674,-3.024439,0.0,0.37044096,0.06253097,0.0051888875,0.00357566,0.025856541,0.01725972,inf,inf,inf,inf,1,1,1,1,2,1,2,3,0,0,0
239849470,0,0.0,0.0,0.4104192,0.27761492,-0.31257087,0.011355724,0.46770203,2.096495,-0.04013278,0.04172934,-0.07067513,-0.06884883,-0.018294713,-0.005836704,0.0,3.699871,0.9634984,-1.7618858,-3.016676,0.0,0.37702248,0.07067513,0.005300979,0.00364693,0.026241347,0.017483037,inf,inf,inf,inf,1,1,1,1,2,1,2,3,0,0,0
239945470,0,0.0,0.0,0.40646893,0.2804948,-0.3188975,0.011355724,0.46770203,2.096495,-0.06436127,0.051460184,-0.06713308,-0.065671675,-0.018294713,-0.005836704,0.0,-4.6063046,4.0091476,-0.911913,-3.0116794,0.0,0.3833491,0.06713308,0.0052055526,0.0035852722,0.025918769,0.017296996,inf,inf,inf,inf,1,1,1,1,2,1,2,3,0,0,0
240049482,0,0.0,0.0,0.40129212,0.28641853,-0.32558197,0.011355724,0.46770203,2.096495,-0.051961884,0.08181532,-0.06617866,-0.06471069,-0.018294713,-0.005836704,0.0,0.8730897,4.0178494,0.69847137,-3.0058963,0.0,0.39003357,0.06617866,0.0052756984,0.0036309976,0.02610641,0.017416582,inf,inf,inf,inf,1,1,1,1,2,1,2,3,0,0,0
240153470,0,0.0,0.0,0.3948943,0.29542407,-0.3308523,0.011355724,0.46770203,2.096495,-0.06203606,0.06506818,-0.047614705,-0.04561597,-0.018294713,-0.005836704,0.0,0.7437736,-3.1717312,-0.2316836,-2.999473,0.0,0.3953039,0.047614705,0.00534038,0.0036736361,0.026260559,0.01751636,inf,inf,inf,inf,1,1,1,1,2,1,2,3,0,0,0
240249472,0,0.0,0.0,0.3878268,0.30476752,-0.33342275,0.011355724,0.46770203,2.096495,-0.064347245,0.06524289,-0.020885915,-0.017894667,-0.018294713,-0.005836704,0.0,-2.5939746,-3.2965648,2.8091516,-2.9954114,0.0,0.39787436,0.020885915,0.005251126,0.003616098,0.026023587,0.017377803,inf,inf,inf,inf,1,1,1,1,2,1,2,3,0,0,0
240352669,0,0.0,0.0,0.37942958,0.3155062,-0.33324224,0.011355724,0.46770203,2.096495,-0.06157419,0.0796101,-0.02043844,-0.01578864,-0.018294713,-0.005836704,0.0,-4.6843085,2.712481,-1.355296,-2.9919252,0.0,0.39769384,0.02043844,0.0053277244,0.003666561,0.026227795,0.017509675,inf,inf,inf,inf,1,1,1,1,2,1,2,3,0,0,0
240456688,0,0.0,0.0,0.3711098,0.32542947,-0.3311403,0.011355724,0.46770203,2.096495,-0.06797138,0.069749884,0.00086224667,0.0075226966,-0.018294713,-0.005836704,0.0,-1.8466487,-0.12821797,0.32865602,-2.9911766,0.0,0.3955919,-0.00086224667,0.0050557414,0.0034892475,0.025527053,0.017097523,inf,inf,inf,inf,1,1,1,1,2,1,2,3,0,0,0
240552686,0,0.0,0.0,0.36378396,0.3338319,-0.3280502,0.011355724,0.46770203,2.096495,-0.050088454,0.052487962,0.0003271649,0.008616937,-0.018294713,-0.005836704,0.0,-0.07809203,-2.9621873,0.36484766,-2.995318,0.0,0.3925018,-0.0003271649,0.0053364425,0.0036735155,0.026214642,0.01750565,inf,inf,inf,inf,1,1,1,1,2,1,2,3,0,0,0
240656670,0,0.0,0.0,0.35724202,0.34012616,-0.3248183,0.011355724,0.46770203,2.096495,-0.037452146,0.052029558,-0.0103815915,-0.00094123126,-0.018294713,-0.005836704,0.0,-1.812924,4.860237,-1.7627878,-3.0012398,0.0,0.38926992,0.0103815915,0.0054167383,0.0037258521,0.026439734,0.01763757,inf,inf,inf,inf,1,1,1,1,2,1,2,3,0,0,0
240760670,0,0.0,0.0,0.35305935,0.34335148,-0.32350835,0.011355724,0.46770203,2.096495,-0.018927723,0.031803988,-0.018905891,-0.009269452,-0.018294713,-0.005836704,0.0,-2.0630217,-0.90197957,1.3553346,-3.007861,0.0,0.38795996,0.018905891,0.005393719,0.0037127913,0.026264576,0.017526804,inf,inf,inf,inf,1,1,1,1,2,1,2,3,0,0,0
240864676,0,0.0,0.0,0.35110256,0.3445578,-0.32452318,0.011355724,0.46770203,2.096495,-0.0020705203,0.008243285,-0.027308654,-0.018681735,-0.018294713,-0.005836704,0.0,-2.3369331,-2.6669056,1.3287212,-3.016645,0.0,0.3889748,0.027308654,0.00542099,0.0037288421,0.026438607,0.017618204,inf,inf,inf,inf,1,1,1,1,2,1,2,3,0,0,0
240960670,0,0.0,0.0,0.35169676,0.34237513,-0.32761568,0.011355724,0.46770203,2.096495,0.018404143,-0.012436355,-0.036796853,-0.029931504,-0.018294713,-0.005836704,0.0,-0.5573284,-2.1542423,1.3899959,-3.0273328,0.0,0.39206728,0.036796853,0.005318074,0.0036600668,0.026236555,0.017485652,inf,inf,inf,inf,1,1,1,1,2,1,2,3,0,0,0
241063869,0,0.0,0.0,0.35471946,0.33730483,-0.33377007,0.011355724,0.46770203,2.096495,0.0222636,-0.021499889,-0.062581174,-0.057908528,-0.018294713,-0.005836704,0.0,-4.099083,0.46138522,-0.42061886,-3.037715,0.0,0.39822167,0.062581174,0.0053530717,0.0036825645,0.026295649,0.017517256,inf,inf,inf,inf,1,1,1,1,2,1,2,3,0,0,0
241167887,0,0.0,0.0,0.36060253,0.32952267,-0.34266707,0.011355724,0.46770203,2.096495,0.040356718,-0.05635437,-0.0736972,-0.0711659,-0.018294713,-0.005836704,0.0,-4.583335,-1.5035939,1.2061278,-3.0473802,0.0,0.40711868,0.0736972,0.0054090205,0.0037177312,0.026471479,0.017615285,inf,inf,inf,inf,1,1,1,1,2,1,2,3,0,0,0
241263914,0,0.0,0.0,0.3682746,0.32030317,-0.3518382,0.011355724,0.46770203,2.096495,0.07093665,-0.064308085,-0.07322373,-0.07247878,-0.018294713,-0.005836704,0.0,1.5099808,5.19189,0.463298,-3.0541434,0.0,0.4162898,0.07322373,0.005331528,0.0036665539,0.026288953,0.01750747,inf,inf,inf,inf,1,1,1,1,2,1,2,3,0,0,0
241367881,0,0.0,0.0,0.37880445,0.30944228,-0.3615433,0.011355724,0.46770203,2.096495,0.08202544,-0.0814886,-0.070662424,-0.071332954,-0.018294713,-0.005836704,0.0,3.4749186,1.749154,0.21531965,-3.0589175,0.0,0.4259949,0.070662424,0.005089286,0.0035073364,0.02570717,0.0171607,inf,inf,inf,inf,1,1,1,1,2,1,2,3,0,0,0
241471870,0,0.0,0.0,0.38962302,0.29776865,-0.36948618,0.011355724,0.46770203,2.096495,0.08927845,-0.08071309,-0.06034797,-0.06150702,-0.018294713,-0.005836704,0.0,7.064236,1.8971293,-1.0888633,-3.0616672,0.0,0.4339378,0.06034797,0.005146812,0.0035462992,0.025757438,0.017206855,inf,inf,inf,inf,1,1,1,1,2,1,2,3,0,0,0
241567870,0,0.0,0.0,0.39875305,0.287455,-0.37447074,0.011355724,0.46770203,2.096495,0.06676624,-0.08672767,-0.041797113,-0.042418197,-0.018294713,-0.005836704,0.0,-4.1855903,-3.541699,-2.1512265,-3.0644426,0.0,0.43892235,0.041797113,0.0054346374,0.0037346983,0.026490692,0.017655738,inf,inf,inf,inf,1,1,1,1,2,1,2,3,0,0,0
241671913,0,0.0,0.0,0.4064842,0.2783403,-0.37669998,0.011355724,0.46770203,2.096495,0.05349976,-0.06023387,-0.021554975,-0.02072544,-0.018294713,-0.005836704,0.0,-5.959897,2.069739,-0.01881496,-3.064382,0.0,0.4411516,0.021554975,0.005137347,0.0035416202,0.025723513,0.017201444,inf,inf,inf,inf,1,1,1,1,2,1,2,3,0,0,0
241775899,0,0.0,0.0,0.41183284,0.27164954,-0.37663826,0.011355724,0.46770203,2.096495,0.060210116,-0.04914516,-0.022962788,-0.020185836,-0.018294713,-0.005836704,0.0,2.463914,3.0782475,-0.6989344,-3.0616357,0.0,0.44108987,0.022962788,0.0052071773,0.00358826,0.025884917,0.017305251,inf,inf,inf,inf,1,1,1,1,2,1,2,3,0,0,0
241879110,0,0.0,0.0,0.41513783,0.26946747,-0.3759905,0.011355724,0.46770203,2.096495,0.038070608,0.003422092,-0.016595567,-0.012007629,-0.018294713,-0.005836704,0.0,-1.9261276,3.1238277,-0.867308,-3.0586653,0.0,0.44044212,0.016595567,0.005292755,0.0036440776,0.026143316,0.017463703,inf,inf,inf,inf,1,1,1,1,2,1,2,3,0,0,0
241975077,0,0.0,0.0,0.41613445,0.2723569,-0.37535438,0.011355724,0.46770203,2.096495,0.030498683,0.024639225,-0.02154217,-0.015972845,-0.018294713,-0.005836704,0.0,0.56966066,3.096306,-0.20276555,-3.0536792,0.0,0.43980598,0.02154217,0.0052113766,0.003591337,0.02591044,0.01731112,inf,inf,inf,inf,1,1,1,1,2,1,2,3,0,0,0
242079070,0,0.0,0.0,0.4154338,0.2798428,-0.37532622,0.011355724,0.46770203,2.096495,0.00912463,0.062130645,-0.014914383,-0.009142306,-0.018294713,-0.005836704,0.0,-3.6399894,3.4732373,1.503238,-3.0478246,0.0,0.43977782,0.014914383,0.00526578,0.0036262888,0.026063368,0.017389823,inf,inf,inf,inf,1,1,1,1,2,1,2,3,0,0,0
242183117,0,0.0,0.0,0.41340467,0.29255837,-0.37698972,0.011355724,0.46770203,2.096495,0.011159777,0.087063886,-0.029621841,-0.024340287,-0.018294713,-0.005836704,0.0,-0.34458154,-3.5906801,0.93472445,-3.0434833,0.0,0.44144133,0.029621841,0.0053527285,0.0036818397,0.026314085,0.01753928,inf,inf,inf,inf,1,1,1,1,2,1,2,3,0,0,0
242279070,0,0.0,0.0,0.4114331,0.30761752,-0.3805169,0.011355724,0.46770203,2.096495,0.019671537,0.11577972,-0.047466043,-0.043050878,-0.018294713,-0.005836704,0.0,-2.3590708,0.018411027,2.2082276,-3.040081,0.0,0.4449685,0.047466043,0.0052546104,0.0036184078,0.026018608,0.017359925,inf,inf,inf,inf,1,1,1,1,2,1,2,3,0,0,0
242383070,0,0.0,0.0,0.41100988,0.32534084,-0.38668394,0.011355724,0.46770203,2.096495,0.016732015,0.12889002,-0.052237265,-0.04922179,-0.018294713,-0.005836704,0.0,-2.1119258,0.21721466,-0.20647193,-3.038636,0.0,0.45113555,0.052237265,0.0053296504,0.0036662489,0.026259461,0.017499436,inf,inf,inf,inf,1,1,1,1,2,1,2,3,0,0,0
242487098,0,0.0,0.0,0.41301998,0.34447008,-0.39460275,0.011355724,0.46770203,2.096495,0.039086,0.13517384,-0.06921974,-0.06779184,-0.018294713,-0.005836704,0.0,2.9406023,-1.3777065,0.83748466,-3.0413146,0.0,0.45905435,0.06921974,0.005382627,0.0037003986,0.026398852,0.017569669,inf,inf,inf,inf,1,1,1,1,2,1,2,3,0,0,0
242583070,0,0.0,0.0,0.41672203,0.36137486,-0.40256846,0.011355724,0.46770203,2.096495,0.03357372,0.15398137,-0.0716673,-0.07151701,-0.018294713,-0.005836704,0.0,-6.2498236,2.052465,-1.2108159,-3.0432565,0.0,0.46702006,0.0716673,0.0053021424,0.003647728,0.026188927,0.017454736,inf,inf,inf,inf,1,1,1,1,2,1,2,3,0,0,0
242690276,0,0.0,0.0,0.42330152,0.37865725,-0.41247806,0.011355724,0.46770203,2.096495,0.0660941,0.13080674,-0.08520942,-0.08603343,-0.018294713,-0.005836704,0.0,2.3241024,1.3367578,-0.14412339,-3.0471509,0.0,0.47692966,0.08520942,0.005077245,0.0034994876,0.025683075,0.017150104,inf,inf,inf,inf,1,1,1,1,2,1,2,3,0,0,0
242786271,0,0.0,0.0,0.43139055,0.39169684,-0.42204446,0.011355724,0.46770203,2.096495,0.06647349,0.11681381,-0.0969369,-0.09819869,-0.018294713,-0.005836704,0.0,1.735815,-4.8569937,-1.5776242,-3.0516577,0.0,0.48649606,0.0969369,0.005457063,0.0037475866,0.026800148,0.017841812,inf,inf,inf,inf,1,1,1,1,2,1,2,3,0,0,0
242890282,0,0.0,0.0,0.44168895,0.40270948,-0.4324693,0.011355724,0.46770203,2.096495,0.0669908,0.106788166,-0.08996794,-0.09130954,-0.018294713,-0.005836704,0.0,2.247211,-0.28973964,-0.44308499,-3.0526583,0.0,0.4969209,0.08996794,0.0051402487,0.003542921,0.025846528,0.01727445,inf,inf,inf,inf,1,1,1,1,2,1,2,3,0,0,0
242994276,0,0.0,0.0,0.4528098,0.41044542,-0.4428478,0.011355724,0.46770203,2.096495,0.07807091,0.09642987,-0.10278885,-0.10390684,-0.018294713,-0.005836704,0.0,1.2841333,1.359692,-0.51082355,-3.054598,0.0,0.50729936,0.10278885,0.0051955185,0.0035801232,0.02589019,0.017298471,inf,inf,inf,inf,1,1,1,1,2,1,2,3,0,0,0
243090270,0,0.0,0.0,0.46296695,0.4145199,-0.4523964,0.011355724,0.46770203,2.096495,0.079290204,0.07119357,-0.10029117,-0.10093192,-0.018294713,-0.005836704,0.0,2.4382715,-5.147465,0.22333519,-3.0582764,0.0,0.51684797,0.10029117,0.0051232753,0.0035329054,0.025710767,0.01718622,inf,inf,inf,inf,1,1,1,1,2,1,2,3,0,0,0
243194269,0,0.0,0.0,0.47320187,0.41648605,-0.46188337,0.011355724,0.46770203,2.096495,0.058780223,0.059026904,-0.07067534,-0.07078399,-0.018294713,-0.005836704,0.0,-3.5138233,-4.793147,1.6918371,-3.0619543,0.0,0.52633494,0.07067534,0.0051886346,0.003575467,0.025876952,0.017282072,inf,inf,inf,inf,1,1,1,1,2,1,2,3,0,0,0
243298288,0,0.0,0.0,0.48121825,0.41693243,-0.46772024,0.011355724,0.46770203,2.096495,0.045408316,0.044750698,-0.052319285,-0.051693667,-0.018294713,-0.005836704,0.0,-0.83615136,-3.3074644,-0.10585828,-3.0667806,0.0,0.53217185,0.052319285,0.0052510845,0.0036160094,0.02604104,0.017377913,inf,inf,inf,inf,1,1,1,1,2,1,2,3,0,0,0
243402316,0,0.0,0.0,0.48701227,0.4161577,-0.47094005,0.011355724,0.46770203,2.096495,0.036912527,0.032343853,-0.028830694,-0.026763074,-0.018294713,-0.005836704,0.0,0.1520177,1.1757708,2.4148886,-3.0712643,0.0,0.5353916,0.028830694,0.0053282664,0.003666651,0.026216654,0.017509792,inf,inf,inf,inf,1,1,1,1,2,1,2,3,0,0,0
243497473,0,0.0,0.0,0.49021316,0.41544226,-0.47182515,0.011355724,0.46770203,2.096495,0.036561854,0.03220965,-0.028710771,-0.024907555,-0.018294713,-0.005836704,0.0,-0.51688963,-0.028170096,0.9255905,-3.0745044,0.0,0.53627676,0.028710771,0.005228527,0.0036028114,0.02590279,0.017319335,inf,inf,inf,inf,1,1,1,1,2,1,2,3,0,0,0
243601476,0,0.0,0.0,0.49128717,0.4139987,-0.4713476,0.011355724,0.46770203,2.096495,0.014159768,0.022138147,-0.022455033,-0.016910147,-0.018294713,-0.005836704,0.0,1.2376746,-0.72381866,-1.0266863,-3.077266,0.0,0.5357992,0.022455033,0.00528816,0.0036423905,0.026097827,0.01744253,inf,inf,inf,inf,1,1,1,1,2,1,2,3,0,0,0
243705495,0,0.0,0.0,0.49007306,0.41127992,-0.47073498,0.011355724,0.46770203,2.096495,-0.02024744,0.0012496926,-0.0069832667,-0.00040043393,-0.018294713,-0.005836704,0.0,-2.5869524,1.3354568,2.5139713,-3.0800173,0.0,0.5351866,0.0069832667,0.005396076,0.0037119319,0.026429035,0.017631792,inf,inf,inf,inf,1,1,1,1,2,1,2,3,0,0,0
243801479,0,0.0,0.0,0.48715004,0.40855914,-0.47043192,0.011355724,0.46770203,2.096495,-0.025202623,0.0021465875,-0.020355223,-0.013614551,-0.018294713,-0.005836704,0.0,-0.19625187,4.494114,-2.2582831,-3.0805025,0.0,0.5348835,0.020355223,0.0053283735,0.0036675027,0.026256027,0.017514352,inf,inf,inf,inf,1,1,1,1,2,1,2,3,0,0,0
243905489,0,0.0,0.0,0.48276168,0.40497872,-0.47104642,0.011355724,0.46770203,2.096495,-0.034724854,-0.023836322,-0.015465498,-0.009287664,-0.018294713,-0.005836704,0.0,-2.6260335,-0.014647909,2.367609,-3.0802662,0.0,0.535498,0.015465498,0.005377906,0.0037000852,0.026328268,0.01755441,inf,inf,inf,inf,1,1,1,1,2,1,2,3,0,0,0
244009470,0,0.0,0.0,0.47736406,0.40164736,-0.47285074,0.011355724,0.46770203,2.096495,-0.05599385,-0.01683391,-0.020380555,-0.015372936,-0.018294713,-0.005836704,0.0,-2.9505024,-3.0656972,0.21326442,-3.079076,0.0,0.5373023,0.020380555,0.0050890422,0.0035100481,0.025634162,0.01713126,inf,inf,inf,inf,1,1,1,1,2,1,2,3,0,0,0
244112676,0,0.0,0.0,0.4707074,0.39808536,-0.47492412,0.011355724,0.46770203,2.096495,-0.07566476,-0.025195435,-0.013128482,-0.009550444,-0.018294713,-0.005836704,0.0,-5.062063,0.11827819,-0.69134426,-3.077826,0.0,0.5393757,0.013128482,0.005157638,0.0035544496,0.02580441,0.017227123,inf,inf,inf,inf,1,1,1,1,2,1,2,3,0,0,0
244216670,0,0.0,0.0,0.462677,0.3942754,-0.47753108,0.011355724,0.46770203,2.096495,-0.08322202,-0.03351239,-0.026632,-0.024313353,-0.018294713,-0.005836704,0.0,-2.9318893,-2.5911858,-0.11109597,-3.077632,0.0,0.54198265,0.026632,0.0052045053,0.0035853146,0.025897732,0.017287455,inf,inf,inf,inf,1,1,1,1,2,1,2,3,0,0,0
244312678,0,0.0,0.0,0.45534638,0.39132217,-0.48117334,0.011355724,0.46770203,2.096495,-0.07622803,-0.020579878,-0.02025405,-0.018930288,-0.018294713,-0.005836704,0.0,-1.8990813,1.8771116,2.5432124,-3.0778759,0.0,0.5456249,0.02025405,0.0051368675,0.0035403587,0.025768597,0.017213076,inf,inf,inf,inf,1,1,1,1,2,1,2,3,0,0,0
244416702,0,0.0,0.0,0.44799814,0.38817966,-0.48607695,0.011355724,0.46770203,2.096495,-0.08260061,-0.022600975,-0.035973515,-0.03577561,-0.018294713,-0.005836704,0.0,-3.6450667,-1.9993088,2.5389106,-3.0778584,0.0,0.5505285,0.035973515,0.0052108825,0.0035889018,0.025951482,0.017313965,inf,inf,inf,inf,1,1,1,1,2,1,2,3,0,0,0
244520669,0,0.0,0.0,0.4413497,0.3869533,-0.49130407,0.011355724,0.46770203,2.096495,-0.08180206,-0.027212435,-0.03905417,-0.039956942,-0.018294713,-0.005836704,0.0,-1.4869518,-4.768965,-0.06966466,-3.080643,0.0,0.5557557,0.03905417,0.005278229,0.003632719,0.02612173,0.017419687,inf,inf,inf,inf,1,1,1,1,2,1,2,3,0,0,0
244616670,0,0.0,0.0,0.43601325,0.3854579,-0.49659377,0.011355724,0.46770203,2.096495,-0.06942508,-0.02337654,-0.035840876,-0.03758883,-0.018294713,-0.005836704,0.0,1.7502892,0.035032745,1.4202114,-3.0836554,0.0,0.56104535,0.035840876,0.005205477,0.0035852292,0.025913138,0.017302155,inf,inf,inf,inf,1,1,1,1,2,1,2,3,0,0,0
244720690,0,0.0,0.0,0.43055502,0.38488105,-0.501873,0.011355724,0.46770203,2.096495,-0.056686863,-0.0020320534,-0.041867696,-0.044178292,-0.018294713,-0.005836704,0.0,3.146046,1.6715549,-0.3663108,-3.0853038,0.0,0.5663246,0.041867696,0.0052906848,0.003640658,0.026163468,0.017447297,inf,inf,inf,inf,1,1,1,1,2,1,2,3,0,0,0
244823869,0,0.0,0.0,0.42579538,0.3846995,-0.50674796,0.011355724,0.46770203,2.096495,-0.06069683,-0.016336096,-0.040345024,-0.04282109,-0.018294713,-0.005836704,0.0,1.719091,3.017589,0.14425763,-3.0870056,0.0,0.57119954,0.040345024,0.0053590843,0.0036860474,0.026304442,0.017532542,inf,inf,inf,inf,1,1,1,1,2,1,2,3,0,0,0
244927879,0,0.0,0.0,0.42204463,0.38404372,-0.51188207,0.011355724,0.46770203,2.096495,-0.062118452,-0.005795447,-0.03204087,-0.034377635,-0.018294713,-0.005836704,0.0,-2.4002316,4.0948777,2.137201,-3.0890503,0.0,0.57633364,0.03204087,0.0054279706,0.0037309933,0.02648946,0.017649956,inf,inf,inf,inf,1,1,1,1,2,1,2,3,0,0,0
245023876,0,0.0,0.0,0.41918144,0.38313133,-0.51580405,0.011355724,0.46770203,2.096495,-0.05421081,-0.029052544,-0.03430041,-0.036443643,-0.018294713,-0.005836704,0.0,3.0853386,-1.6916372,-0.8172404,-3.0909982,0.0,0.5802556,0.03430041,0.005352382,0.0036810965,0.026343454,0.017556181,inf,inf,inf,inf,1,1,1,1,2,1,2,3,0,0,0
245127913,0,0.0,0.0,0.41664824,0.3816904,-0.5197562,0.011355724,0.46770203,2.096495,-0.0471369,-0.013875149,-0.037274953,-0.039106816,-0.018294713,-0.005836704,0.0,1.9029871,-0.22853187,-0.65499026,-3.0935023,0.0,0.5842078,0.037274953,0.00508142,0.0035042646,0.02562867,0.01713028,inf,inf,inf,inf,1,1,1,1,2,1,2,3,0,0,0
245231870,0,0.0,0.0,0.4150659,0.3804181,-0.5236522,0.011355724,0.46770203,2.096495,-0.038695417,-0.018757615,-0.039412666,-0.04084026,-0.018294713,-0.005836704,0.0,0.36438575,1.7326016,-1.2270305,-3.0958178,0.0,0.5881038,0.039412666,0.0051413486,0.0035442198,0.025743425,0.017203271,inf,inf,inf,inf,1,1,1,1,2,1,2,3,0,0,0
245327877,0,0.0,0.0,0.41473302,0.37913802,-0.526891,0.011355724,0.46770203,2.096495,-0.0007685558,-0.009194325,-0.04267109,-0.043814324,-0.018294713,-0.005836704,0.0,3.9848542,3.0949926,-2.3170366,-3.0988379,0.0,0.59134257,0.04267109,0.0054310868,0.0037332792,0.026500957,0.017655253,inf,inf,inf,inf,1,1,1,1,2,1,2,3,0,0,0
245431870,0,0.0,0.0,0.41561842,0.37760702,-0.52975875,0.011355724,0.46770203,2.096495,0.00404548,-0.013306803,-0.019613063,-0.020543069,-0.018294713,-0.005836704,0.0,7.4861073,1.4648106,-1.0764383,-3.0994697,0.0,0.5942103,0.019613063,0.005106325,0.0035217328,0.025638748,0.017136,inf,inf,inf,inf,1,1,1,1,2,1,2,3,0,0,0
245535876,0,0.0,0.0,0.41729388,0.37621945,-0.5308474,0.011355724,0.46770203,2.096495,0.0011251823,-0.022366866,-0.010245229,-0.010864811,-0.018294713,-0.005836704,0.0,4.815507,-1.9051399,-0.5147963,-3.0983794,0.0,0.59529895,0.010245229,0.0051802853,0.0035696223,0.025858592,0.017272813,inf,inf,inf,inf,1,1,1,1,2,1,2,3,0,0,0
245635095,0,0.0,0.0,0.42036888,0.3739363,-0.5318241,0.011355724,0.46770203,2.096495,0.014158337,-0.024851121,-0.01547787,-0.015552351,-0.018294713,-0.005836704,0.0,-3.557672,2.659289,0.52236974,-3.0941865,0.0,0.5962757,0.01547787,0.0051532346,0.003550996,0.025856964,0.017282201,inf,inf,inf,inf,1,1,1,1,2,1,2,3,0,0,0
245739076,0,0.0,0.0,0.42527112,0.37154353,-0.53434765,0.011355724,0.46770203,2.096495,0.032903764,-0.021328986,-0.03152891,-0.03118519,-0.018294713,-0.005836704,0.0,-3.2041547,2.1374805,1.4325594,-3.089261,0.0,0.5987992,0.03152891,0.0053412416,0.0036740433,0.026533987,0.017704051,inf,inf,inf,inf,1,1,1,1,2,1,2,3,0,0,0
245835070,0,0.0,0.0,0.4308307,0.36910188,-0.5378042,0.011355724,0.46770203,2.096495,0.038669318,-0.03007402,-0.047831744,-0.047687974,-0.018294713,-0.005836704,0.0,1.4859082,-2.6599934,-2.1807635,-3.0826163,0.0,0.60225576,0.047831744,0.005220961,0.0035973531,0.026050612,0.017397828,inf,inf,inf,inf,1,1,1,1,2,1,2,3,0,0,0
245939125,0,0.0,0.0,0.43731624,0.36602876,-0.5433151,0.011355724,0.46770203,2.096495,0.03070861,-0.035317704,-0.042257518,-0.04298082,-0.018294713,-0.005836704,0.0,-0.97226274,3.049731,-0.3355189,-3.0752788,0.0,0.6077667,0.042257518,0.005286397,0.0036396838,0.026182193,0.017465128,inf,inf,inf,inf,1,1,1,1,2,1,2,3,0,0,0
246043088,0,0.0,0.0,0.44275445,0.3622454,-0.54982406,0.011355724,0.46770203,2.096495,0.035136033,-0.038033452,-0.048451714,-0.050282683,-0.018294713,-0.005836704,0.0,-0.2315062,2.793475,1.8983802,-3.068249,0.0,0.61427563,0.048451714,0.005346279,0.00367834,0.026308663,0.017531322,inf,inf,inf,inf,1,1,1,1,2,1,2,3,0,0,0
246139074,0,0.0,0.0,0.44624048,0.35756603,-0.55639064,0.011355724,0.46770203,2.096495,0.021693919,-0.04452949,-0.05935324,-0.062048003,-0.018294713,-0.005836704,0.0,-1.6621811,2.967469,-1.7161846,-3.0618129,0.0,0.6208422,0.05935324,0.005285653,0.0036379495,0.026164738,0.017448159,inf,inf,inf,inf,1,1,1,1,2,1,2,3,0,0,0
246243080,0,0.0,0.0,0.44845992,0.3508668,-0.5632727,0.011355724,0.46770203,2.096495,0.0138670225,-0.06740208,-0.03817771,-0.041435618,-0.018294713,-0.005836704,0.0,-0.9012335,2.289364,-0.09007794,-3.0554225,0.0,0.6277243,0.03817771,0.005348206,0.003678725,0.026302915,0.017534567,inf,inf,inf,inf,1,1,1,1,2,1,2,3,0,0,0
246347079,0,0.0,0.0,0.44998223,0.34257483,-0.5682895,0.011355724,0.46770203,2.096495,0.020201135,-0.083580725,-0.031117681,-0.034369987,-0.018294713,-0.005836704,0.0,0.32284418,4.0306654,2.0696707,-3.048527,0.0,0.6327411,0.031117681,0.0053724325,0.003695469,0.026306426,0.017540127,inf,inf,inf,inf,1,1,1,1,2,1,2,3,0,0,0
246449520,0,0.0,0.0,0.45009294,0.3326585,-0.5705464,0.011355724,0.46770203,2.096495,0.026329737,-0.10994893,-0.02548284,-0.027939348,-0.018294713,-0.005836704,0.0,2.3441172,-0.20159519,-0.9028497,-3.0430899,0.0,0.63499796,0.02548284,0.005430377,0.0037334808,0.026471466,0.017653106,inf,inf,inf,inf,1,1,1,1,2,1,2,3,0,0,0
246546270,0,0.0,0.0,0.44857,0.32129607,-0.5715788,0.011355724,0.46770203,2.096495,-0.012717742,-0.13041171,-0.0048448197,-0.0060169096,-0.018294713,-0.005836704,0.0,-3.2502356,-2.3187494,2.2972438,-3.0395129,0.0,0.6360304,0.0048448197,0.005363209,0.0036891645,0.026350025,0.017585065,inf,inf,inf,inf,1,1,1,1,2,1,2,3,0,0,0
246650290,0,0.0,0.0,0.4448817,0.3074937,-0.57230854,0.011355724,0.46770203,2.096495,-0.004497019,-0.13076891,-0.029866891,-0.029584885,-0.018294713,-0.005836704,0.0,2.37514,-3.194315,-1.0478324,-3.037159,0.0,0.6367601,0.029866891,0.0050999327,0.0035175912,0.0256745,0.017175637,inf,inf,inf,inf,1,1,1,1,2,1,2,3,0,0,0
246754269,0,0.0,0.0,0.43935987,0.2920219,-0.5725988,0.011355724,0.46770203,2.096495,-0.015256247,-0.12225282,-0.013234478,-0.012045034,-0.018294713,-0.005836704,0.0,1.9418385,2.9949834,-2.300578,-3.0361307,0.0,0.6370504,0.013234478,0.0051809815,0.0035710384,0.025864746,0.017285233,inf,inf,inf,inf,1,1,1,1,2,1,2,3,0,0,0
246850270,0,0.0,0.0,0.43378052,0.27721664,-0.57214826,0.011355724,0.46770203,2.096495,-0.02354913,-0.14876258,0.0065100957,0.007967678,-0.018294713,-0.005836704,0.0,1.931671,-4.977777,0.76346624,-3.0350776,0.0,0.63659984,-0.0065100957,0.0054909238,0.0037725926,0.026659923,0.01775553,inf,inf,inf,inf,1,1,1,1,2,1,2,3,0,0,0
246954286,0,0.0,0.0,0.42726088,0.26062396,-0.57037604,0.011355724,0.46770203,2.096495,-0.02189851,-0.1416414,-0.0017947756,-0.00013794421,-0.018294713,-0.005836704,0.0,1.9746448,1.6823088,-2.4717858,-3.0331616,0.0,0.6348276,0.0017947756,0.0051585543,0.0035564273,0.025758158,0.017214816,inf,inf,inf,inf,1,1,1,1,2,1,2,3,0,0,0
247058273,0,0.0,0.0,0.42216673,0.24424809,-0.56830806,0.011355724,0.46770203,2.096495,-0.008844365,-0.12977095,0.009008383,0.010997278,-0.018294713,-0.005836704,0.0,5.0064526,4.6105657,-1.0141976,-3.0338702,0.0,0.63275963,-0.009008383,0.005231215,0.0036039227,0.025952946,0.017342653,inf,inf,inf,inf,1,1,1,1,2,1,2,3,0,0,0
247161477,0,0.0,0.0,0.42014715,0.22971937,-0.5672481,0.011355724,0.46770203,2.096495,0.0015658766,-0.13050245,0.005956402,0.008196523,-0.018294713,-0.005836704,0.0,0.19879298,5.405339,1.8008609,-3.0372274,0.0,0.6316997,-0.005956402,0.0053173476,0.0036597012,0.026212482,0.01749232,inf,inf,inf,inf,1,1,1,1,2,1,2,3,0,0,0
247265470,0,0.0,0.0,0.42085138,0.21694753,-0.5668861,0.011355724,0.46770203,2.096495,0.020245606,-0.11661423,-0.01419846,-0.012085228,-0.018294713,-0.005836704,0.0,-2.570228,3.0721698,0.22916605,-3.0395317,0.0,0.6313377,0.01419846,0.0053625964,0.0036893133,0.026307542,0.0175307,inf,inf,inf,inf,1,1,1,1,2,1,2,3,0,0,0
247361470,0,0.0,0.0,0.4243134,0.20647518,-0.56795484,0.011355724,0.46770203,2.096495,0.032352846,-0.12743515,-0.005678821,-0.004102211,-0.018294713,-0.005836704,0.0,1.7717767,0.393068,-1.8950852,-3.042097,0.0,0.6324064,0.005678821,0.00529372,0.0036437744,0.026174145,0.017461242,inf,inf,inf,inf,1,1,1,1,2,1,2,3,0,0,0
247465489,0,0.0,0.0,0.4294047,0.19635358,-0.56929713,0.011355724,0.46770203,2.096495,0.027639383,-0.109647006,-0.0022966191,-0.0016362866,-0.018294713,-0.005836704,0.0,-0.7344643,0.5342743,-0.74215835,-3.0432105,0.0,0.6337487,0.0022966191,0.0053687044,0.003691474,0.026384238,0.01756559,inf,inf,inf,inf,1,1,1,1,2,1,2,3,0,0,0
247569471,0,0.0,0.0,0.43533477,0.18723765,-0.57039094,0.011355724,0.46770203,2.096495,0.048569486,-0.09575067,-0.016761618,-0.016763942,-0.018294713,-0.005836704,0.0,1.1507595,5.007154,0.11263307,-3.0417116,0.0,0.6348425,0.016761618,0.005101993,0.0035170927,0.025695026,0.017163053,inf,inf,inf,inf,1,1,1,1,2,1,2,3,0,0,0
247665478,0,0.0,0.0,0.4416382,0.18070127,-0.57269764,0.011355724,0.46770203,2.096495,0.04614534,-0.105673164,-0.026177445,-0.026413105,-0.018294713,-0.005836704,0.0,-1.2092005,-4.765317,-2.236536,-3.0416703,0.0,0.6371492,0.026177445,0.00541341,0.0037203135,0.0264865,0.017651374,inf,inf,inf,inf,1,1,1,1,2,1,2,3,0,0,0
247769476,0,0.0,0.0,0.44824573,0.17422251,-0.576351,0.011355724,0.46770203,2.096495,0.048627738,-0.083717555,-0.04165702,-0.04210744,-0.018294713,-0.005836704,0.0,2.7739224,-0.9310306,-1.6916236,-3.037742,0.0,0.64080256,0.04165702,0.005475382,0.0037614005,0.026626097,0.01772421,inf,inf,inf,inf,1,1,1,1,2,1,2,3,0,0,0
247873470,0,0.0,0.0,0.45381317,0.16917843,-0.58081824,0.011355724,0.46770203,2.096495,0.044718,-0.059497617,-0.034733064,-0.035596173,-0.018294713,-0.005836704,0.0,3.7497895,2.1164043,0.6081872,-3.0344875,0.0,0.6452698,0.034733064,0.0051713013,0.0035630895,0.02585599,0.017259322,inf,inf,inf,inf,1,1,1,1,2,1,2,3,0,0,0
247976670,0,0.0,0.0,0.4574361,0.16426364,-0.58442944,0.011355724,0.46770203,2.096495,0.015642416,-0.04820281,-0.011635257,-0.012917033,-0.018294713,-0.005836704,0.0,-1.4913158,2.3609016,0.19573413,-3.0309534,0.0,0.648881,0.011635257,0.0052286875,0.0036006072,0.025983926,0.017333895,inf,inf,inf,inf,1,1,1,1,2,1,2,3,0,0,0
248080669,0,0.0,0.0,0.45864752,0.16104668,-0.5864411,0.011355724,0.46770203,2.096495,0.009542619,-0.023246327,-0.018452454,-0.01960518,-0.018294713,-0.005836704,0.0,0.39216784,5.636207,-0.6047203,-3.0273063,0.0,0.6508927,0.018452454,0.0052903458,0.0036406044,0.026135543,0.017431902,inf,inf,inf,inf,1,1,1,1,2,1,2,3,0,0,0
248176681,0,0.0,0.0,0.45757928,0.16143484,-0.5878593,0.011355724,0.46770203,2.096495,-0.005467034,0.0037513485,-0.020629538,-0.02098143,-0.018294713,-0.005836704,0.0,0.081782125,0.092089094,-2.848688,-3.026052,0.0,0.65231085,0.020629538,0.0052327993,0.0036032968,0.026007516,0.017374003,inf,inf,inf,inf,1,1,1,1,2,1,2,3,0,0,0
248280710,0,0.0,0.0,0.45418823,0.16345489,-0.5898485,0.011355724,0.46770203,2.096495,-0.0065849232,0.017256657,-0.026947498,-0.02630071,-0.018294713,-0.005836704,0.0,0.6072519,1.3707762,2.1350029,-3.023277,0.0,0.6543001,0.026947498,0.0053085675,0.0036534583,0.026209604,0.017485376,inf,inf,inf,inf,1,1,1,1,2,1,2,3,0,0,0
248384670,0,0.0,0.0,0.4489456,0.16800284,-0.592333,0.011355724,0.46770203,2.096495,-0.01487863,0.029071545,-0.036026984,-0.034784243,-0.018294713,-0.005836704,0.0,-1.8470701,-3.863376,0.234227,-3.0246627,0.0,0.6567846,0.036026984,0.0053564063,0.0036853997,0.0262885,0.017533684,inf,inf,inf,inf,1,1,1,1,2,1,2,3,0,0,0
248480701,0,0.0,0.0,0.44370332,0.17285882,-0.59479403,0.011355724,0.46770203,2.096495,-0.013575154,0.0379601,-0.025775617,-0.024468632,-0.018294713,-0.005836704,0.0,-1.2467129,3.210565,2.6582131,-3.0267503,0.0,0.6592456,0.025775617,0.005293085,0.0036429567,0.02618528,0.017462209,inf,inf,inf,inf,1,1,1,1,2,1,2,3,0,0,0
248584669,0,0.0,0.0,0.4384941,0.17870991,-0.5972257,0.011355724,0.46770203,2.096495,-0.012046469,0.042921685,-0.020856481,-0.019640617,-0.018294713,-0.005836704,0.0,-1.3311223,1.189941,1.3899745,-3.0296953,0.0,0.6616773,0.020856481,0.005367551,0.0036911697,0.026355587,0.017566577,inf,inf,inf,inf,1,1,1,1,2,1,2,3,0,0,0
248683129,0,0.0,0.0,0.43449867,0.18391667,-0.5987363,0.011355724,0.46770203,2.096495,-0.0030389111,0.034453418,-0.021244971,-0.0199802,-0.018294713,-0.005836704,0.0,5.3341045,1.220967,-1.5747739,-3.0348403,0.0,0.66318786,0.021244971,0.00530003,0.003646984,0.026188286,0.01747195,inf,inf,inf,inf,1,1,1,1,2,1,2,3,0,0,0
248787870,0,0.0,0.0,0.43184638,0.18709873,-0.6005795,0.011355724,0.46770203,2.096495,0.0022523915,0.030484214,-0.0239477,-0.022382678,-0.018294713,-0.005836704,0.0,1.8089364,-1.439283,2.5497515,-3.040009,0.0,0.6650311,0.0239477,0.005405693,0.0037154602,0.026452703,0.01763366,inf,inf,inf,inf,1,1,1,1,2,1,2,3,0,0,0
248891888,0,0.0,0.0,0.43194604,0.18941388,-0.6038465,0.011355724,0.46770203,2.096495,0.008378236,0.01649177,-0.046145253,-0.044304524,-0.018294713,-0.005836704,0.0,-1.5042546,-3.6243958,-0.5379197,-3.0430174,0.0,0.66829807,0.046145253,0.005163125,0.0035592578,0.02594416,0.017351484,inf,inf,inf,inf,1,1,1,1,2,1,2,3,0,0,0
248987870,0,0.0,0.0,0.4345131,0.18986167,-0.60787946,0.011355724,0.46770203,2.096495,0.015466182,0.028159726,-0.03580954,-0.034221876,-0.018294713,-0.005836704,0.0,-3.1532238,1.6018327,3.4696617,-3.0461836,0.0,0.67233104,0.03580954,0.005448166,0.0037458274,0.02661022,0.017741708,inf,inf,inf,inf,1,1,1,1,2,1,2,3,0,0,0
249091876,0,0.0,0.0,0.4396719,0.18830207,-0.6130509,0.011355724,0.46770203,2.096495,0.017771538,-0.003265182,-0.039412912,-0.03855228,-0.018294713,-0.005836704,0.0,-4.245842,-2.3065944,0.95496565,-3.0493128,0.0,0.67750245,0.039412912,0.005114991,0.0035284476,0.025687816,0.017171241,inf,inf,inf,inf,1,1,1,1,2,1,2,3,0,0,0
249195894,0,0.0,0.0,0.4457503,0.18607807,-0.6186298,0.011355724,0.46770203,2.096495,0.029564722,0.022449635,-0.058037102,-0.057896305,-0.018294713,-0.005836704,0.0,-1.7164696,1.1730399,-0.69061565,-3.0490108,0.0,0.6830814,0.058037102,0.0052008806,0.0035835442,0.025943713,0.017321976,inf,inf,inf,inf,1,1,1,1,2,1,2,3,0,0,0
249299915,0,0.0,0.0,0.45231503,0.1834971,-0.62504196,0.011355724,0.46770203,2.096495,0.04992842,0.009588252,-0.062321488,-0.06264773,-0.018294713,-0.005836704,0.0,1.6344458,3.9793556,0.8129186,-3.0453782,0.0,0.68949354,0.062321488,0.0053096362,0.0036536546,0.026237974,0.017506802,inf,inf,inf,inf,1,1,1,1,2,1,2,3,0,0,0
249395911,0,0.0,0.0,0.45838413,0.18164559,-0.63235307,0.011355724,0.46770203,2.096495,0.03627454,0.022346312,-0.06976197,-0.07039544,-0.018294713,-0.005836704,0.0,0.8617264,3.0631502,-1.9366372,-3.0415905,0.0,0.69680464,0.06976197,0.00524245,0.0036097737,0.026056226,0.017382571,inf,inf,inf,inf,1,1,1,1,2,1,2,3,0,0,0
249499070,0,0.0,0.0,0.46409124,0.18096769,-0.6401685,0.011355724,0.46770203,2.096495,0.047561098,0.03335562,-0.062318563,-0.06334802,-0.018294713,-0.005836704,0.0,0.51395935,5.1522937,3.2310781,-3.033657,0.0,0.70462006,0.062318563,0.0052882526,0.0036405681,0.02610038,0.017403927,inf,inf,inf,inf,1,1,1,1,2,1,2,3,0,0,0
249603103,0,0.0,0.0,0.46914756,0.18201678,-0.646865,0.011355724,0.46770203,2.096495,0.042649303,0.015277431,-0.05126421,-0.052573107,-0.018294713,-0.005836704,0.0,-0.17761315,-5.7942424,-0.8715235,-3.0250921,0.0,0.7113166,0.05126421,0.0053435275,0.0036760704,0.026257994,0.01750409,inf,inf,inf,inf,1,1,1,1,2,1,2,3,0,0,0
249699070,0,0.0,0.0,0.47334614,0.1834108,-0.6515777,0.011355724,0.46770203,2.096495,0.03872357,0.026896631,-0.03604287,-0.037196886,-0.018294713,-0.005836704,0.0,-1.7151356,-2.2206573,2.078871,-3.018709,0.0,0.7160293,0.03604287,0.00525992,0.0036210422,0.026062628,0.017389882,inf,inf,inf,inf,1,1,1,1,2,1,2,3,0,0,0
249803091,0,0.0,0.0,0.47758853,0.18686798,-0.65519005,0.011355724,0.46770203,2.096495,0.05228984,0.056706075,-0.050330322,-0.05071799,-0.018294713,-0.005836704,0.0,2.0208561,-1.4787403,-1.5118384,-3.0165257,0.0,0.7196416,0.050330322,0.0053460044,0.0036778152,0.026271626,0.017536242,inf,inf,inf,inf,1,1,1,1,2,1,2,3,0,0,0
249907104,0,0.0,0.0,0.48216984,0.1913208,-0.659784,0.011355724,0.46770203,2.096495,0.038438506,0.049807403,-0.053958915,-0.053293943,-0.018294713,-0.005836704,0.0,-2.2232819,-1.8283013,-1.0863014,-3.016542,0.0,0.7242356,0.053958915,0.005423386,0.0037290363,0.026470212,0.017660018,inf,inf,inf,inf,1,1,1,1,2,1,2,3,0,0,0
250003070,0,0.0,0.0,0.48644638,0.19693105,-0.6644784,0.011355724,0.46770203,2.096495,0.06253568,0.06335834,-0.06649956,-0.06531433,-0.018294713,-0.005836704,0.0,1.2104677,-3.0798786,-0.13616028,-3.0197535,0.0,0.72893,0.06649956,0.0053226594,0.003663966,0.026213957,0.01749081,inf,inf,inf,inf,1,1,1,1,2,1,2,3,0,0,0
250105476,0,0.0,0.0,0.4917829,0.20454775,-0.67063135,0.011355724,0.46770203,2.096495,0.058798417,0.073371045,-0.058007333,-0.057005916,-0.018294713,-0.005836704,0.0,-0.20126055,1.3494005,-1.2902068,-3.0246172,0.0,0.7350829,0.058007333,0.0053772046,0.0036990312,0.02635144,0.01756698,inf,inf,inf,inf,1,1,1,1,2,1,2,3,0,0,0
250210293,0,0.0,0.0,0.498448,0.21229239,-0.6772853,0.011355724,0.46770203,2.096495,0.077022344,0.07509618,-0.05658493,-0.056304604,-0.018294713,-0.005836704,0.0,0.38325658,2.5076802,0.9657755,-3.0285916,0.0,0.7417369,0.05658493,0.005103242,0.0035185977,0.02570671,0.01716477,inf,inf,inf,inf,1,1,1,1,2,1,2,3,0,0,0
250314270,0,0.0,0.0,0.5057959,0.22035077,-0.68362933,0.011355724,0.46770203,2.096495,0.083116256,0.08056101,-0.06286277,-0.06323854,-0.018294713,-0.005836704,0.0,-1.3925587,-1.982694,1.3961936,-3.0343196,0.0,0.7480809,0.06286277,0.00516734,0.003560843,0.025831865,0.017254127,inf,inf,inf,inf,1,1,1,1,2,1,2,3,0,0,0
250418269,0,0.0,0.0,0.51445496,0.22888182,-0.6909504,0.011355724,0.46770203,2.096495,0.08676278,0.09232107,-0.06284929,-0.0635376,-0.018294713,-0.005836704,0.0,-1.1072658,-4.3079505,0.041234374,-3.0387878,0.0,0.75540197,0.06284929,0.005233434,0.0036038787,0.02598501,0.017357556,inf,inf,inf,inf,1,1,1,1,2,1,2,3,0,0,0
250514288,0,0.0,0.0,0.5233379,0.23708203,-0.69822216,0.011355724,0.46770203,2.096495,0.106215574,0.093097694,-0.074643224,-0.07552597,-0.018294713,-0.005836704,0.0,1.8925108,-1.9500095,1.4159796,-3.042256,0.0,0.76267374,0.074643224,0.005172498,0.0035641964,0.025847726,0.017265277,inf,inf,inf,inf,1,1,1,1,2,1,2,3,0,0,0
250618270,0,0.0,0.0,0.53352004,0.24579987,-0.70592874,0.011355724,0.46770203,2.096495,0.09121964,0.09992462,-0.06874339,-0.06985315,-0.018294713,-0.005836704,0.0,-1.2819691,-1.1510233,-1.2038791,-3.0444229,0.0,0.7703803,0.06874339,0.0052452916,0.003611901,0.026024248,0.017375471,inf,inf,inf,inf,1,1,1,1,2,1,2,3,0,0,0
250722323,0,0.0,0.0,0.5438497,0.25466275,-0.7140027,0.011355724,0.46770203,2.096495,0.08221581,0.101009,-0.06931364,-0.07049266,-0.018294713,-0.005836704,0.0,-1.0412363,5.3466434,0.15714149,-3.0463877,0.0,0.7784543,0.06931364,0.005328111,0.0036657294,0.026254393,0.017509313,inf,inf,inf,inf,1,1,1,1,2,1,2,3,0,0,0
250818276,0,0.0,0.0,0.55214643,0.26098606,-0.7214008,0.011355724,0.46770203,2.096495,0.078692235,0.08008569,-0.08085733,-0.081856914,-0.018294713,-0.005836704,0.0,1.4637132,3.6101449,-0.024783254,-3.0481358,0.0,0.7858524,0.08085733,0.0052467906,0.0036132184,0.026026595,0.017375952,inf,inf,inf,inf,1,1,1,1,2,1,2,3,0,0,0
250922318,0,0.0,0.0,0.55983084,0.26795077,-0.73020494,0.011355724,0.46770203,2.096495,0.06754402,0.09489401,-0.08878382,-0.08944127,-0.018294713,-0.005836704,0.0,1.3488699,4.845376,-1.9937642,-3.0475094,0.0,0.7946565,0.08878382,0.005308747,0.0036540069,0.02617267,0.017461883,inf,inf,inf,inf,1,1,1,1,2,1,2,3,0,0,0
251025505,0,0.0,0.0,0.56539667,0.27422023,-0.7398731,0.011355724,0.46770203,2.096495,0.053699553,0.05777193,-0.102457635,-0.10284295,-0.018294713,-0.005836704,0.0,1.6423808,-3.1085804,1.0794522,-3.0456576,0.0,0.8043247,0.102457635,0.0053581996,0.003685653,0.026281457,0.017516393,inf,inf,inf,inf,1,1,1,1,2,1,2,3,0,0,0
251129470,0,0.0,0.0,0.56823885,0.2798568,-0.7498799,0.011355724,0.46770203,2.096495,0.024643764,0.08368801,-0.09730787,-0.09760627,-0.018294713,-0.005836704,0.0,-0.15976137,-0.5000228,-0.8291993,-3.0459893,0.0,0.8143315,0.09730787,0.005082157,0.0035053603,0.025630064,0.017134408,inf,inf,inf,inf,1,1,1,1,2,1,2,3,0,0,0
251225470,0,0.0,0.0,0.5692036,0.28574947,-0.75946707,0.011355724,0.46770203,2.096495,0.024420053,0.070759624,-0.09259781,-0.092980996,-0.018294713,-0.005836704,0.0,-0.5545042,-0.93897235,0.0605701,-3.0488653,0.0,0.82391864,0.09259781,0.00539211,0.003706281,0.02645424,0.01762936,inf,inf,inf,inf,1,1,1,1,2,1,2,3,0,0,0
251329470,0,0.0,0.0,0.5679863,0.2903532,-0.7685993,0.011355724,0.46770203,2.096495,0.0049729557,0.060136903,-0.08751274,-0.08784186,-0.018294713,-0.005836704,0.0,-0.78296477,0.32766852,-1.2018299,-3.052139,0.0,0.83305085,0.08751274,0.0051123938,0.0035241381,0.025708497,0.017174495,inf,inf,inf,inf,1,1,1,1,2,1,2,3,0,0,0
251433509,0,0.0,0.0,0.5649321,0.2947716,-0.77726275,0.011355724,0.46770203,2.096495,-0.014926477,0.047806453,-0.08910618,-0.08889553,-0.018294713,-0.005836704,0.0,-1.2930253,2.1566865,-1.2100465,-3.0531006,0.0,0.8417143,0.08910618,0.0051715705,0.0035637745,0.025809474,0.017248562,inf,inf,inf,inf,1,1,1,1,2,1,2,3,0,0,0
251529480,0,0.0,0.0,0.56147027,0.2986756,-0.78610635,0.011355724,0.46770203,2.096495,-0.01963782,0.05826945,-0.10243849,-0.10146428,-0.018294713,-0.005836704,0.0,-1.6453085,0.44397047,-1.0805668,-3.0524774,0.0,0.8505579,0.10243849,0.005083733,0.003507057,0.025573218,0.01710903,inf,inf,inf,inf,1,1,1,1,2,1,2,3,0,0,0
251633473,0,0.0,0.0,0.5575503,0.303568,-0.7954785,0.011355724,0.46770203,2.096495,-0.02083942,0.045644253,-0.09817583,-0.09664793,-0.018294713,-0.005836704,0.0,-0.26135716,1.5591708,0.7899065,-3.0530314,0.0,0.8599301,0.09817583,0.0051371683,0.0035423783,0.025735613,0.017189093,inf,inf,inf,inf,1,1,1,1,2,1,2,3,0,0,0
251735913,0,0.0,0.0,0.5542841,0.30893788,-0.80456704,0.011355724,0.46770203,2.096495,-0.017223157,0.062943384,-0.0906638,-0.08902226,-0.018294713,-0.005836704,0.0,2.4754884,-1.1560831,-1.830292,-3.053287,0.0,0.8690186,0.0906638,0.0052237343,0.0035980719,0.025969956,0.017338606,inf,inf,inf,inf,1,1,1,1,2,1,2,3,0,0,0
251840670,0,0.0,0.0,0.55207914,0.31626442,-0.813271,0.011355724,0.46770203,2.096495,-0.02200785,0.08268857,-0.08486354,-0.08319696,-0.018294713,-0.005836704,0.0,-1.9494594,2.5144596,1.1662321,-3.052895,0.0,0.87772256,0.08486354,0.0052988525,0.0036468762,0.026159562,0.017455257,inf,inf,inf,inf,1,1,1,1,2,1,2,3,0,0,0
251936693,0,0.0,0.0,0.5504591,0.32445854,-0.8206608,0.011355724,0.46770203,2.096495,-0.016716378,0.09917229,-0.088261455,-0.08647146,-0.018294713,-0.005836704,0.0,2.898456,4.989145,-3.2633462,-3.0519087,0.0,0.8851124,0.088261455,0.0052102357,0.0035892841,0.025922075,0.017318137,inf,inf,inf,inf,1,1,1,1,2,1,2,3,0,0,0
252040734,0,0.0,0.0,0.54987216,0.33545262,-0.82848454,0.011355724,0.46770203,2.096495,-0.020177053,0.08204476,-0.0619976,-0.060112696,-0.018294713,-0.005836704,0.0,0.9104723,-5.440188,3.0359886,-3.0540752,0.0,0.8929361,0.0619976,0.005278052,0.0036338982,0.026094593,0.017424516,inf,inf,inf,inf,1,1,1,1,2,1,2,3,0,0,0
252144674,0,0.0,0.0,0.5505142,0.34919998,-0.834835,0.011355724,0.46770203,2.096495,-0.006833263,0.09877411,-0.062990405,-0.06105991,-0.018294713,-0.005836704,0.0,2.6960807,-2.297289,0.495335,-3.0589905,0.0,0.89928657,0.062990405,0.005353933,0.0036836509,0.026287964,0.017538164,inf,inf,inf,inf,1,1,1,1,2,1,2,3,0,0,0
