timestamp,ref_timestamp,ref_lat,ref_lon,x,y,z,delta_xy[0],delta_xy[1],delta_z,vx,vy,vz,z_deriv,delta_vxy[0],delta_vxy[1],delta_vz,ax,ay,az,yaw,ref_alt,dist_bottom,dist_bottom_rate,eph,epv,evh,evv,vxy_max,vz_max,hagl_min,hagl_max,xy_valid,z_valid,v_xy_valid,v_z_valid,xy_reset_counter,z_reset_counter,vxy_reset_counter,vz_reset_counter,xy_global,z_global,dist_bottom_valid
161922470,0,0.0,0.0,0.302883,0.43615252,-0.035823327,0.1438288,-0.56665117,-0.69388527,0.0016454312,-0.0007710424,0.0009521986,0.0008350206,-0.18046547,0.8028265,0.0,0.14511791,-0.096134536,-0.012012551,3.0869243,0.0,0.1,-0.0009521986,0.0053834817,0.0037414806,0.025894416,0.017582918,inf,inf,inf,inf,1,1,1,1,6,7,6,13,0,0,0
162018499,0,0.0,0.0,0.30311364,0.43600738,-0.035672627,0.1438288,-0.56665117,-0.69388527,0.002201607,-0.00035734478,0.0018982681,0.0018138179,-0.18046547,0.8028265,0.0,0.15706314,-0.02638963,-0.013442087,3.086437,0.0,0.1,-0.0018982681,0.0055411123,0.003842999,0.026667561,0.018069206,inf,inf,inf,inf,1,1,1,1,6,7,6,13,0,0,0
162122470,0,0.0,0.0,0.30343273,0.43595248,-0.03546903,0.1438288,-0.56665117,-0.69388527,0.0019173381,-0.0018091204,0.0022492714,0.0021747032,-0.18046547,0.8028265,0.0,-0.14590842,-0.02015448,0.034755696,3.0851321,0.0,0.1,-0.0022492714,0.005150781,0.0035787816,0.025869263,0.017565863,inf,inf,inf,inf,1,1,1,1,6,7,6,13,0,0,0
162226470,0,0.0,0.0,0.30369356,0.43598664,-0.035307273,0.1438288,-0.56665117,-0.69388527,0.0027656392,-0.0006115954,0.0015299049,0.0014267068,-0.18046547,0.8028265,0.0,0.006188854,-0.16800204,0.06623839,3.086136,0.0,0.1,-0.0015299049,0.005235203,0.0036333133,0.026172716,0.0177585,inf,inf,inf,inf,1,1,1,1,6,7,6,13,0,0,0
162330471,0,0.0,0.0,0.3038958,0.43601716,-0.035260443,0.1438288,-0.56665117,-0.69388527,0.0024691208,-0.0002070638,0.0009692346,0.0008036425,-0.18046547,0.8028265,0.0,0.1047718,-0.25793698,-0.0608476,3.0863714,0.0,0.1,-0.0009692346,0.005310362,0.0036835966,0.026288442,0.01783283,inf,inf,inf,inf,1,1,1,1,6,7,6,13,0,0,0
162434476,0,0.0,0.0,0.30399692,0.43610182,-0.035326682,0.1438288,-0.56665117,-0.69388527,0.0018515928,0.0011216654,0.0006205757,0.0003656607,-0.18046547,0.8028265,0.0,-0.4481104,-0.26194343,-0.055222657,3.0869005,0.0,0.1,-0.0006205757,0.0053788633,0.0037295443,0.026419405,0.01791567,inf,inf,inf,inf,1,1,1,1,6,7,6,13,0,0,0
162530489,0,0.0,0.0,0.3040454,0.43619615,-0.035518803,0.1438288,-0.56665117,-0.69388527,0.002320005,-0.0015110279,-0.0012868424,-0.001632512,-0.18046547,0.8028265,0.0,0.04490295,-0.25629607,-0.018243358,3.0858397,0.0,0.1,0.0012868424,0.005302476,0.0036787833,0.026188705,0.01777024,inf,inf,inf,inf,1,1,1,1,6,7,6,13,0,0,0
162634474,0,0.0,0.0,0.3040238,0.43629673,-0.03580082,0.1438288,-0.56665117,-0.69388527,0.0022777405,0.0006234418,-0.0012652018,-0.0016723297,-0.18046547,0.8028265,0.0,0.09972365,-0.18350458,-0.037785895,3.0863223,0.0,0.1,0.0012652018,0.005405207,0.0037469838,0.026476497,0.017951315,inf,inf,inf,inf,1,1,1,1,6,7,6,13,0,0,0
162738492,0,0.0,0.0,0.30390865,0.43634626,-0.03610158,0.1438288,-0.56665117,-0.69388527,0.0017559832,-0.0003308742,-0.0021105765,-0.002547067,-0.18046547,0.8028265,0.0,-0.20318149,0.26113233,-0.24246332,3.086554,0.0,0.1,0.0021105765,0.0051159905,0.0035539703,0.025696985,0.017459475,inf,inf,inf,inf,1,1,1,1,6,7,6,13,0,0,0
162834470,0,0.0,0.0,0.3039326,0.43648744,-0.0364216,0.1438288,-0.56665117,-0.69388527,0.0025923648,0.0022556945,-0.0033653355,-0.003781379,-0.18046547,0.8028265,0.0,0.06901925,-0.42238337,0.17788798,3.0870461,0.0,0.10019292,0.0033653355,0.0054188776,0.003756348,0.026482854,0.017955752,inf,inf,inf,inf,1,1,1,1,6,7,6,13,0,0,0
162938469,0,0.0,0.0,0.3038094,0.43641216,-0.036732305,0.1438288,-0.56665117,-0.69388527,0.0024056633,0.0018176681,-0.0032149712,-0.0035606008,-0.18046547,0.8028265,0.0,-0.1405934,0.3047585,0.18568517,3.0848188,0.0,0.100424096,0.0032149712,0.005475766,0.0037946892,0.026602412,0.01803045,inf,inf,inf,inf,1,1,1,1,6,7,6,13,0,0,0
163042519,0,0.0,0.0,0.3037051,0.43643203,-0.036962543,0.1438288,-0.56665117,-0.69388527,-0.0013622047,-0.0046783164,-0.0019334655,-0.002157622,-0.18046547,0.8028265,0.0,-0.41505376,-0.7012486,0.3328925,3.0812254,0.0,0.10062261,0.0019334655,0.0051702503,0.0035905582,0.025828868,0.017544294,inf,inf,inf,inf,1,1,1,1,6,7,6,13,0,0,0
163138513,0,0.0,0.0,0.30339903,0.43657386,-0.037100825,0.1438288,-0.56665117,-0.69388527,0.0023074448,0.003370255,-0.0040951306,-0.004197918,-0.18046547,0.8028265,0.0,1.0351988,-0.10768805,-0.04469665,3.0865958,0.0,0.100676164,0.0040951306,0.005504773,0.003813231,0.026742296,0.0181188,inf,inf,inf,inf,1,1,1,1,6,7,6,13,0,0,0
163241670,0,0.0,0.0,0.30290207,0.43636203,-0.03720621,0.1438288,-0.56665117,-0.69388527,-0.0012871894,0.00016421205,-0.0019335804,-0.0018934509,-0.18046547,0.8028265,0.0,0.63505626,0.119699165,0.01891848,3.0873754,0.0,0.10081844,0.0019335804,0.0051653045,0.003587603,0.02578176,0.017512828,inf,inf,inf,inf,1,1,1,1,6,7,6,13,0,0,0
163345686,0,0.0,0.0,0.30247504,0.43636405,-0.03720355,0.1438288,-0.56665117,-0.69388527,-0.002100748,-0.0021992251,-0.0012357063,-0.0010274777,-0.18046547,0.8028265,0.0,0.45369008,-0.63956636,0.15622035,3.084134,0.0,0.10084325,0.0012357063,0.0052387803,0.0036364926,0.02600458,0.017655222,inf,inf,inf,inf,1,1,1,1,6,7,6,13,0,0,0
163449672,0,0.0,0.0,0.30201164,0.43636757,-0.03708098,0.1438288,-0.56665117,-0.69388527,-0.0025425248,-0.0018573487,-0.001367635,-0.0010290705,-0.18046547,0.8028265,0.0,0.35849226,-0.9701968,0.050440695,3.0843687,0.0,0.10068485,0.001367635,0.005059137,0.0035146514,0.02564236,0.017425096,inf,inf,inf,inf,1,1,1,1,6,7,6,13,0,0,0
163553674,0,0.0,0.0,0.30175623,0.43629658,-0.03690609,0.1438288,-0.56665117,-0.69388527,-0.0012521795,-0.0016577953,-0.00026438615,0.00018462626,-0.18046547,0.8028265,0.0,0.10394052,-0.8739871,-0.2391956,3.0853922,0.0,0.10056609,0.00026438615,0.00516912,0.0035889067,0.025865786,0.017568571,inf,inf,inf,inf,1,1,1,1,6,7,6,13,0,0,0
163657670,0,0.0,0.0,0.30171978,0.4362525,-0.03668942,0.1438288,-0.56665117,-0.69388527,-0.00043978606,-0.0027741136,-0.00046339817,6.444202e-05,-0.18046547,0.8028265,0.0,0.43207723,-0.38692102,-0.17503646,3.0849962,0.0,0.10038231,0.00046339817,0.0052484176,0.0036426412,0.026022546,0.01766905,inf,inf,inf,inf,1,1,1,1,6,7,6,13,0,0,0
163761679,0,0.0,0.0,0.30174556,0.4363001,-0.03638302,0.1438288,-0.56665117,-0.69388527,-0.00052481313,-0.001743086,0.0009302528,0.0014830253,-0.18046547,0.8028265,0.0,-0.044153,-1.238237,0.0076578655,3.0847945,0.0,0.10011187,-0.0009302528,0.0053673475,0.0037216465,0.026381578,0.017894419,inf,inf,inf,inf,1,1,1,1,6,7,6,13,0,0,0
163857670,0,0.0,0.0,0.30184528,0.43625817,-0.036073163,0.1438288,-0.56665117,-0.69388527,-0.0004049677,0.00036505898,0.0021390424,0.0026799408,-0.18046547,0.8028265,0.0,0.16560642,0.13736656,-0.044923335,3.0848105,0.0,0.1,-0.0021390424,0.0052666604,0.0036553922,0.026042564,0.01768228,inf,inf,inf,inf,1,1,1,1,6,7,6,13,0,0,0
163961670,0,0.0,0.0,0.30199808,0.4362594,-0.03578818,0.1438288,-0.56665117,-0.69388527,-0.0012969536,0.00027341527,0.0029829964,0.0034650157,-0.18046547,0.8028265,0.0,-0.23938963,0.37270403,0.37485167,3.0850718,0.0,0.1,-0.0029829964,0.005335004,0.0037011218,0.026234955,0.017801216,inf,inf,inf,inf,1,1,1,1,6,7,6,13,0,0,0
164065670,0,0.0,0.0,0.30220512,0.4362216,-0.035567388,0.1438288,-0.56665117,-0.69388527,0.0005298526,-0.0014656117,0.0033583315,0.0037339693,-0.18046547,0.8028265,0.0,-0.112291515,-0.5204596,0.2789361,3.0850928,0.0,0.1,-0.0033583315,0.0054227198,0.0037591895,0.026507804,0.017974233,inf,inf,inf,inf,1,1,1,1,6,7,6,13,0,0,0
164161669,0,0.0,0.0,0.30238324,0.4362036,-0.035389874,0.1438288,-0.56665117,-0.69388527,0.0013512416,-6.864666e-05,0.0031268792,0.0033697938,-0.18046547,0.8028265,0.0,0.46467897,0.27310136,0.111725025,3.0849106,0.0,0.1,-0.0031268792,0.0053603076,0.0037173165,0.026360301,0.017881878,inf,inf,inf,inf,1,1,1,1,6,7,6,13,0,0,0
164265673,0,0.0,0.0,0.30262876,0.43609688,-0.035270035,0.1438288,-0.56665117,-0.69388527,0.0010997013,-0.00030936082,0.00066245225,0.00075035356,-0.18046547,0.8028265,0.0,-0.12474015,0.21398756,-0.5825582,3.084585,0.0,0.1,-0.00066245225,0.0054186434,0.0037566891,0.026470661,0.017951505,inf,inf,inf,inf,1,1,1,1,6,7,6,13,0,0,0
164369670,0,0.0,0.0,0.30284074,0.43595943,-0.035250403,0.1438288,-0.56665117,-0.69388527,0.0016369096,-0.0022284733,0.0016042432,0.0015320822,-0.18046547,0.8028265,0.0,-0.29691952,0.056490216,-0.048555594,3.0850518,0.0,0.1,-0.0016042432,0.0051053995,0.0035474848,0.025650315,0.0174322,inf,inf,inf,inf,1,1,1,1,6,7,6,13,0,0,0
164465675,0,0.0,0.0,0.30307463,0.435849,-0.035304148,0.1438288,-0.56665117,-0.69388527,0.0012470367,0.00161476,0.0004128285,0.00020394893,-0.18046547,0.8028265,0.0,-0.22974809,0.48478428,0.2156851,3.085066,0.0,0.1,-0.0004128285,0.005411163,0.0037515208,0.026469113,0.017950473,inf,inf,inf,inf,1,1,1,1,6,7,6,13,0,0,0
164568885,0,0.0,0.0,0.30321458,0.43571302,-0.035468336,0.1438288,-0.56665117,-0.69388527,0.0013109462,0.0015335466,0.00088581286,0.0005513912,-0.18046547,0.8028265,0.0,-0.5148331,1.0824387,0.25228006,3.0848897,0.0,0.1,-0.00088581286,0.0051232753,0.003558764,0.025724046,0.017478619,inf,inf,inf,inf,1,1,1,1,6,7,6,13,0,0,0
164672870,0,0.0,0.0,0.3034365,0.43565378,-0.035664108,0.1438288,-0.56665117,-0.69388527,0.0030887777,-0.0002641177,-0.0023132816,-0.0027563118,-0.18046547,0.8028265,0.0,-0.07837635,0.25588715,-0.66294855,3.084981,0.0,0.1,0.0023132816,0.0051986524,0.0036097504,0.025895346,0.017587665,inf,inf,inf,inf,1,1,1,1,6,7,6,13,0,0,0
164768869,0,0.0,0.0,0.30360785,0.4357003,-0.035852205,0.1438288,-0.56665117,-0.69388527,0.0028800014,-0.00097648357,-0.0008052711,-0.0013289814,-0.18046547,0.8028265,0.0,0.1267758,-1.0098184,-0.56883126,3.0848768,0.0,0.1,0.0008052711,0.0050989143,0.0035432652,0.025598321,0.01739852,inf,inf,inf,inf,1,1,1,1,6,7,6,13,0,0,0
164872897,0,0.0,0.0,0.30367967,0.43582886,-0.036026344,0.1438288,-0.56665117,-0.69388527,0.0025772431,0.0008477417,-0.0024883726,-0.0030490935,-0.18046547,0.8028265,0.0,-0.03288515,0.092198946,-0.39824334,3.0848262,0.0,0.1,0.0024883726,0.0051910654,0.0036046621,0.025877303,0.017578024,inf,inf,inf,inf,1,1,1,1,6,7,6,13,0,0,0
164976888,0,0.0,0.0,0.30365682,0.43598232,-0.036190912,0.1438288,-0.56665117,-0.69388527,-0.00095636025,-0.0003418078,-9.98437e-05,-0.00064605416,-0.18046547,0.8028265,0.0,-0.8938129,-0.6002686,0.045681905,3.0848653,0.0,0.1,9.98437e-05,0.0052689225,0.003656689,0.026090978,0.017710738,inf,inf,inf,inf,1,1,1,1,6,7,6,13,0,0,0
165080901,0,0.0,0.0,0.30352423,0.43618375,-0.036316637,0.1438288,-0.56665117,-0.69388527,0.002535112,0.005424414,0.0006010961,9.851616e-05,-0.18046547,0.8028265,0.0,0.3816481,1.2931992,-0.2265727,3.0846794,0.0,0.1,-0.0006010961,0.0053521404,0.0037123298,0.02629693,0.017840957,inf,inf,inf,inf,1,1,1,1,6,7,6,13,0,0,0
165176870,0,0.0,0.0,0.30336508,0.43631214,-0.036362812,0.1438288,-0.56665117,-0.69388527,-0.0002945786,0.0026390865,0.0008185985,0.00037426167,-0.18046547,0.8028265,0.0,0.32475117,0.6248225,0.29886878,3.0848634,0.0,0.10003224,-0.0008185985,0.005273184,0.0036596416,0.026091518,0.017711258,inf,inf,inf,inf,1,1,1,1,6,7,6,13,0,0,0
165280870,0,0.0,0.0,0.3031691,0.4365082,-0.03635013,0.1438288,-0.56665117,-0.69388527,-0.0010500229,-0.0007476715,-0.0008342291,-0.0012035262,-0.18046547,0.8028265,0.0,-0.1438642,-0.9721022,-0.33111608,3.0849304,0.0,0.100052655,0.0008342291,0.0053694868,0.0037237448,0.02634816,0.017875107,inf,inf,inf,inf,1,1,1,1,6,7,6,13,0,0,0
165384869,0,0.0,0.0,0.30300567,0.43662933,-0.036351822,0.1438288,-0.56665117,-0.69388527,-0.0018942286,0.0021506357,-0.0008989854,-0.0011979172,-0.18046547,0.8028265,0.0,-0.9720632,0.26522255,-0.22542073,3.0846207,0.0,0.1000917,0.0008989854,0.0050886585,0.003535863,0.025630405,0.01742104,inf,inf,inf,inf,1,1,1,1,6,7,6,13,0,0,0
165488870,0,0.0,0.0,0.3028208,0.43663177,-0.03631487,0.1438288,-0.56665117,-0.69388527,-0.0036803768,0.0002193347,8.857107e-05,-0.00016379204,-0.18046547,0.8028265,0.0,-1.128084,-0.251454,0.27173445,3.084654,0.0,0.10008706,-8.857107e-05,0.00552066,0.0038249935,0.02670108,0.018096365,inf,inf,inf,inf,1,1,1,1,6,7,6,13,0,0,0
165584913,0,0.0,0.0,0.30274823,0.43662795,-0.03622674,0.1438288,-0.56665117,-0.69388527,0.0010749755,0.0019862799,0.0012995981,0.0010852863,-0.18046547,0.8028265,0.0,0.46271256,-0.04567989,0.23501158,3.0846384,0.0,0.10000408,-0.0012995981,0.0054173255,0.0037561406,0.026449533,0.0179375,inf,inf,inf,inf,1,1,1,1,6,7,6,13,0,0,0
165688870,0,0.0,0.0,0.30268544,0.43655556,-0.036089715,0.1438288,-0.56665117,-0.69388527,-0.0005745545,0.0013180836,0.0025534604,0.0023683899,-0.18046547,0.8028265,0.0,0.0884012,0.13935669,0.5238465,3.0846422,0.0,0.1,-0.0025534604,0.005116332,0.0035547682,0.025688384,0.017455041,inf,inf,inf,inf,1,1,1,1,6,7,6,13,0,0,0
165788870,0,0.0,0.0,0.30271772,0.43647352,-0.035948306,0.1438288,-0.56665117,-0.69388527,-9.137426e-05,-0.0007709954,0.0014736176,0.0012875405,-0.18046547,0.8028265,0.0,0.19594266,-0.47862962,-0.10639733,3.0846152,0.0,0.1,-0.0014736176,0.0050919033,0.0035374786,0.025701895,0.01746423,inf,inf,inf,inf,1,1,1,1,6,7,6,13,0,0,0
165892876,0,0.0,0.0,0.30278498,0.43637908,-0.035893988,0.1438288,-0.56665117,-0.69388527,-0.0005071671,-0.0023330718,-0.0008609843,-0.0010852143,-0.18046547,0.8028265,0.0,-0.7289999,-1.1832737,-0.031819705,3.0843797,0.0,0.1,0.0008609843,0.005231682,0.003631579,0.026165623,0.017766453,inf,inf,inf,inf,1,1,1,1,6,7,6,13,0,0,0
165996078,0,0.0,0.0,0.30282125,0.43622646,-0.03582031,0.1438288,-0.56665117,-0.69388527,0.0008496523,-0.0017483494,-0.0012157846,-0.0014841018,-0.18046547,0.8028265,0.0,0.31297818,-1.0476251,-0.21430634,3.0845447,0.0,0.1,0.0012157846,0.0052759447,0.0036614481,0.026177362,0.017774154,inf,inf,inf,inf,1,1,1,1,6,7,6,13,0,0,0
166092074,0,0.0,0.0,0.30290288,0.43604937,-0.03581776,0.1438288,-0.56665117,-0.69388527,0.0015698507,-0.00017556819,0.0020022902,0.001669074,-0.18046547,0.8028265,0.0,0.17503929,0.08487528,0.32110232,3.0848885,0.0,0.1,-0.0020022902,0.005180227,0.0035982572,0.02585561,0.017568229,inf,inf,inf,inf,1,1,1,1,6,7,6,13,0,0,0
166196070,0,0.0,0.0,0.30293316,0.43576062,-0.035881422,0.1438288,-0.56665117,-0.69388527,-2.8011786e-05,-0.002066328,0.0021926337,0.0017806025,-0.18046547,0.8028265,0.0,-0.5451614,0.16250028,0.3458894,3.0845764,0.0,0.1,-0.0021926337,0.005232896,0.003633354,0.025997685,0.017654087,inf,inf,inf,inf,1,1,1,1,6,7,6,13,0,0,0
166300089,0,0.0,0.0,0.3029715,0.43553746,-0.03601015,0.1438288,-0.56665117,-0.69388527,0.003409189,-0.002612925,7.1841496e-05,-0.00040081533,-0.18046547,0.8028265,0.0,1.0931711,0.031407055,-0.054502245,3.0846834,0.0,0.1,-7.1841496e-05,0.005318762,0.003690217,0.026237423,0.017802699,inf,inf,inf,inf,1,1,1,1,6,7,6,13,0,0,0
166404079,0,0.0,0.0,0.30309784,0.4353776,-0.03626209,0.1438288,-0.56665117,-0.69388527,-0.0001705933,0.0005426392,-0.0026595562,-0.0031653391,-0.18046547,0.8028265,0.0,-0.4232997,0.24844122,-0.21368487,3.0847197,0.0,0.10001528,0.0026595562,0.0053773858,0.0037294358,0.026355907,0.017876072,inf,inf,inf,inf,1,1,1,1,6,7,6,13,0,0,0
166508080,0,0.0,0.0,0.3031648,0.43532142,-0.036511734,0.1438288,-0.56665117,-0.69388527,0.004410387,-0.004092737,0.00082022266,0.00030325042,-0.18046547,0.8028265,0.0,1.6065443,-0.37329158,0.2733653,3.0845077,0.0,0.10026492,-0.00082022266,0.0054364214,0.003768668,0.026509369,0.01796922,inf,inf,inf,inf,1,1,1,1,6,7,6,13,0,0,0
166604070,0,0.0,0.0,0.30328476,0.43536317,-0.036700893,0.1438288,-0.56665117,-0.69388527,6.139687e-05,0.0023959558,-0.0027125971,-0.0032217687,-0.18046547,0.8028265,0.0,-1.7403634,1.749653,-0.02001698,3.084028,0.0,0.10045408,0.0027125971,0.00536341,0.003719331,0.026365634,0.017877115,inf,inf,inf,inf,1,1,1,1,6,7,6,13,0,0,0
166708071,0,0.0,0.0,0.3033033,0.43540424,-0.036771752,0.1438288,-0.56665117,-0.69388527,0.0054716575,0.0047708526,0.00057090115,0.000114220726,-0.18046547,0.8028265,0.0,-0.2616269,1.3581666,0.44324622,3.0838256,0.0,0.10052494,-0.00057090115,0.0051674335,0.0035867442,0.025967827,0.017628592,inf,inf,inf,inf,1,1,1,1,6,7,6,13,0,0,0
166812080,0,0.0,0.0,0.3033018,0.43541285,-0.036727455,0.1438288,-0.56665117,-0.69388527,-0.0018240515,0.0005023479,0.0013698896,0.0009810948,-0.18046547,0.8028265,0.0,-0.5963789,1.7717992,0.7237378,3.0844796,0.0,0.100480646,-0.0013698896,0.005336545,0.00369942,0.026389187,0.017896011,inf,inf,inf,inf,1,1,1,1,6,7,6,13,0,0,0
166908070,0,0.0,0.0,0.30320212,0.43549505,-0.036649633,0.1438288,-0.56665117,-0.69388527,0.0050834734,-0.0033368259,0.00032167294,-2.0847283e-06,-0.18046547,0.8028265,0.0,2.2466097,-0.08207615,0.41702333,3.0843773,0.0,0.10040282,-0.00032167294,0.0052766935,0.0036607871,0.026115788,0.017727392,inf,inf,inf,inf,1,1,1,1,6,7,6,13,0,0,0
167012069,0,0.0,0.0,0.3031074,0.43566385,-0.036721114,0.1438288,-0.56665117,-0.69388527,0.0018015119,0.0022345998,-0.0030359551,-0.0033035725,-0.18046547,0.8028265,0.0,-1.3157874,1.1169733,-0.31353125,3.084436,0.0,0.1004743,0.0030359551,0.0053287237,0.0036965415,0.026191683,0.017774519,inf,inf,inf,inf,1,1,1,1,6,7,6,13,0,0,0
167114485,0,0.0,0.0,0.3029678,0.4358338,-0.03691285,0.1438288,-0.56665117,-0.69388527,-0.002637508,9.7201875e-05,-0.0009699815,-0.0012389111,-0.18046547,0.8028265,0.0,-0.04135882,-2.5978544,1.4709814,3.0846055,0.0,0.10066604,0.0009699815,0.0053962762,0.0037416862,0.026384197,0.017894644,inf,inf,inf,inf,1,1,1,1,6,7,6,13,0,0,0
167219269,0,0.0,0.0,0.30290782,0.43618897,-0.037082907,0.1438288,-0.56665117,-0.69388527,-0.0021563945,0.004915739,0.0026213452,0.0023129534,-0.18046547,0.8028265,0.0,-0.8006195,-0.05017546,-0.95639557,3.084433,0.0,0.1008361,-0.0026213452,0.0050931238,0.0035389971,0.025606964,0.017401831,inf,inf,inf,inf,1,1,1,1,6,7,6,13,0,0,0
167323270,0,0.0,0.0,0.30272016,0.43629608,-0.03734988,0.1438288,-0.56665117,-0.69388527,-0.0012692407,-0.0028005529,-0.0016396863,-0.0019523201,-0.18046547,0.8028265,0.0,0.22793086,-1.7995713,0.67467684,3.084617,0.0,0.10110307,0.0016396863,0.005181175,0.0035976388,0.025910104,0.017590603,inf,inf,inf,inf,1,1,1,1,6,7,6,13,0,0,0
167419270,0,0.0,0.0,0.30254644,0.43629503,-0.03758703,0.1438288,-0.56665117,-0.69388527,0.00017216074,0.0015748614,0.0016547013,0.0013788042,-0.18046547,0.8028265,0.0,-0.83335376,1.6117274,1.3577163,3.086405,0.0,0.10134022,-0.0016547013,0.005460598,0.0037844907,0.026583692,0.018014867,inf,inf,inf,inf,1,1,1,1,6,7,6,13,0,0,0
167523290,0,0.0,0.0,0.3027056,0.43672258,-0.0381208,0.1438288,-0.56665117,-0.69388527,0.0028762594,0.0047212807,-0.003582517,-0.0037749878,-0.18046547,0.8028265,0.0,-0.20648469,1.0638022,1.053973,3.086632,0.0,0.10187399,0.003582517,0.005165273,0.0035871242,0.025828063,0.017545227,inf,inf,inf,inf,1,1,1,1,6,7,6,13,0,0,0
167627322,0,0.0,0.0,0.30274332,0.43660823,-0.038424928,0.1438288,-0.56665117,-0.69388527,0.0028113704,0.006300221,0.00031137103,0.00017747711,-0.18046547,0.8028265,0.0,-0.38901222,1.059302,0.871207,3.0840242,0.0,0.10217811,-0.00031137103,0.0052585187,0.003649162,0.026096558,0.017707901,inf,inf,inf,inf,1,1,1,1,6,7,6,13,0,0,0
167723270,0,0.0,0.0,0.3029591,0.43686742,-0.038690902,0.1438288,-0.56665117,-0.69388527,0.008992887,0.0041531473,0.0029614465,0.002907418,-0.18046547,0.8028265,0.0,3.0822175,1.2642246,1.4969879,3.0846481,0.0,0.10244409,-0.0029614465,0.0051671956,0.003588709,0.025799653,0.017518403,inf,inf,inf,inf,1,1,1,1,6,7,6,13,0,0,0
167827318,0,0.0,0.0,0.30279613,0.43674016,-0.038848106,0.1438288,-0.56665117,-0.69388527,0.00032466592,0.009271811,-0.0009848705,-0.0008895868,-0.18046547,0.8028265,0.0,-0.689862,1.0727212,0.8385567,3.0857475,0.0,0.10260129,0.0009848705,0.005243528,0.0036394633,0.026035964,0.017671067,inf,inf,inf,inf,1,1,1,1,6,7,6,13,0,0,0
167931276,0,0.0,0.0,0.30316886,0.4368969,-0.03930591,0.1438288,-0.56665117,-0.69388527,0.0117121935,0.009975862,-0.012512596,-0.012246204,-0.18046547,0.8028265,0.0,1.2320912,-0.50238335,-1.9742728,3.0856376,0.0,0.1030591,0.012512596,0.005326968,0.003695109,0.026242156,0.017810192,inf,inf,inf,inf,1,1,1,1,6,7,6,13,0,0,0
168027283,0,0.0,0.0,0.3037809,0.43699843,-0.039869968,0.1438288,-0.56665117,-0.69388527,0.0028810333,-0.008951381,-0.010221434,-0.009871185,-0.18046547,0.8028265,0.0,-0.4754461,-0.3575394,1.1917471,3.0862586,0.0,0.10362315,0.010221434,0.0052644014,0.0036532655,0.02610072,0.01771098,inf,inf,inf,inf,1,1,1,1,6,7,6,13,0,0,0
168131270,0,0.0,0.0,0.30411842,0.43659136,-0.040125664,0.1438288,-0.56665117,-0.69388527,0.0023966476,-0.014419318,-0.007795463,-0.0074469685,-0.18046547,0.8028265,0.0,0.07569596,-5.453215,-0.30575806,3.0879588,0.0,0.103878856,0.007795463,0.0053368984,0.003701739,0.026263058,0.017815892,inf,inf,inf,inf,1,1,1,1,6,7,6,13,0,0,0
168235276,0,0.0,0.0,0.30418968,0.4364197,-0.040218808,0.1438288,-0.56665117,-0.69388527,0.004951538,-0.015502013,-0.008276688,-0.007895296,-0.18046547,0.8028265,0.0,0.72025776,-2.9056382,-2.1451492,3.0885987,0.0,0.103971995,0.008276688,0.005398678,0.0037433796,0.02638076,0.017895581,inf,inf,inf,inf,1,1,1,1,6,7,6,13,0,0,0
168339270,0,0.0,0.0,0.30475715,0.4361979,-0.040771667,0.1438288,-0.56665117,-0.69388527,0.013336667,0.0031220843,-0.006627138,-0.006174879,-0.18046547,0.8028265,0.0,-0.7967225,-0.602052,-0.22693634,3.0896301,0.0,0.10452485,0.006627138,0.0051234057,0.003559065,0.025705343,0.01747291,inf,inf,inf,inf,1,1,1,1,6,7,6,13,0,0,0
168441711,0,0.0,0.0,0.30593017,0.4354516,-0.04166028,0.1438288,-0.56665117,-0.69388527,0.012443383,0.010671577,-0.0077405707,-0.0073356973,-0.18046547,0.8028265,0.0,1.9645585,3.877979,-0.9852729,3.092831,0.0,0.10541347,0.0077405707,0.005172098,0.0035922963,0.025800427,0.017521262,inf,inf,inf,inf,1,1,1,1,6,7,6,13,0,0,0
168538520,0,0.0,0.0,0.30676308,0.4346752,-0.042271238,0.1438288,-0.56665117,-0.69388527,0.0014320692,0.0047245147,-0.012690128,-0.012449114,-0.18046547,0.8028265,0.0,-0.22193123,-0.7902825,-1.8202827,3.0942245,0.0,0.10602443,0.012690128,0.0050947205,0.0035402486,0.025622409,0.017409835,inf,inf,inf,inf,1,1,1,1,6,7,6,13,0,0,0
168642486,0,0.0,0.0,0.30652964,0.43410897,-0.042681385,0.1438288,-0.56665117,-0.69388527,0.00417002,-0.0107841985,0.001962826,0.002067309,-0.18046547,0.8028265,0.0,0.59036267,-0.9579355,-0.51608056,3.093304,0.0,0.10643457,-0.001962826,0.005153266,0.0035790105,0.025762655,0.017503023,inf,inf,inf,inf,1,1,1,1,6,7,6,13,0,0,0
168746470,0,0.0,0.0,0.30531913,0.43385962,-0.043011323,0.1438288,-0.56665117,-0.69388527,-0.00824102,0.008429729,-0.007396061,-0.0072825057,-0.18046547,0.8028265,0.0,-0.30965313,-1.5851063,0.39878106,3.0929875,0.0,0.10676451,0.007396061,0.0052259685,0.003628226,0.025946798,0.017626604,inf,inf,inf,inf,1,1,1,1,6,7,6,13,0,0,0
168850498,0,0.0,0.0,0.30488122,0.4336567,-0.043824274,0.1438288,-0.56665117,-0.69388527,0.011053626,0.014950931,-0.013764235,-0.013588924,-0.18046547,0.8028265,0.0,-2.2088554,4.288797,-0.9753592,3.094683,0.0,0.10757746,0.013764235,0.005299701,0.0036777,0.026168961,0.017758759,inf,inf,inf,inf,1,1,1,1,6,7,6,13,0,0,0
168954470,0,0.0,0.0,0.30643615,0.4336594,-0.04533858,0.1438288,-0.56665117,-0.69388527,0.031818323,0.013423044,-0.012207186,-0.012145239,-0.18046547,0.8028265,0.0,2.9682071,8.342913,-1.9570876,3.096614,0.0,0.109091766,0.012207186,0.005388442,0.0037364522,0.026434034,0.017925074,inf,inf,inf,inf,1,1,1,1,6,7,6,13,0,0,0
169050482,0,0.0,0.0,0.30899918,0.43343022,-0.047068372,0.1438288,-0.56665117,-0.69388527,0.023428446,-0.0155185815,-0.018565077,-0.018834475,-0.18046547,0.8028265,0.0,-2.4886022,-5.1046934,-1.8977077,3.096246,0.0,0.11082156,0.018565077,0.0050311955,0.003496222,0.025588851,0.017386936,inf,inf,inf,inf,1,1,1,1,6,7,6,13,0,0,0
169154470,0,0.0,0.0,0.31079745,0.4335847,-0.048321035,0.1438288,-0.56665117,-0.69388527,-0.004400198,-0.0072260117,-0.0014459689,-0.002125267,-0.18046547,0.8028265,0.0,-4.4619455,-5.723116,0.40745214,3.0945272,0.0,0.112074226,0.0014459689,0.0051719937,0.003590078,0.025924921,0.017603118,inf,inf,inf,inf,1,1,1,1,6,7,6,13,0,0,0
169258470,0,0.0,0.0,0.3097881,0.4341561,-0.048909407,0.1438288,-0.56665117,-0.69388527,-0.03220606,0.0073411027,0.0042161252,0.0033890705,-0.18046547,0.8028265,0.0,-3.640596,3.8243682,0.42123488,3.09525,0.0,0.1126626,-0.0042161252,0.005268514,0.003655568,0.02609935,0.017718846,inf,inf,inf,inf,1,1,1,1,6,7,6,13,0,0,0
169354505,0,0.0,0.0,0.306188,0.4350877,-0.048487194,0.1438288,-0.56665117,-0.69388527,-0.036988582,-0.0058102584,0.0124617675,0.011804349,-0.18046547,0.8028265,0.0,-0.2857979,-2.1787477,-2.7343643,3.0952318,0.0,0.11224038,-0.0124617675,0.0052271327,0.003628383,0.026000515,0.017666554,inf,inf,inf,inf,1,1,1,1,6,7,6,13,0,0,0
169458470,0,0.0,0.0,0.29850635,0.4360942,-0.046590485,0.1438288,-0.56665117,-0.69388527,-0.07528038,0.013495902,0.026891498,0.026614001,-0.18046547,0.8028265,0.0,1.3711765,-0.13838995,3.2859132,3.093542,0.0,0.11034367,-0.026891498,0.0052873753,0.0036700673,0.026092965,0.01773226,inf,inf,inf,inf,1,1,1,1,6,7,6,13,0,0,0
169562509,0,0.0,0.0,0.28653422,0.43688357,-0.042380236,0.1438288,-0.56665117,-0.69388527,-0.11834526,0.002338282,0.043063134,0.043390516,-0.18046547,0.8028265,0.0,-2.40754,-1.7625031,-1.3417271,3.0944939,0.0,0.106133424,-0.043063134,0.00532843,0.0036986053,0.02617299,0.017791707,inf,inf,inf,inf,1,1,1,1,6,7,6,13,0,0,0
169658470,0,0.0,0.0,0.27483112,0.43783876,-0.03824317,0.1438288,-0.56665117,-0.69388527,-0.073606275,-0.018207505,0.015697144,0.016795622,-0.18046547,0.8028265,0.0,1.2066907,-4.6808887,-1.7637107,3.0947208,0.0,0.10199636,-0.015697144,0.005204309,0.0036168015,0.025802149,0.017562289,inf,inf,inf,inf,1,1,1,1,6,7,6,13,0,0,0
169761688,0,0.0,0.0,0.27299115,0.43670335,-0.03626033,0.1438288,-0.56665117,-0.69388527,-0.0004340235,0.015439912,0.0032365515,0.0049250484,-0.18046547,0.8028265,0.0,-4.848064,7.2262783,-2.5997713,3.0936985,0.0,0.10001352,-0.0032365515,0.005198487,0.0036140608,0.025772007,0.017540092,inf,inf,inf,inf,1,1,1,1,6,7,6,13,0,0,0
169864920,0,0.0,0.0,0.27788034,0.43717915,-0.036177546,0.1438288,-0.56665117,-0.69388527,-0.0070291283,0.010795992,0.017555112,0.018595837,-0.18046547,0.8028265,0.0,1.2660347,0.76539785,2.2560933,3.0930467,0.0,0.1,-0.017555112,0.005249544,0.0036460396,0.026031762,0.017665204,inf,inf,inf,inf,1,1,1,1,6,7,6,13,0,0,0
169969684,0,0.0,0.0,0.2856025,0.43699247,-0.03619947,0.1438288,-0.56665117,-0.69388527,0.001005943,0.00075100287,0.013751104,0.013319624,-0.18046547,0.8028265,0.0,0.2775967,-0.4935899,2.0865936,3.0945795,0.0,0.1,-0.013751104,0.0053077736,0.0036831296,0.026226113,0.01778162,inf,inf,inf,inf,1,1,1,1,6,7,6,13,0,0,0
170065670,0,0.0,0.0,0.294373,0.43704337,-0.036870923,0.1438288,-0.56665117,-0.69388527,0.026735758,-0.004028292,0.0035089883,0.0018263021,-0.18046547,0.8028265,0.0,1.2263908,-3.8179078,-0.26601124,3.0945618,0.0,0.100624114,-0.0035089883,0.0052169063,0.003622127,0.02595881,0.017629078,inf,inf,inf,inf,1,1,1,1,6,7,6,13,0,0,0
170169670,0,0.0,0.0,0.30417013,0.43662208,-0.03853377,0.1438288,-0.56665117,-0.69388527,0.03653756,-0.004534792,-0.0022063535,-0.0047207763,-0.18046547,0.8028265,0.0,0.41530144,-5.9400163,0.015851693,3.0949514,0.0,0.10228696,0.0022063535,0.0052825366,0.0036660975,0.026140735,0.0177541,inf,inf,inf,inf,1,1,1,1,6,7,6,13,0,0,0
170273708,0,0.0,0.0,0.31148607,0.43695748,-0.040448256,0.1438288,-0.56665117,-0.69388527,0.034144256,0.0062014298,-0.0024652963,-0.0054332186,-0.18046547,0.8028265,0.0,-0.15021795,-4.156989,0.911386,3.0939004,0.0,0.10420144,0.0024652963,0.005361002,0.0037186209,0.026358241,0.017885003,inf,inf,inf,inf,1,1,1,1,6,7,6,13,0,0,0
170369695,0,0.0,0.0,0.31636092,0.43699622,-0.04203777,0.1438288,-0.56665117,-0.69388527,0.035645265,0.0057118377,-0.0011238859,-0.004238298,-0.18046547,0.8028265,0.0,1.3423557,3.5694828,1.9103353,3.0947082,0.0,0.10579096,0.0011238859,0.0052947598,0.0036743463,0.02617863,0.017771881,inf,inf,inf,inf,1,1,1,1,6,7,6,13,0,0,0
170473678,0,0.0,0.0,0.3194258,0.43693897,-0.043675933,0.1438288,-0.56665117,-0.69388527,0.029689226,0.0047263224,-0.00884215,-0.011783419,-0.18046547,0.8028265,0.0,-1.0580149,-1.1254996,1.1307473,3.095196,0.0,0.10742912,0.00884215,0.005401971,0.0037457186,0.026476162,0.01796182,inf,inf,inf,inf,1,1,1,1,6,7,6,13,0,0,0
170577676,0,0.0,0.0,0.32063127,0.4378298,-0.045439865,0.1438288,-0.56665117,-0.69388527,0.018877637,0.017443707,-0.015877463,-0.018445132,-0.18046547,0.8028265,0.0,-1.1460999,-0.053686712,-1.1505787,3.0957322,0.0,0.10919306,0.015877463,0.005433063,0.003767634,0.026472893,0.017959282,inf,inf,inf,inf,1,1,1,1,6,7,6,13,0,0,0
170673670,0,0.0,0.0,0.32016465,0.43948466,-0.047303386,0.1438288,-0.56665117,-0.69388527,0.012105738,0.022620028,-0.014077668,-0.016263826,-0.18046547,0.8028265,0.0,-1.4314111,-0.39310604,0.50530666,3.095369,0.0,0.11105657,0.014077668,0.005361137,0.0037189967,0.026350323,0.0178789,inf,inf,inf,inf,1,1,1,1,6,7,6,13,0,0,0
170777670,0,0.0,0.0,0.3184123,0.44199446,-0.048928168,0.1438288,-0.56665117,-0.69388527,0.015269802,0.022901481,-0.015505067,-0.017304705,-0.18046547,0.8028265,0.0,1.9384718,-1.0887017,0.7898506,3.0952444,0.0,0.11268136,0.015505067,0.0054312334,0.0037657127,0.026511602,0.017983215,inf,inf,inf,inf,1,1,1,1,6,7,6,13,0,0,0
170881705,0,0.0,0.0,0.3160738,0.44351465,-0.05053894,0.1438288,-0.56665117,-0.69388527,0.011330345,0.020106334,-0.02162636,-0.022954224,-0.18046547,0.8028265,0.0,0.023173107,1.4090592,-2.0313933,3.0981095,0.0,0.11429213,0.02162636,0.005137638,0.0035693771,0.025747027,0.017501935,inf,inf,inf,inf,1,1,1,1,6,7,6,13,0,0,0
170985673,0,0.0,0.0,0.31485194,0.44590512,-0.052778326,0.1438288,-0.56665117,-0.69388527,0.009495497,0.040443376,-0.039055705,-0.039850004,-0.18046547,0.8028265,0.0,-4.326959,0.9768863,-0.3563252,3.09538,0.0,0.11653151,0.039055705,0.0052255346,0.003628194,0.025974583,0.017646596,inf,inf,inf,inf,1,1,1,1,6,7,6,13,0,0,0
171089675,0,0.0,0.0,0.31565395,0.44966486,-0.056176204,0.1438288,-0.56665117,-0.69388527,0.04076958,0.045324158,-0.034838308,-0.035256255,-0.18046547,0.8028265,0.0,-1.7077584,-3.0552156,0.6535659,3.087123,0.0,0.11992939,0.034838308,0.0053046714,0.0036811072,0.02619391,0.01778309,inf,inf,inf,inf,1,1,1,1,6,7,6,13,0,0,0
171184876,0,0.0,0.0,0.32044214,0.45603147,-0.059102498,0.1438288,-0.56665117,-0.69388527,0.077319056,0.08090094,-0.036309306,-0.036708973,-0.18046547,0.8028265,0.0,0.30598503,0.44806358,-0.60952437,3.0781589,0.0,0.122855686,0.036309306,0.005217495,0.0036228364,0.025942532,0.017612007,inf,inf,inf,inf,1,1,1,1,6,7,6,13,0,0,0
171288870,0,0.0,0.0,0.3289497,0.46566677,-0.06334124,0.1438288,-0.56665117,-0.69388527,0.10586797,0.11165443,-0.03898759,-0.039355222,-0.18046547,0.8028265,0.0,3.2613556,6.505358,0.44753146,3.0676491,0.0,0.12709442,0.03898759,0.0052856663,0.0036678114,0.026127486,0.01773574,inf,inf,inf,inf,1,1,1,1,6,7,6,13,0,0,0
171392920,0,0.0,0.0,0.34222314,0.4803667,-0.06559327,0.1438288,-0.56665117,-0.69388527,0.1488905,0.16362235,6.56924e-05,-0.00019849904,-0.18046547,0.8028265,0.0,-1.7770712,0.99258286,-0.048563857,3.0600133,0.0,0.12934646,-6.56924e-05,0.0053653223,0.0037209513,0.02636638,0.017882245,inf,inf,inf,inf,1,1,1,1,6,7,6,13,0,0,0
171488876,0,0.0,0.0,0.35938093,0.5005135,-0.06280851,0.1438288,-0.56665117,-0.69388527,0.19402276,0.19399247,0.04082688,0.041140858,-0.18046547,0.8028265,0.0,0.8795665,-2.358291,-0.07820448,3.0540795,0.0,0.1265617,-0.04082688,0.005281321,0.003665082,0.026107961,0.017731356,inf,inf,inf,inf,1,1,1,1,6,7,6,13,0,0,0
171592888,0,0.0,0.0,0.38234708,0.52809656,-0.05581544,0.1438288,-0.56665117,-0.69388527,0.20316134,0.21999119,0.02239509,0.024734871,-0.18046547,0.8028265,0.0,0.97846687,-1.5585957,-1.2168043,3.0479863,0.0,0.11956863,-0.02239509,0.0053074174,0.0036845938,0.026080314,0.017749932,inf,inf,inf,inf,1,1,1,1,6,7,6,13,0,0,0
171696889,0,0.0,0.0,0.4025132,0.55715144,-0.05361213,0.1438288,-0.56665117,-0.69388527,0.1368572,0.23145449,-0.007194099,-0.0019156898,-0.18046547,0.8028265,0.0,-3.201887,0.31280777,0.3727453,3.05014,0.0,0.117365316,0.007194099,0.0050266054,0.0034977624,0.025383329,0.0173243,inf,inf,inf,inf,1,1,1,1,6,7,6,13,0,0,0
171800870,0,0.0,0.0,0.42066672,0.5883215,-0.052118283,0.1438288,-0.56665117,-0.69388527,0.13386987,0.26660848,-0.0034929982,0.0028042537,-0.18046547,0.8028265,0.0,1.8061597,4.299582,0.032872193,3.0622437,0.0,0.115871474,0.0034929982,0.005095297,0.003543748,0.025664026,0.017432978,inf,inf,inf,inf,1,1,1,1,6,7,6,13,0,0,0
171904886,0,0.0,0.0,0.4339905,0.6180017,-0.04914051,0.1438288,-0.56665117,-0.69388527,0.08751715,0.25481826,0.03054606,0.035696324,-0.18046547,0.8028265,0.0,2.1306477,-1.8193884,0.07555226,3.0749426,0.0,0.1128937,-0.03054606,0.0051777093,0.0035965904,0.02589862,0.017570607,inf,inf,inf,inf,1,1,1,1,6,7,6,13,0,0,0
172000870,0,0.0,0.0,0.44128522,0.64559925,-0.04697841,0.1438288,-0.56665117,-0.69388527,0.048325814,0.26538497,0.0037135626,0.0076991897,-0.18046547,0.8028265,0.0,-3.461814,-2.116693,0.29694933,3.08634,0.0,0.1107316,-0.0037135626,0.005117268,0.0035549528,0.025696222,0.017468335,inf,inf,inf,inf,1,1,1,1,6,7,6,13,0,0,0
172104870,0,0.0,0.0,0.4449697,0.670472,-0.04996735,0.1438288,-0.56665117,-0.69388527,0.029568985,0.22871651,-0.030137079,-0.026860401,-0.18046547,0.8028265,0.0,-2.4179852,-1.0980232,-0.98774683,3.1132352,0.0,0.113720536,0.030137079,0.0052231993,0.0036260018,0.026011601,0.017674342,inf,inf,inf,inf,1,1,1,1,6,7,6,13,0,0,0
172208869,0,0.0,0.0,0.44214112,0.6941151,-0.051337983,0.1438288,-0.56665117,-0.69388527,-0.02129453,0.23879647,-0.005799262,-0.0038055917,-0.18046547,0.8028265,0.0,-3.2017334,-0.80431175,1.177968,3.1284373,0.0,0.115091175,0.005799262,0.005287967,0.0036695334,0.026179822,0.01774309,inf,inf,inf,inf,1,1,1,1,6,7,6,13,0,0,0
172312876,0,0.0,0.0,0.43248674,0.7165991,-0.053678297,0.1438288,-0.56665117,-0.69388527,-0.06384193,0.25913927,-0.026630783,-0.025796233,-0.18046547,0.8028265,0.0,-2.8302324,-1.711801,-1.2956818,3.135974,0.0,0.117431484,0.026630783,0.0053615286,0.0037178297,0.026312357,0.01784867,inf,inf,inf,inf,1,1,1,1,6,7,6,13,0,0,0
172416891,0,0.0,0.0,0.41660497,0.7387341,-0.058542397,0.1438288,-0.56665117,-0.69388527,-0.10815077,0.26359656,-0.043982893,-0.04356199,-0.18046547,0.8028265,0.0,-1.0548772,-4.3960443,-0.21214212,3.1371605,0.0,0.12229559,0.043982893,0.005445106,0.0037740713,0.0265336,0.017995592,inf,inf,inf,inf,1,1,1,1,6,7,6,13,0,0,0
172516094,0,0.0,0.0,0.39737684,0.76056033,-0.06534351,0.1438288,-0.56665117,-0.69388527,-0.14073129,0.27469954,-0.07531401,-0.07535502,-0.18046547,0.8028265,0.0,-2.421953,2.9279456,1.1212393,3.1354213,0.0,0.12909669,0.07531401,0.005369211,0.0037232533,0.02639676,0.017888058,inf,inf,inf,inf,1,1,1,1,6,7,6,13,0,0,0
172620070,0,0.0,0.0,0.3743643,0.7846939,-0.07545456,0.1438288,-0.56665117,-0.69388527,-0.16552438,0.28773326,-0.09062169,-0.09158281,-0.18046547,0.8028265,0.0,-1.2171311,3.5648541,0.45693606,3.1318955,0.0,0.13920775,0.09062169,0.0051037474,0.0035447606,0.025731264,0.01745826,inf,inf,inf,inf,1,1,1,1,6,7,6,13,0,0,0
172724076,0,0.0,0.0,0.3500555,0.811103,-0.086983666,0.1438288,-0.56665117,-0.69388527,-0.18637024,0.26929072,-0.09251546,-0.09466729,-0.18046547,0.8028265,0.0,1.8577666,4.8351398,-0.16817135,3.1264918,0.0,0.15073685,0.09251546,0.0052367463,0.003633073,0.026181476,0.01773865,inf,inf,inf,inf,1,1,1,1,6,7,6,13,0,0,0
172820070,0,0.0,0.0,0.32702377,0.8353975,-0.09711009,0.1438288,-0.56665117,-0.69388527,-0.20711549,0.2563125,-0.08935419,-0.09215201,-0.18046547,0.8028265,0.0,-2.8922465,1.8461242,-0.046788774,3.1175716,0.0,0.16086328,0.08935419,0.005134253,0.0035643538,0.025835771,0.01752518,inf,inf,inf,inf,1,1,1,1,6,7,6,13,0,0,0
172924070,0,0.0,0.0,0.30266517,0.86034447,-0.10539524,0.1438288,-0.56665117,-0.69388527,-0.21672207,0.22506413,-0.06054064,-0.063001126,-0.18046547,0.8028265,0.0,-0.16626948,2.8397152,0.27260286,3.1079423,0.0,0.16914843,0.06054064,0.005190116,0.0036023618,0.02592617,0.017598689,inf,inf,inf,inf,1,1,1,1,6,7,6,13,0,0,0
173028081,0,0.0,0.0,0.27921358,0.88219607,-0.11027547,0.1438288,-0.56665117,-0.69388527,-0.21891433,0.19235304,-0.04513386,-0.045851182,-0.18046547,0.8028265,0.0,0.67964315,-3.4479783,0.76200336,3.0963488,0.0,0.17402866,0.04513386,0.0052423244,0.0036380235,0.02600963,0.017672157,inf,inf,inf,inf,1,1,1,1,6,7,6,13,0,0,0
173124070,0,0.0,0.0,0.2582988,0.89709866,-0.11202747,0.1438288,-0.56665117,-0.69388527,-0.23038185,0.16211721,-0.034851417,-0.033039793,-0.18046547,0.8028265,0.0,-0.16039786,-1.9905065,1.1969877,3.0872753,0.0,0.17578065,0.034851417,0.0051820576,0.0035991275,0.025850056,0.017583326,inf,inf,inf,inf,1,1,1,1,6,7,6,13,0,0,0
173228078,0,0.0,0.0,0.23666942,0.90797377,-0.11153769,0.1438288,-0.56665117,-0.69388527,-0.22536148,0.115301594,-0.022526607,-0.017733954,-0.18046547,0.8028265,0.0,-0.82636315,-0.4301043,0.6313423,3.078813,0.0,0.17529088,0.022526607,0.005264105,0.0036550441,0.026063086,0.017721567,inf,inf,inf,inf,1,1,1,1,6,7,6,13,0,0,0
173332089,0,0.0,0.0,0.21665567,0.9124586,-0.10899212,0.1438288,-0.56665117,-0.69388527,-0.21226119,0.074479155,-0.0030004173,0.0042412914,-0.18046547,0.8028265,0.0,2.3695695,-1.9970596,0.1557988,3.0732589,0.0,0.17274532,0.0030004173,0.005334694,0.0037029013,0.026234442,0.017823424,inf,inf,inf,inf,1,1,1,1,6,7,6,13,0,0,0
173428070,0,0.0,0.0,0.20051171,0.91221523,-0.104718395,0.1438288,-0.56665117,-0.69388527,-0.20117292,0.04556869,0.012615593,0.021425948,-0.18046547,0.8028265,0.0,0.25224683,-0.18766591,-0.6166268,3.0720315,0.0,0.16847157,-0.012615593,0.0052344566,0.0036360188,0.025965415,0.017649513,inf,inf,inf,inf,1,1,1,1,6,7,6,13,0,0,0
173532082,0,0.0,0.0,0.18590486,0.9079344,-0.09873208,0.1438288,-0.56665117,-0.69388527,-0.17231187,0.013043017,0.02193633,0.031893354,-0.18046547,0.8028265,0.0,1.7266034,0.13798933,-0.14143848,3.0730329,0.0,0.16248527,-0.02193633,0.0053196354,0.0036925282,0.026209615,0.01780774,inf,inf,inf,inf,1,1,1,1,6,7,6,13,0,0,0
173636079,0,0.0,0.0,0.17524129,0.89987063,-0.09343435,0.1438288,-0.56665117,-0.69388527,-0.14368787,-0.01961654,0.0174775,0.028092233,-0.18046547,0.8028265,0.0,-2.227863,-1.3383509,-0.85374004,3.0772808,0.0,0.15718754,-0.0174775,0.0053971554,0.0037443119,0.026418218,0.017939623,inf,inf,inf,inf,1,1,1,1,6,7,6,13,0,0,0
173740072,0,0.0,0.0,0.16846532,0.8905274,-0.08892446,0.1438288,-0.56665117,-0.69388527,-0.09911356,-0.02930521,0.017032363,0.027554171,-0.18046547,0.8028265,0.0,0.46334562,2.710139,0.92017996,3.0827856,0.0,0.15267766,-0.017032363,0.0054815854,0.0038003565,0.026644308,0.018067176,inf,inf,inf,inf,1,1,1,1,6,7,6,13,0,0,0
173834484,0,0.0,0.0,0.16633146,0.88074136,-0.085994914,0.1438288,-0.56665117,-0.69388527,-0.052534245,-0.06442064,0.011556479,0.02127897,-0.18046547,0.8028265,0.0,-1.4530319,-0.3494535,0.21453775,3.0886145,0.0,0.1497481,-0.011556479,0.005402694,0.0037469147,0.026452774,0.017940985,inf,inf,inf,inf,1,1,1,1,6,7,6,13,0,0,0
173939278,0,0.0,0.0,0.16886881,0.8703945,-0.08507599,0.1438288,-0.56665117,-0.69388527,-0.0002711889,-0.074414775,-0.0014419168,0.0069026444,-0.18046547,0.8028265,0.0,-1.1373633,-3.4542568,-0.71404326,3.0950089,0.0,0.14882918,0.0014419168,0.00511399,0.0035531668,0.02570474,0.017461708,inf,inf,inf,inf,1,1,1,1,6,7,6,13,0,0,0
174043270,0,0.0,0.0,0.17708677,0.85984933,-0.086276665,0.1438288,-0.56665117,-0.69388527,0.050991647,-0.09044592,-0.024090199,-0.017487835,-0.18046547,0.8028265,0.0,-1.5798886,-0.77037406,-1.02428,3.1007662,0.0,0.15002985,0.024090199,0.005210342,0.0036170203,0.02599926,0.017638339,inf,inf,inf,inf,1,1,1,1,6,7,6,13,0,0,0
174139305,0,0.0,0.0,0.1902261,0.8501424,-0.091796465,0.1438288,-0.56665117,-0.69388527,0.11876193,-0.113880195,-0.07346109,-0.06867614,-0.18046547,0.8028265,0.0,3.116655,-2.6594808,-0.43224457,3.1025944,0.0,0.15554965,0.07346109,0.005497111,0.003808031,0.026703192,0.018080385,inf,inf,inf,inf,1,1,1,1,6,7,6,13,0,0,0
174243276,0,0.0,0.0,0.20957346,0.83976555,-0.10423426,0.1438288,-0.56665117,-0.69388527,0.14942545,-0.1312992,-0.13037258,-0.12807156,-0.18046547,0.8028265,0.0,2.4849684,2.4186718,0.50321555,3.1007617,0.0,0.16798745,0.13037258,0.005162203,0.0035844052,0.025845967,0.017518567,inf,inf,inf,inf,1,1,1,1,6,7,6,13,0,0,0
174347292,0,0.0,0.0,0.23333904,0.8283918,-0.123310566,0.1438288,-0.56665117,-0.69388527,0.19645979,-0.14994483,-0.16397937,-0.16511624,-0.18046547,0.8028265,0.0,2.5350037,-1.8820871,-0.3951336,3.0938334,0.0,0.18706375,0.16397937,0.005258736,0.0036463728,0.026185952,0.017708886,inf,inf,inf,inf,1,1,1,1,6,7,6,13,0,0,0
174443270,0,0.0,0.0,0.25766888,0.81686956,-0.14459936,0.1438288,-0.56665117,-0.69388527,0.2154847,-0.16218312,-0.18835111,-0.19291319,-0.18046547,0.8028265,0.0,-1.183858,-0.61445737,0.56706965,3.08643,0.0,0.20835255,0.18835111,0.0051759607,0.0035895745,0.025964227,0.017548244,inf,inf,inf,inf,1,1,1,1,6,7,6,13,0,0,0
174547314,0,0.0,0.0,0.28539732,0.8042659,-0.16953845,0.1438288,-0.56665117,-0.69388527,0.24650972,-0.14422806,-0.19705886,-0.20452762,-0.18046547,0.8028265,0.0,2.6369197,2.0433803,-0.95326525,3.0786896,0.0,0.23329164,0.19705886,0.0052741733,0.003653131,0.026243994,0.017735733,inf,inf,inf,inf,1,1,1,1,6,7,6,13,0,0,0
174651277,0,0.0,0.0,0.31271043,0.79104716,-0.1937834,0.1438288,-0.56665117,-0.69388527,0.23415639,-0.15835214,-0.18652253,-0.19520225,-0.18046547,0.8028265,0.0,5.1059175,2.55149,-0.04324688,3.075121,0.0,0.2575366,0.18652253,0.0053488337,0.003703326,0.02636278,0.017828627,inf,inf,inf,inf,1,1,1,1,6,7,6,13,0,0,0
174747311,0,0.0,0.0,0.33605245,0.7787654,-0.21395133,0.1438288,-0.56665117,-0.69388527,0.23556112,-0.14280432,-0.18606286,-0.19388577,-0.18046547,0.8028265,0.0,4.4215136,3.897967,-0.58237267,3.0734177,0.0,0.27770454,0.18606286,0.005276402,0.0036564886,0.026136907,0.01770925,inf,inf,inf,inf,1,1,1,1,6,7,6,13,0,0,0
174851283,0,0.0,0.0,0.35790175,0.7653382,-0.23162688,0.1438288,-0.56665117,-0.69388527,0.20145664,-0.1662009,-0.1501776,-0.15525454,-0.18046547,0.8028265,0.0,0.44170234,-1.8915966,2.2932746,3.0741704,0.0,0.29538006,0.1501776,0.005343116,0.003703067,0.026257608,0.017811349,inf,inf,inf,inf,1,1,1,1,6,7,6,13,0,0,0
174955270,0,0.0,0.0,0.37555444,0.75158936,-0.24302657,0.1438288,-0.56665117,-0.69388527,0.17729579,-0.15536794,-0.11673606,-0.11783621,-0.18046547,0.8028265,0.0,-2.9684167,-4.8031235,-0.30196375,3.0770323,0.0,0.30677974,0.11673606,0.0054004756,0.0037434772,0.026356462,0.01788953,inf,inf,inf,inf,1,1,1,1,6,7,6,13,0,0,0
175059270,0,0.0,0.0,0.38919854,0.73888326,-0.24817975,0.1438288,-0.56665117,-0.69388527,0.1698722,-0.14584832,-0.07821249,-0.07443597,-0.18046547,0.8028265,0.0,0.88035744,-2.0976837,0.19170523,3.082049,0.0,0.31193292,0.07821249,0.0051074396,0.0035492685,0.025610754,0.017436538,inf,inf,inf,inf,1,1,1,1,6,7,6,13,0,0,0
175163270,0,0.0,0.0,0.39948553,0.72617203,-0.24775732,0.1438288,-0.56665117,-0.69388527,0.13790305,-0.15178095,-0.028256172,-0.01959682,-0.18046547,0.8028265,0.0,-4.029128,1.7567968,1.8488731,3.088077,0.0,0.3115105,0.028256172,0.005178459,0.003598574,0.025774071,0.017558679,inf,inf,inf,inf,1,1,1,1,6,7,6,13,0,0,0
175258489,0,0.0,0.0,0.40586752,0.7148501,-0.2419736,0.1438288,-0.56665117,-0.69388527,0.12289866,-0.1590988,0.015053471,0.027643261,-0.18046547,0.8028265,0.0,-3.898553,-2.6959631,1.1969743,3.0934474,0.0,0.30572677,-0.015053471,0.005111703,0.0035548492,0.025604244,0.017451527,inf,inf,inf,inf,1,1,1,1,6,7,6,13,0,0,0
175362470,0,0.0,0.0,0.41056666,0.70210296,-0.23127736,0.1438288,-0.56665117,-0.69388527,0.12272101,-0.16292985,0.05143499,0.067394026,-0.18046547,0.8028265,0.0,0.62540007,-3.149449,0.7954099,3.0997071,0.0,0.29503053,-0.05143499,0.005167487,0.003593247,0.025702477,0.017526332,inf,inf,inf,inf,1,1,1,1,6,7,6,13,0,0,0
175466470,0,0.0,0.0,0.41436997,0.6886742,-0.21764386,0.1438288,-0.56665117,-0.69388527,0.10191927,-0.16270211,0.07867043,0.0968591,-0.18046547,0.8028265,0.0,-3.8984365,-3.1872604,-0.107755944,3.1054688,0.0,0.28139704,-0.07867043,0.005263016,0.0036580893,0.026014417,0.017724123,inf,inf,inf,inf,1,1,1,1,6,7,6,13,0,0,0
175570479,0,0.0,0.0,0.41854545,0.6753193,-0.20163792,0.1438288,-0.56665117,-0.69388527,0.08635763,-0.13733082,0.12360692,0.14263433,-0.18046547,0.8028265,0.0,-2.9513755,-3.7247546,1.1616352,3.1107464,0.0,0.2653911,-0.12360692,0.005322499,0.0036983085,0.026149863,0.017805072,inf,inf,inf,inf,1,1,1,1,6,7,6,13,0,0,0
175666490,0,0.0,0.0,0.4222087,0.6642862,-0.18409972,0.1438288,-0.56665117,-0.69388527,0.0677356,-0.099792704,0.15620251,0.17486842,-0.18046547,0.8028265,0.0,0.9903303,4.4915595,-0.021390088,3.1147614,0.0,0.2478529,-0.15620251,0.005222883,0.003631529,0.025869844,0.017621772,inf,inf,inf,inf,1,1,1,1,6,7,6,13,0,0,0
175770470,0,0.0,0.0,0.42542446,0.65477234,-0.16369596,0.1438288,-0.56665117,-0.69388527,0.055496305,-0.07020045,0.15671286,0.17437142,-0.18046547,0.8028265,0.0,2.953446,0.22196351,-1.8865297,3.1188846,0.0,0.22744915,-0.15671286,0.0053098933,0.0036893073,0.026137099,0.017794989,inf,inf,inf,inf,1,1,1,1,6,7,6,13,0,0,0
175874468,0,0.0,0.0,0.4282045,0.6501328,-0.14685513,0.1438288,-0.56665117,-0.69388527,0.027409928,-0.009143252,0.12273974,0.13885851,-0.18046547,0.8028265,0.0,-1.4568945,4.197504,0.12533541,3.1235735,0.0,0.21060832,-0.12273974,0.005403549,0.0037518286,0.026398169,0.017957477,inf,inf,inf,inf,1,1,1,1,6,7,6,13,0,0,0
175970471,0,0.0,0.0,0.42968264,0.6517348,-0.13681412,0.1438288,-0.56665117,-0.69388527,-0.001048591,0.024911527,0.08058052,0.093887776,-0.18046547,0.8028265,0.0,-5.245647,-3.1532667,-0.76654685,3.1268902,0.0,0.2005673,-0.08058052,0.005328433,0.003700826,0.026236944,0.017820278,inf,inf,inf,inf,1,1,1,1,6,7,6,13,0,0,0
176074519,0,0.0,0.0,0.42861405,0.6611053,-0.1336338,0.1438288,-0.56665117,-0.69388527,-0.018183393,0.10287666,0.02986569,0.03802878,-0.18046547,0.8028265,0.0,-2.2976258,3.4424615,-0.6402296,3.127445,0.0,0.197387,-0.02986569,0.005399265,0.0037454595,0.026474895,0.017923087,inf,inf,inf,inf,1,1,1,1,6,7,6,13,0,0,0
176178470,0,0.0,0.0,0.42372763,0.67779934,-0.13962021,0.1438288,-0.56665117,-0.69388527,-0.029362526,0.15386389,-0.036084574,-0.03463677,-0.18046547,0.8028265,0.0,1.2167506,0.04935561,-0.91094804,3.1265244,0.0,0.2033734,0.036084574,0.0054660453,0.003786599,0.026679434,0.018013507,inf,inf,inf,inf,1,1,1,1,6,7,6,13,0,0,0
176274470,0,0.0,0.0,0.41553804,0.69891804,-0.15240599,0.1438288,-0.56665117,-0.69388527,-0.074229896,0.18806341,-0.07492199,-0.08028481,-0.18046547,0.8028265,0.0,1.4648994,-2.038603,-0.040455453,3.1233394,0.0,0.21615918,0.07492199,0.0053998143,0.003738944,0.026582666,0.017930195,inf,inf,inf,inf,1,1,1,1,6,7,6,13,0,0,0
176378470,0,0.0,0.0,0.4027489,0.72581357,-0.17306475,0.1438288,-0.56665117,-0.69388527,-0.12035843,0.20934501,-0.13307089,-0.14516664,-0.18046547,0.8028265,0.0,-3.4098952,1.3816313,0.16364448,3.1170626,0.0,0.23681794,0.13307089,0.005457837,0.0037751875,0.026701791,0.017995704,inf,inf,inf,inf,1,1,1,1,6,7,6,13,0,0,0
176482470,0,0.0,0.0,0.3866695,0.7564105,-0.19811974,0.1438288,-0.56665117,-0.69388527,-0.14420451,0.23328987,-0.16368292,-0.1810606,-0.18046547,0.8028265,0.0,-2.308826,0.37066242,-1.1382039,3.1068,0.0,0.26187295,0.16368292,0.005165813,0.0035801393,0.025936058,0.017522601,inf,inf,inf,inf,1,1,1,1,6,7,6,13,0,0,0
176588903,0,0.0,0.0,0.3676059,0.78888744,-0.22521433,0.1438288,-0.56665117,-0.69388527,-0.16761765,0.27340895,-0.17320506,-0.19376418,-0.18046547,0.8028265,0.0,-1.3966155,1.3816792,0.79855114,3.0974996,0.0,0.28896752,0.17320506,0.0052657714,0.0036457344,0.026214883,0.017707562,inf,inf,inf,inf,1,1,1,1,6,7,6,13,0,0,0
176685670,0,0.0,0.0,0.34899184,0.8181788,-0.24950582,0.1438288,-0.56665117,-0.69388527,-0.17413408,0.26590538,-0.1904609,-0.21176954,-0.18046547,0.8028265,0.0,0.37241098,-1.1155413,1.2260683,3.0890284,0.0,0.313259,0.1904609,0.0051944344,0.0035993906,0.025945473,0.017558904,inf,inf,inf,inf,1,1,1,1,6,7,6,13,0,0,0
176789699,0,0.0,0.0,0.32811543,0.84631735,-0.27340937,0.1438288,-0.56665117,-0.69388527,-0.17069723,0.26512817,-0.19059098,-0.21029745,-0.18046547,0.8028265,0.0,3.07679,-0.34243986,-0.07084614,3.0795386,0.0,0.33716255,0.19059098,0.005339737,0.0036981162,0.026468422,0.017925922,inf,inf,inf,inf,1,1,1,1,6,7,6,13,0,0,0
176885670,0,0.0,0.0,0.31037286,0.8684425,-0.29346684,0.1438288,-0.56665117,-0.69388527,-0.16309124,0.23990953,-0.18216714,-0.19869722,-0.18046547,0.8028265,0.0,-1.385328,-3.446957,0.42426112,3.0718758,0.0,0.35722002,0.18216714,0.005255969,0.0036444971,0.026144028,0.017739069,inf,inf,inf,inf,1,1,1,1,6,7,6,13,0,0,0
176989669,0,0.0,0.0,0.29413763,0.88789374,-0.31197935,0.1438288,-0.56665117,-0.69388527,-0.14509878,0.2144586,-0.1847981,-0.1969859,-0.18046547,0.8028265,0.0,-1.8598378,-1.3729757,-0.18458931,3.064241,0.0,0.37573254,0.1847981,0.0053164265,0.0036867387,0.026237585,0.01779705,inf,inf,inf,inf,1,1,1,1,6,7,6,13,0,0,0
177093670,0,0.0,0.0,0.28243044,0.9018064,-0.327917,0.1438288,-0.56665117,-0.69388527,-0.10620696,0.18062462,-0.16917598,-0.17683314,-0.18046547,0.8028265,0.0,-1.7056397,2.778469,-0.1978939,3.0590568,0.0,0.3916702,0.16917598,0.0053584296,0.003716159,0.026283195,0.017834498,inf,inf,inf,inf,1,1,1,1,6,7,6,13,0,0,0
177197670,0,0.0,0.0,0.2760406,0.910764,-0.34060305,0.1438288,-0.56665117,-0.69388527,-0.065956704,0.13074507,-0.14769916,-0.15123694,-0.18046547,0.8028265,0.0,-1.7403111,1.3055034,-1.5153992,3.0580597,0.0,0.40435624,0.14769916,0.005441772,0.0037717288,0.026523689,0.017983586,inf,inf,inf,inf,1,1,1,1,6,7,6,13,0,0,0
177293670,0,0.0,0.0,0.27492148,0.9141265,-0.3495065,0.1438288,-0.56665117,-0.69388527,-0.038293187,0.06609559,-0.12370304,-0.12384544,-0.18046547,0.8028265,0.0,-2.3778467,-3.087309,1.2731103,3.0587318,0.0,0.41325969,0.12370304,0.0053842226,0.0037331076,0.026416676,0.017915122,inf,inf,inf,inf,1,1,1,1,6,7,6,13,0,0,0
177397670,0,0.0,0.0,0.2789179,0.9123779,-0.35650852,0.1438288,-0.56665117,-0.69388527,-0.00052811124,0.010128503,-0.10420078,-0.101102635,-0.18046547,0.8028265,0.0,-2.4121776,-1.0424571,0.19776814,3.062164,0.0,0.4202617,0.10420078,0.005456524,0.003782229,0.026541186,0.018004056,inf,inf,inf,inf,1,1,1,1,6,7,6,13,0,0,0
177501670,0,0.0,0.0,0.2881945,0.9052263,-0.36165503,0.1438288,-0.56665117,-0.69388527,0.028351285,-0.035867512,-0.08579567,-0.07986828,-0.18046547,0.8028265,0.0,-2.5067143,-1.6176637,0.23281766,3.0690477,0.0,0.4254082,0.08579567,0.005129883,0.0035647769,0.02565978,0.01745398,inf,inf,inf,inf,1,1,1,1,6,7,6,13,0,0,0
177597683,0,0.0,0.0,0.3003224,0.8944707,-0.3652318,0.1438288,-0.56665117,-0.69388527,0.05517824,-0.07216802,-0.07721111,-0.069364965,-0.18046547,0.8028265,0.0,-3.6564825,-0.8213101,0.6718877,3.0764928,0.0,0.428985,0.07721111,0.005456259,0.0037826328,0.026572239,0.018023781,inf,inf,inf,inf,1,1,1,1,6,7,6,13,0,0,0
177701670,0,0.0,0.0,0.3168627,0.88066864,-0.3692371,0.1438288,-0.56665117,-0.69388527,0.1009168,-0.08213591,-0.07839553,-0.06931477,-0.18046547,0.8028265,0.0,-1.215723,-1.2996508,-1.2884848,3.0830264,0.0,0.43299028,0.07839553,0.005145681,0.0035754084,0.025730694,0.017491981,inf,inf,inf,inf,1,1,1,1,6,7,6,13,0,0,0
177805720,0,0.0,0.0,0.3357467,0.8661406,-0.37375736,0.1438288,-0.56665117,-0.69388527,0.12902291,-0.07685096,-0.071852304,-0.062487602,-0.18046547,0.8028265,0.0,-0.75582105,-2.1365612,-1.3612367,3.0897136,0.0,0.43751055,0.071852304,0.0052302713,0.0036315203,0.02599213,0.017647386,inf,inf,inf,inf,1,1,1,1,6,7,6,13,0,0,0
177905670,0,0.0,0.0,0.3554388,0.8535417,-0.37705162,0.1438288,-0.56665117,-0.69388527,0.15479572,-0.04455437,-0.043707307,-0.034858376,-0.18046547,0.8028265,0.0,-0.8612947,2.7532692,0.66628766,3.094223,0.0,0.4408048,0.043707307,0.0053021517,0.0036792331,0.026160568,0.017750107,inf,inf,inf,inf,1,1,1,1,6,7,6,13,0,0,0
178008869,0,0.0,0.0,0.3759157,0.844679,-0.3790497,0.1438288,-0.56665117,-0.69388527,0.18638282,-0.013855017,-0.024969475,-0.016776536,-0.18046547,0.8028265,0.0,1.3160037,0.23021394,-0.9270869,3.0961215,0.0,0.44280288,0.024969475,0.0053354693,0.0037017434,0.026193216,0.01778409,inf,inf,inf,inf,1,1,1,1,6,7,6,13,0,0,0
178104870,0,0.0,0.0,0.39454615,0.84236157,-0.37928724,0.1438288,-0.56665117,-0.69388527,0.1702237,-0.007688438,-0.0055285045,0.0022788553,-0.18046547,0.8028265,0.0,-4.908526,-6.4997506,0.8198655,3.0939984,0.0,0.44304043,0.0055285045,0.005180226,0.0035983995,0.02568953,0.017469242,inf,inf,inf,inf,1,1,1,1,6,7,6,13,0,0,0
178208870,0,0.0,0.0,0.41344842,0.8453708,-0.37771776,0.1438288,-0.56665117,-0.69388527,0.17168969,0.009648256,0.009629999,0.017308475,-0.18046547,0.8028265,0.0,-1.6699845,-5.4117684,-0.10877204,3.0895097,0.0,0.44147095,-0.009629999,0.0052657975,0.0036556926,0.026006965,0.017674271,inf,inf,inf,inf,1,1,1,1,6,7,6,13,0,0,0
178312877,0,0.0,0.0,0.43010876,0.854333,-0.37426883,0.1438288,-0.56665117,-0.69388527,0.15238832,0.036997553,0.030662922,0.038317893,-0.18046547,0.8028265,0.0,-0.15304512,-1.5932112,0.14283109,3.084214,0.0,0.43802202,-0.030662922,0.0053539546,0.0037149768,0.026276723,0.01785145,inf,inf,inf,inf,1,1,1,1,6,7,6,13,0,0,0
178408876,0,0.0,0.0,0.44218642,0.86513335,-0.37028256,0.1438288,-0.56665117,-0.69388527,0.11563045,0.022932738,0.035065047,0.042610496,-0.18046547,0.8028265,0.0,2.0045621,2.1957383,1.1677015,3.08,0.0,0.43403575,-0.035065047,0.0052918247,0.0036736773,0.026124772,0.017759053,inf,inf,inf,inf,1,1,1,1,6,7,6,13,0,0,0
178512886,0,0.0,0.0,0.45102295,0.87675136,-0.36525196,0.1438288,-0.56665117,-0.69388527,0.08595047,-0.00091289775,0.04172678,0.048751995,-0.18046547,0.8028265,0.0,0.26897496,1.6098925,0.4539041,3.0790124,0.0,0.42900515,-0.04172678,0.0053469865,0.0037113694,0.026230453,0.017822798,inf,inf,inf,inf,1,1,1,1,6,7,6,13,0,0,0
178616870,0,0.0,0.0,0.4548935,0.88472784,-0.36102724,0.1438288,-0.56665117,-0.69388527,0.050580263,-0.050733488,0.0333644,0.039308194,-0.18046547,0.8028265,0.0,-1.597645,-2.6477044,0.3214836,3.0820646,0.0,0.42478043,-0.0333644,0.005061473,0.0035195642,0.025525648,0.017369725,inf,inf,inf,inf,1,1,1,1,6,7,6,13,0,0,0
178720879,0,0.0,0.0,0.4532684,0.8841279,-0.35842875,0.1438288,-0.56665117,-0.69388527,0.019699289,-0.11477136,0.026349239,0.030670758,-0.18046547,0.8028265,0.0,0.32159483,-3.9981582,-0.04647211,3.086541,0.0,0.42218193,-0.026349239,0.005128412,0.0035641862,0.025704907,0.01747134,inf,inf,inf,inf,1,1,1,1,6,7,6,13,0,0,0
178824870,0,0.0,0.0,0.44654706,0.8713631,-0.35783833,0.1438288,-0.56665117,-0.69388527,-0.0057801735,-0.19715336,0.014516362,0.016701309,-0.18046547,0.8028265,0.0,-3.037655,-1.8787283,0.90986353,3.0884576,0.0,0.42159152,-0.014516362,0.0052073663,0.0036160909,0.025939655,0.017606653,inf,inf,inf,inf,1,1,1,1,6,7,6,13,0,0,0
178928876,0,0.0,0.0,0.43636975,0.84463394,-0.35933128,0.1438288,-0.56665117,-0.69388527,-0.019872248,-0.2900846,0.0142097045,0.013985823,-0.18046547,0.8028265,0.0,-2.5754259,-1.9734136,0.53086746,3.0898447,0.0,0.42308447,-0.0142097045,0.0052958643,0.0036740554,0.026203308,0.017766327,inf,inf,inf,inf,1,1,1,1,6,7,6,13,0,0,0
179024907,0,0.0,0.0,0.42550597,0.8079353,-0.3600706,0.1438288,-0.56665117,-0.69388527,-0.04037928,-0.36464116,0.0302537,0.02786952,-0.18046547,0.8028265,0.0,-1.8057582,-0.035630517,-0.44103158,3.0907974,0.0,0.42382377,-0.0302537,0.005204602,0.0036127097,0.025943367,0.017592313,inf,inf,inf,inf,1,1,1,1,6,7,6,13,0,0,0
179128871,0,0.0,0.0,0.4141069,0.75841063,-0.35463288,0.1438288,-0.56665117,-0.69388527,-0.047608595,-0.40633893,0.109937474,0.10614471,-0.18046547,0.8028265,0.0,-5.411923,2.6238754,1.5689121,3.0907667,0.0,0.41838607,-0.109937474,0.005309165,0.0036815964,0.026236784,0.017793817,inf,inf,inf,inf,1,1,1,1,6,7,6,13,0,0,0
179233690,0,0.0,0.0,0.40543953,0.7026637,-0.3423387,0.1438288,-0.56665117,-0.69388527,-0.027218083,-0.443527,0.13783021,0.13497888,-0.18046547,0.8028265,0.0,-4.3787217,2.1565664,-0.46314543,3.0896306,0.0,0.4060919,-0.13783021,0.0053791413,0.0037297239,0.026329849,0.017899748,inf,inf,inf,inf,1,1,1,1,6,7,6,13,0,0,0
179332084,0,0.0,0.0,0.4015941,0.6477192,-0.32598412,0.1438288,-0.56665117,-0.69388527,0.0037955442,-0.4386992,0.16406928,0.16426858,-0.18046547,0.8028265,0.0,1.0680039,2.1063204,1.3212973,3.0910742,0.0,0.3897373,-0.16406928,0.0053207325,0.0036935112,0.026174521,0.017835068,inf,inf,inf,inf,1,1,1,1,6,7,6,13,0,0,0
179436072,0,0.0,0.0,0.40323886,0.59171396,-0.30318695,0.1438288,-0.56665117,-0.69388527,0.03321923,-0.4259909,0.20328182,0.20738475,-0.18046547,0.8028265,0.0,1.3466088,0.71792996,1.8088115,3.0930715,0.0,0.36694014,-0.20328182,0.0054191616,0.0037617704,0.026477216,0.018030496,inf,inf,inf,inf,1,1,1,1,6,7,6,13,0,0,0
179532073,0,0.0,0.0,0.41110063,0.5445073,-0.2799479,0.1438288,-0.56665117,-0.69388527,0.09073461,-0.39531907,0.20151903,0.20839566,-0.18046547,0.8028265,0.0,1.4205186,-0.031107428,-0.008519779,3.0937178,0.0,0.3437011,-0.20151903,0.005375615,0.003734078,0.026421918,0.01799459,inf,inf,inf,inf,1,1,1,1,6,7,6,13,0,0,0
179636085,0,0.0,0.0,0.42698604,0.5028983,-0.25495106,0.1438288,-0.56665117,-0.69388527,0.14444005,-0.34829012,0.20404899,0.2122707,-0.18046547,0.8028265,0.0,-1.0041887,-3.2757716,0.55498976,3.0927792,0.0,0.31870425,-0.20404899,0.005441657,0.0037784327,0.026562352,0.018068403,inf,inf,inf,inf,1,1,1,1,6,7,6,13,0,0,0
179740070,0,0.0,0.0,0.45095295,0.4742646,-0.23311959,0.1438288,-0.56665117,-0.69388527,0.21169169,-0.27617115,0.17280555,0.18037713,-0.18046547,0.8028265,0.0,-1.094159,-1.5163237,-1.8211249,3.0930219,0.0,0.2968728,-0.17280555,0.00512681,0.0035660428,0.025721066,0.017499218,inf,inf,inf,inf,1,1,1,1,6,7,6,13,0,0,0
179844089,0,0.0,0.0,0.48222184,0.45940006,-0.21602961,0.1438288,-0.56665117,-0.69388527,0.26290533,-0.19676244,0.15352651,0.15857048,-0.18046547,0.8028265,0.0,-0.23782319,0.12127887,0.21860619,3.0967913,0.0,0.2797828,-0.15352651,0.005190583,0.003606964,0.025910795,0.017586958,inf,inf,inf,inf,1,1,1,1,6,7,6,13,0,0,0
179948076,0,0.0,0.0,0.51913494,0.45779964,-0.20330241,0.1438288,-0.56665117,-0.69388527,0.30541903,-0.09746779,0.13187115,0.1330009,-0.18046547,0.8028265,0.0,2.3970928,3.8208742,-0.302399,3.104241,0.0,0.2670556,-0.13187115,0.005270409,0.0036575366,0.02616777,0.017722579,inf,inf,inf,inf,1,1,1,1,6,7,6,13,0,0,0
180044074,0,0.0,0.0,0.5565339,0.46715724,-0.19682874,0.1438288,-0.56665117,-0.69388527,0.32913882,-0.012717994,0.08974607,0.086899966,-0.18046547,0.8028265,0.0,-0.16439629,1.3191729,-0.041813053,3.1153872,0.0,0.2605819,-0.08974607,0.00517736,0.0035936423,0.025908828,0.017549042,inf,inf,inf,inf,1,1,1,1,6,7,6,13,0,0,0
180148080,0,0.0,0.0,0.5983405,0.4880304,-0.19508755,0.1438288,-0.56665117,-0.69388527,0.33089232,0.066660896,0.044087503,0.03707247,-0.18046547,0.8028265,0.0,-2.2818205,-0.09034507,-0.41689906,3.1275148,0.0,0.25884074,-0.044087503,0.0052530435,0.0036423143,0.026158893,0.017692816,inf,inf,inf,inf,1,1,1,1,6,7,6,13,0,0,0
180252076,0,0.0,0.0,0.63766754,0.51838666,-0.19750643,0.1438288,-0.56665117,-0.69388527,0.29509503,0.18710312,0.036870565,0.026130255,-0.18046547,0.8028265,0.0,0.7937441,3.3184469,2.5709956,3.13952,0.0,0.26125962,-0.036870565,0.005335491,0.0036957853,0.026366217,0.017819395,inf,inf,inf,inf,1,1,1,1,6,7,6,13,0,0,0
180356087,0,0.0,0.0,0.669532,0.5565529,-0.20215462,0.1438288,-0.56665117,-0.69388527,0.23280355,0.25077134,0.0018590502,-0.011757538,-0.18046547,0.8028265,0.0,-3.4698896,0.3275131,0.51385355,-3.1341393,0.0,0.26590782,-0.0018590502,0.005413033,0.003746151,0.026577776,0.017946234,inf,inf,inf,inf,1,1,1,1,6,7,6,13,0,0,0
180460070,0,0.0,0.0,0.6920188,0.5968855,-0.20992438,0.1438288,-0.56665117,-0.69388527,0.17684558,0.28233495,-0.047566306,-0.0626995,-0.18046547,0.8028265,0.0,1.6542075,-0.8754959,0.61092144,-3.1280541,0.0,0.2736776,0.047566306,0.0051226383,0.0035532764,0.025787441,0.01746833,inf,inf,inf,inf,1,1,1,1,6,7,6,13,0,0,0
180564088,0,0.0,0.0,0.70497864,0.6380883,-0.22182292,0.1438288,-0.56665117,-0.69388527,0.11132861,0.32143134,-0.07537846,-0.09112324,-0.18046547,0.8028265,0.0,1.5381337,2.441027,0.14284688,-3.1264572,0.0,0.2855761,0.07537846,0.005195017,0.003601947,0.025962017,0.017575396,inf,inf,inf,inf,1,1,1,1,6,7,6,13,0,0,0
180667292,0,0.0,0.0,0.70782137,0.6761949,-0.23365672,0.1438288,-0.56665117,-0.69388527,0.052621778,0.2963438,-0.07304054,-0.089016356,-0.18046547,0.8028265,0.0,2.0609808,1.842022,-0.84267145,-3.127059,0.0,0.2974099,0.07304054,0.005240246,0.0036323029,0.026063606,0.017617162,inf,inf,inf,inf,1,1,1,1,6,7,6,13,0,0,0
180771276,0,0.0,0.0,0.7013401,0.70952797,-0.24340734,0.1438288,-0.56665117,-0.69388527,0.015265491,0.274975,-0.06684521,-0.08195844,-0.18046547,0.8028265,0.0,0.4488003,-1.3340509,-0.52612835,-3.1310506,0.0,0.30716053,0.06684521,0.0053404546,0.0036973767,0.026388358,0.017841553,inf,inf,inf,inf,1,1,1,1,6,7,6,13,0,0,0
180867300,0,0.0,0.0,0.689486,0.7349149,-0.25077763,0.1438288,-0.56665117,-0.69388527,-0.0069731935,0.2575723,-0.06401016,-0.07678929,-0.18046547,0.8028265,0.0,0.110619195,2.8353243,-1.3836247,-3.1368678,0.0,0.31453082,0.06401016,0.005293931,0.0036674477,0.02622823,0.01776848,inf,inf,inf,inf,1,1,1,1,6,7,6,13,0,0,0
180971270,0,0.0,0.0,0.67261946,0.7537256,-0.25460264,0.1438288,-0.56665117,-0.69388527,-0.032699212,0.18882295,-0.03714652,-0.046236854,-0.18046547,0.8028265,0.0,2.3338428,-2.9616382,0.57676923,3.1381946,0.0,0.31835583,0.03714652,0.0053539188,0.0037100518,0.026312878,0.017831543,inf,inf,inf,inf,1,1,1,1,6,7,6,13,0,0,0
181075276,0,0.0,0.0,0.6556477,0.76260513,-0.2553648,0.1438288,-0.56665117,-0.69388527,-0.035611786,0.13199875,-0.02687022,-0.031608485,-0.18046547,0.8028265,0.0,3.3120613,-0.75338876,0.39157847,3.1289272,0.0,0.319118,0.02687022,0.0054103676,0.0037494106,0.026405318,0.017915845,inf,inf,inf,inf,1,1,1,1,6,7,6,13,0,0,0
181171281,0,0.0,0.0,0.6425397,0.761111,-0.2547418,0.1438288,-0.56665117,-0.69388527,-0.042660482,0.0775222,-0.048354942,-0.049060397,-0.18046547,0.8028265,0.0,0.9732411,1.8758658,-0.8636398,3.12074,0.0,0.31849498,0.048354942,0.0053108786,0.003684762,0.026141163,0.017749907,inf,inf,inf,inf,1,1,1,1,6,7,6,13,0,0,0
181275270,0,0.0,0.0,0.63290745,0.74986845,-0.25533026,0.1438288,-0.56665117,-0.69388527,-0.043339565,0.0064628767,-0.05568073,-0.0529416,-0.18046547,0.8028265,0.0,1.4248756,2.6168778,0.28269708,3.112261,0.0,0.31908345,0.05568073,0.0054049087,0.0037476306,0.026445132,0.017938633,inf,inf,inf,inf,1,1,1,1,6,7,6,13,0,0,0
181379278,0,0.0,0.0,0.6285833,0.72955716,-0.25870422,0.1438288,-0.56665117,-0.69388527,-0.04859703,-0.08031211,-0.07512833,-0.07068139,-0.18046547,0.8028265,0.0,-1.1559768,-3.0143025,-0.076158874,3.1047873,0.0,0.3224574,0.07512833,0.005485849,0.0038009628,0.02667126,0.018057648,inf,inf,inf,inf,1,1,1,1,6,7,6,13,0,0,0
181475270,0,0.0,0.0,0.6281753,0.70452994,-0.26385784,0.1438288,-0.56665117,-0.69388527,-0.04567162,-0.12899789,-0.08790765,-0.08335797,-0.18046547,0.8028265,0.0,2.534246,0.044108167,-1.1789199,3.100002,0.0,0.32761103,0.08790765,0.0053845444,0.0037327933,0.026397247,0.017870342,inf,inf,inf,inf,1,1,1,1,6,7,6,13,0,0,0
181579270,0,0.0,0.0,0.62976676,0.67260575,-0.27201107,0.1438288,-0.56665117,-0.69388527,-0.06788589,-0.20634438,-0.08343375,-0.07982205,-0.18046547,0.8028265,0.0,-1.2296034,-1.0453085,2.1152852,3.0969157,0.0,0.33576426,0.08343375,0.0054937033,0.0038033726,0.02672762,0.018073393,inf,inf,inf,inf,1,1,1,1,6,7,6,13,0,0,0
181683284,0,0.0,0.0,0.631931,0.63772905,-0.28228113,0.1438288,-0.56665117,-0.69388527,-0.054768465,-0.22390354,-0.10666326,-0.10421663,-0.18046547,0.8028265,0.0,1.1995099,1.8145804,0.13276917,3.0958073,0.0,0.34603432,0.10666326,0.005162826,0.00358301,0.025814183,0.017498827,inf,inf,inf,inf,1,1,1,1,6,7,6,13,0,0,0
181779270,0,0.0,0.0,0.63426036,0.6072013,-0.29307178,0.1438288,-0.56665117,-0.69388527,-0.049636275,-0.22710235,-0.11356351,-0.111953326,-0.18046547,0.8028265,0.0,-1.2388479,0.26922908,0.64056915,3.0965176,0.0,0.35682496,0.11356351,0.005108625,0.0035463485,0.025700908,0.017436685,inf,inf,inf,inf,1,1,1,1,6,7,6,13,0,0,0
181883270,0,0.0,0.0,0.63707376,0.57665527,-0.3051769,0.1438288,-0.56665117,-0.69388527,-0.027992202,-0.21227211,-0.101210564,-0.10013158,-0.18046547,0.8028265,0.0,2.8222878,0.81195587,2.1745043,3.100666,0.0,0.3689301,0.101210564,0.0051857345,0.0035978963,0.02589881,0.017559366,inf,inf,inf,inf,1,1,1,1,6,7,6,13,0,0,0
181986476,0,0.0,0.0,0.63976467,0.55293834,-0.3157888,0.1438288,-0.56665117,-0.69388527,-0.0129876295,-0.16750754,-0.10006703,-0.09881198,-0.18046547,0.8028265,0.0,-1.4057224,1.8658879,-0.60056293,3.1045516,0.0,0.379542,0.10006703,0.005248418,0.003640479,0.026014715,0.017639736,inf,inf,inf,inf,1,1,1,1,6,7,6,13,0,0,0
182090469,0,0.0,0.0,0.64196867,0.53689414,-0.3236186,0.1438288,-0.56665117,-0.69388527,0.011834302,-0.10337323,-0.070874676,-0.06852043,-0.18046547,0.8028265,0.0,1.6201884,1.5025476,-0.7127369,3.1110404,0.0,0.38737178,0.070874676,0.0053295563,0.0036952354,0.02625094,0.017804557,inf,inf,inf,inf,1,1,1,1,6,7,6,13,0,0,0
182186507,0,0.0,0.0,0.64475876,0.5311932,-0.3276023,0.1438288,-0.56665117,-0.69388527,0.040655214,-0.039074633,-0.049989622,-0.045981828,-0.18046547,0.8028265,0.0,3.794442,5.9232326,-1.4677255,3.115448,0.0,0.39135548,0.049989622,0.005256934,0.0036474422,0.026051182,0.017696204,inf,inf,inf,inf,1,1,1,1,6,7,6,13,0,0,0
182290482,0,0.0,0.0,0.6506961,0.53532386,-0.3289233,0.1438288,-0.56665117,-0.69388527,0.051742237,0.0016536427,-0.019522954,-0.013209671,-0.18046547,0.8028265,0.0,-0.9524147,-3.7846441,1.4008832,3.1185133,0.0,0.3926765,0.019522954,0.0053321766,0.0036993003,0.026224988,0.01781708,inf,inf,inf,inf,1,1,1,1,6,7,6,13,0,0,0
182394470,0,0.0,0.0,0.66033185,0.54995114,-0.3241415,0.1438288,-0.56665117,-0.69388527,0.08291596,0.06900758,0.023540482,0.032236233,-0.18046547,0.8028265,0.0,-2.782514,-0.77532154,-0.55248386,3.1233778,0.0,0.3878947,-0.023540482,0.005363073,0.0037217156,0.026242055,0.017831694,inf,inf,inf,inf,1,1,1,1,6,7,6,13,0,0,0
182490470,0,0.0,0.0,0.6726691,0.57145363,-0.3158911,0.1438288,-0.56665117,-0.69388527,0.10370765,0.11000302,0.042403094,0.053436805,-0.18046547,0.8028265,0.0,-1.5792612,-2.7153845,-1.8582014,3.1271412,0.0,0.37964427,-0.042403094,0.0052874065,0.0036715856,0.026051294,0.017732672,inf,inf,inf,inf,1,1,1,1,6,7,6,13,0,0,0
182594476,0,0.0,0.0,0.68936294,0.60120577,-0.30678806,0.1438288,-0.56665117,-0.69388527,0.13516706,0.18294689,0.03553577,0.04888009,-0.18046547,0.8028265,0.0,2.5125825,3.7243066,-1.4650984,3.128746,0.0,0.37054124,-0.03553577,0.005374098,0.0037306382,0.026307235,0.01789816,inf,inf,inf,inf,1,1,1,1,6,7,6,13,0,0,0
182698486,0,0.0,0.0,0.7083884,0.63530856,-0.29964402,0.1438288,-0.56665117,-0.69388527,0.15037708,0.1960769,0.013131558,0.02732775,-0.18046547,0.8028265,0.0,1.3061695,-3.4931476,-0.08361885,3.1281192,0.0,0.3633972,-0.013131558,0.0054678083,0.003793472,0.026586648,0.01804979,inf,inf,inf,inf,1,1,1,1,6,7,6,13,0,0,0
182794498,0,0.0,0.0,0.7268082,0.6686544,-0.29638064,0.1438288,-0.56665117,-0.69388527,0.14989313,0.23506843,0.009765533,0.022723261,-0.18046547,0.8028265,0.0,-0.56372476,-3.595497,1.2016082,3.1265023,0.0,0.36013383,-0.009765533,0.005395667,0.003743824,0.026434742,0.017929085,inf,inf,inf,inf,1,1,1,1,6,7,6,13,0,0,0
182898476,0,0.0,0.0,0.74650717,0.70421344,-0.2975119,0.1438288,-0.56665117,-0.69388527,0.1617259,0.2568832,-0.030062046,-0.020299647,-0.18046547,0.8028265,0.0,3.7840593,-0.05821452,-1.8547851,3.1251636,0.0,0.3612651,0.030062046,0.005482595,0.0037994771,0.026673941,0.018052636,inf,inf,inf,inf,1,1,1,1,6,7,6,13,0,0,0
183002470,0,0.0,0.0,0.76395655,0.7375286,-0.30371562,0.1438288,-0.56665117,-0.69388527,0.13693725,0.26432818,-0.05204127,-0.046557326,-0.18046547,0.8028265,0.0,2.7603278,3.7158859,-0.36831018,3.123511,0.0,0.3674688,0.05204127,0.005175075,0.003592572,0.025892979,0.017541984,inf,inf,inf,inf,1,1,1,1,6,7,6,13,0,0,0
183098470,0,0.0,0.0,0.7774053,0.76441544,-0.3135568,0.1438288,-0.56665117,-0.69388527,0.12302718,0.25613198,-0.07523075,-0.07395071,-0.18046547,0.8028265,0.0,1.9941138,4.475723,-2.159133,3.1232195,0.0,0.37730998,0.07523075,0.0051168283,0.0035519667,0.025757272,0.017449223,inf,inf,inf,inf,1,1,1,1,6,7,6,13,0,0,0
183201684,0,0.0,0.0,0.78834933,0.78856784,-0.32726654,0.1438288,-0.56665117,-0.69388527,0.10914593,0.21507445,-0.098581254,-0.10131323,-0.18046547,0.8028265,0.0,2.3136303,-3.055198,-0.31513503,3.1223297,0.0,0.39101973,0.098581254,0.005173307,0.003589146,0.025864644,0.01751493,inf,inf,inf,inf,1,1,1,1,6,7,6,13,0,0,0
183305678,0,0.0,0.0,0.79548603,0.8074359,-0.3432959,0.1438288,-0.56665117,-0.69388527,0.094508365,0.19169237,-0.116641864,-0.12230772,-0.18046547,0.8028265,0.0,3.5475893,-1.1838379,-0.8753722,3.1209655,0.0,0.4070491,0.116641864,0.0052623837,0.0036475952,0.02613228,0.017690627,inf,inf,inf,inf,1,1,1,1,6,7,6,13,0,0,0
183409690,0,0.0,0.0,0.79900384,0.82027555,-0.35961568,0.1438288,-0.56665117,-0.69388527,0.06293268,0.14671075,-0.1116694,-0.119039506,-0.18046547,0.8028265,0.0,1.5373154,0.4828567,0.80247843,3.119298,0.0,0.42336887,0.1116694,0.0053278296,0.003691251,0.026272656,0.017783774,inf,inf,inf,inf,1,1,1,1,6,7,6,13,0,0,0
183505706,0,0.0,0.0,0.79904747,0.8269302,-0.37391165,0.1438288,-0.56665117,-0.69388527,0.030567337,0.10586867,-0.11990944,-0.12761799,-0.18046547,0.8028265,0.0,-2.1874354,-0.14369226,1.0891497,3.118003,0.0,0.43766484,0.11990944,0.0052300137,0.0036270423,0.025971994,0.017605128,inf,inf,inf,inf,1,1,1,1,6,7,6,13,0,0,0
183609684,0,0.0,0.0,0.79653245,0.8287687,-0.38740522,0.1438288,-0.56665117,-0.69388527,0.014153814,0.0885636,-0.10798654,-0.114781596,-0.18046547,0.8028265,0.0,-2.6319115,1.0373192,0.08047685,3.1164694,0.0,0.4511584,0.10798654,0.00528552,0.0036651357,0.02610394,0.01770469,inf,inf,inf,inf,1,1,1,1,6,7,6,13,0,0,0
183713696,0,0.0,0.0,0.79245925,0.8261466,-0.39755735,0.1438288,-0.56665117,-0.69388527,-0.011300216,0.04262642,-0.08049332,-0.085467085,-0.18046547,0.8028265,0.0,-2.1911352,-0.6396179,-0.43129906,3.1148791,0.0,0.46131054,0.08049332,0.0053574536,0.003713911,0.026288591,0.017830973,inf,inf,inf,inf,1,1,1,1,6,7,6,13,0,0,0
183809698,0,0.0,0.0,0.78793615,0.82081914,-0.4032407,0.1438288,-0.56665117,-0.69388527,-0.022472283,0.015475678,-0.07337393,-0.07597751,-0.18046547,0.8028265,0.0,-2.9832983,0.14813381,-1.2814499,3.1105025,0.0,0.4669939,0.07337393,0.0052892226,0.00366922,0.026127273,0.017734867,inf,inf,inf,inf,1,1,1,1,6,7,6,13,0,0,0
183913677,0,0.0,0.0,0.7830631,0.81277436,-0.40652907,0.1438288,-0.56665117,-0.69388527,-0.034605827,-0.0038040294,-0.037358213,-0.036929473,-0.18046547,0.8028265,0.0,-3.6652212,-0.35928363,2.100648,3.10592,0.0,0.47028226,0.037358213,0.00539651,0.0037416294,0.026408179,0.017935324,inf,inf,inf,inf,1,1,1,1,6,7,6,13,0,0,0
184017697,0,0.0,0.0,0.77887166,0.80391043,-0.40614814,0.1438288,-0.56665117,-0.69388527,-0.026767422,-0.024438504,-0.01780675,-0.01447838,-0.18046547,0.8028265,0.0,-1.9712167,0.18520042,0.02134533,3.100401,0.0,0.46990132,0.01780675,0.005098656,0.003543696,0.025611745,0.01742849,inf,inf,inf,inf,1,1,1,1,6,7,6,13,0,0,0
184113676,0,0.0,0.0,0.7760557,0.79550385,-0.4037966,0.1438288,-0.56665117,-0.69388527,-0.020635074,-0.041896164,-0.0070012417,-0.0013996781,-0.18046547,0.8028265,0.0,0.6885957,-0.9495896,1.3850602,3.0951223,0.0,0.4675498,0.0070012417,0.005405969,0.0037499014,0.02640595,0.017940607,inf,inf,inf,inf,1,1,1,1,6,7,6,13,0,0,0
184217671,0,0.0,0.0,0.77456117,0.7873247,-0.40124163,0.1438288,-0.56665117,-0.69388527,-0.01702232,-0.05105565,-0.010836827,-0.0034976932,-0.18046547,0.8028265,0.0,-0.55848336,1.6494644,0.1776735,3.088763,0.0,0.46499482,0.010836827,0.0050994684,0.0035454484,0.02559341,0.017423214,inf,inf,inf,inf,1,1,1,1,6,7,6,13,0,0,0
184321670,0,0.0,0.0,0.7749334,0.7807697,-0.40004605,0.1438288,-0.56665117,-0.69388527,-0.00076327636,-0.04559728,-0.023047782,-0.015193101,-0.18046547,0.8028265,0.0,-1.8322666,-2.3592734,1.089738,3.0815,0.0,0.46379924,0.023047782,0.005143822,0.0035754237,0.025701582,0.017472336,inf,inf,inf,inf,1,1,1,1,6,7,6,13,0,0,0
184417670,0,0.0,0.0,0.7775327,0.7765852,-0.402571,0.1438288,-0.56665117,-0.69388527,0.013812915,-0.047211636,-0.05428063,-0.047196336,-0.18046547,0.8028265,0.0,1.350825,-1.8886186,-0.20267127,3.0758374,0.0,0.46632418,0.05428063,0.0054290546,0.003765325,0.026479641,0.01795099,inf,inf,inf,inf,1,1,1,1,6,7,6,13,0,0,0
184521700,0,0.0,0.0,0.78203326,0.77365565,-0.40886843,0.1438288,-0.56665117,-0.69388527,0.008874867,-0.04677203,-0.06266999,-0.057812724,-0.18046547,0.8028265,0.0,0.25373808,-2.915598,0.38421506,3.0687919,0.0,0.47262162,0.06266999,0.0051385565,0.003569188,0.025799964,0.017500263,inf,inf,inf,inf,1,1,1,1,6,7,6,13,0,0,0
184620869,0,0.0,0.0,0.7867381,0.7723935,-0.41663226,0.1438288,-0.56665117,-0.69388527,0.008293041,-0.018215444,-0.06834001,-0.066277206,-0.18046547,0.8028265,0.0,-2.8036509,2.9437816,-1.4811771,3.0644643,0.0,0.48038545,0.06834001,0.005088023,0.0035334504,0.02570614,0.01742458,inf,inf,inf,inf,1,1,1,1,6,7,6,13,0,0,0
184724869,0,0.0,0.0,0.7917756,0.7730713,-0.42619818,0.1438288,-0.56665117,-0.69388527,0.005512007,-0.010710903,-0.07410891,-0.0748146,-0.18046547,0.8028265,0.0,-3.0641515,2.9048545,-0.880582,3.0633523,0.0,0.48995137,0.07410891,0.0052580643,0.0036456482,0.02632388,0.017834537,inf,inf,inf,inf,1,1,1,1,6,7,6,13,0,0,0
184828876,0,0.0,0.0,0.7958558,0.7755039,-0.43632683,0.1438288,-0.56665117,-0.69388527,-0.0040025287,-0.011577452,-0.069315925,-0.0718497,-0.18046547,0.8028265,0.0,-0.77766484,-0.84735227,-0.9662121,3.065272,0.0,0.50008,0.069315925,0.005335127,0.0036979509,0.0263961,0.017889777,inf,inf,inf,inf,1,1,1,1,6,7,6,13,0,0,0
184932886,0,0.0,0.0,0.7980783,0.77874786,-0.44561484,0.1438288,-0.56665117,-0.69388527,-0.022537474,-0.014292922,-0.06776243,-0.07099617,-0.18046547,0.8028265,0.0,-2.0754,-1.8360475,1.3655614,3.0660946,0.0,0.50936806,0.06776243,0.005383378,0.0037307336,0.026439834,0.017917646,inf,inf,inf,inf,1,1,1,1,6,7,6,13,0,0,0
185028870,0,0.0,0.0,0.7979367,0.7812331,-0.45349473,0.1438288,-0.56665117,-0.69388527,-0.020486167,-0.010696996,-0.068864055,-0.07197221,-0.18046547,0.8028265,0.0,-1.2734674,-0.4213838,-0.87549806,3.0684357,0.0,0.5172479,0.068864055,0.0053082295,0.003681318,0.026214138,0.017782997,inf,inf,inf,inf,1,1,1,1,6,7,6,13,0,0,0
185132882,0,0.0,0.0,0.7946636,0.7836655,-0.46073562,0.1438288,-0.56665117,-0.69388527,-0.05999623,-0.012062898,-0.06700339,-0.06945027,-0.18046547,0.8028265,0.0,-3.761014,0.41394022,-1.3096687,3.0712204,0.0,0.5244888,0.06700339,0.005340906,0.00370425,0.026239,0.017797621,inf,inf,inf,inf,1,1,1,1,6,7,6,13,0,0,0
185236870,0,0.0,0.0,0.7879171,0.7848517,-0.46679336,0.1438288,-0.56665117,-0.69388527,-0.08044944,-0.009329357,-0.05774349,-0.0592363,-0.18046547,0.8028265,0.0,0.52042,0.50316626,1.1337152,3.0762997,0.0,0.53054655,0.05774349,0.005045364,0.0035064733,0.025496086,0.017333388,inf,inf,inf,inf,1,1,1,1,6,7,6,13,0,0,0
185340870,0,0.0,0.0,0.77762,0.7851563,-0.47213027,0.1438288,-0.56665117,-0.69388527,-0.09672269,-0.022568334,-0.049435005,-0.04995852,-0.18046547,0.8028265,0.0,3.407083,-1.0287938,-0.20903122,3.083188,0.0,0.5358834,0.049435005,0.005121569,0.003557536,0.025706615,0.017464349,inf,inf,inf,inf,1,1,1,1,6,7,6,13,0,0,0
185436879,0,0.0,0.0,0.7649757,0.78406096,-0.4756317,0.1438288,-0.56665117,-0.69388527,-0.12315633,-0.009553728,-0.030698493,-0.030469751,-0.18046547,0.8028265,0.0,-2.7242296,1.059105,0.75256574,3.0913444,0.0,0.5393849,0.030698493,0.005422371,0.0037583737,0.026499998,0.017959353,inf,inf,inf,inf,1,1,1,1,6,7,6,13,0,0,0
185540870,0,0.0,0.0,0.74863124,0.78093904,-0.47753218,0.1438288,-0.56665117,-0.69388527,-0.14033248,-0.05515019,-0.025602242,-0.024535986,-0.18046547,0.8028265,0.0,-2.1777139,-0.29472396,1.2389213,3.0970516,0.0,0.5412854,0.025602242,0.005497929,0.0038086714,0.026692405,0.018086603,inf,inf,inf,inf,1,1,1,1,6,7,6,13,0,0,0
